time,gFx,gFy,gFz,ax,ay,az,latitude,longitude,altitude,speed
2024-07-07 19:41:20.7450,0.09,-0.346,-1.242,-0.1,0.73,2.63,49.27809608377615,-122.91251493011514,353.26436454616487,0.9896619048818905
2024-07-07 19:41:20.7510,0.095,-0.361,-1.226,-0.14,0.85,2.73,49.27809608377615,-122.91251493011514,353.26436454616487,0.9896619048818905
2024-07-07 19:41:20.7580,0.117,-0.363,-1.227,-0.23,0.99,2.57,49.27809608377615,-122.91251493011514,353.26436454616487,0.9896619048818905
2024-07-07 19:41:20.7680,0.136,-0.352,-1.245,-0.46,1.0,2.6,49.27809608377615,-122.91251493011514,353.26436454616487,0.9896619048818905
2024-07-07 19:41:20.7780,0.144,-0.341,-1.276,-0.62,0.9,2.79,49.27809608377615,-122.91251493011514,353.26436454616487,0.9896619048818905
2024-07-07 19:41:20.7880,0.15,-0.33,-1.301,-0.69,0.82,3.1,49.27809608377615,-122.91251493011514,353.26436454616487,0.9896619048818905
2024-07-07 19:41:20.7980,0.157,-0.288,-1.32,-0.73,0.72,3.32,49.27809608377615,-122.91251493011514,353.26436454616487,0.9896619048818905
2024-07-07 19:41:20.8080,0.164,-0.241,-1.351,-0.78,0.32,3.51,49.27809608377615,-122.91251493011514,353.26436454616487,0.9896619048818905
2024-07-07 19:41:20.8190,0.168,-0.182,-1.388,-0.85,-0.09,3.81,49.27809608377615,-122.91251493011514,353.26436454616487,0.9896619048818905
2024-07-07 19:41:20.8280,0.167,-0.119,-1.425,-0.9,-0.62,4.16,49.27809608377615,-122.91251493011514,353.26436454616487,0.9896619048818905
2024-07-07 19:41:20.8390,0.164,-0.086,-1.422,-0.92,-1.17,4.48,49.27809608377615,-122.91251493011514,353.26436454616487,0.9896619048818905
2024-07-07 19:41:20.8490,0.169,-0.08,-1.353,-0.95,-1.4,4.36,49.27809608377615,-122.91251493011514,353.26436454616487,0.9896619048818905
2024-07-07 19:41:20.8580,0.183,-0.084,-1.234,-1.08,-1.43,3.6,49.27809608377615,-122.91251493011514,353.26436454616487,0.9896619048818905
2024-07-07 19:41:20.8690,0.186,-0.104,-1.1,-1.27,-1.38,2.39,49.27809608377615,-122.91251493011514,353.26436454616487,0.9896619048818905
2024-07-07 19:41:20.8790,0.19,-0.137,-0.982,-1.33,-1.2,1.1,49.27809608377615,-122.91251493011514,353.26436454616487,0.9896619048818905
2024-07-07 19:41:20.8890,0.207,-0.166,-0.882,-1.41,-0.93,-0.03,49.27809608377615,-122.91251493011514,353.26436454616487,0.9896619048818905
2024-07-07 19:41:20.8990,0.226,-0.188,-0.818,-1.6,-0.73,-0.96,49.27809608377615,-122.91251493011514,353.26436454616487,0.9896619048818905
2024-07-07 19:41:20.9090,0.23,-0.19,-0.8,-1.76,-0.62,-1.5,49.27809608377615,-122.91251493011514,353.26436454616487,0.9896619048818905
2024-07-07 19:41:20.9190,0.23,-0.169,-0.794,-1.76,-0.72,-1.62,49.27809608377615,-122.91251493011514,353.26436454616487,0.9896619048818905
2024-07-07 19:41:20.9290,0.231,-0.152,-0.787,-1.73,-1.03,-1.66,49.27809608377615,-122.91251493011514,353.26436454616487,0.9896619048818905
2024-07-07 19:41:20.9390,0.232,-0.154,-0.781,-1.69,-1.25,-1.69,49.27809608377615,-122.91251493011514,353.26436454616487,0.9896619048818905
2024-07-07 19:41:20.9500,0.229,-0.16,-0.767,-1.66,-1.3,-1.73,49.27809608377615,-122.91251493011514,353.26436454616487,0.9896619048818905
2024-07-07 19:41:20.9590,0.226,-0.157,-0.752,-1.59,-1.31,-1.86,49.27809608377615,-122.91251493011514,353.26436454616487,0.9896619048818905
2024-07-07 19:41:20.9700,0.217,-0.15,-0.736,-1.52,-1.4,-1.98,49.27809608377615,-122.91251493011514,353.26436454616487,0.9896619048818905
2024-07-07 19:41:20.9800,0.201,-0.147,-0.719,-1.38,-1.49,-2.13,49.27809608377615,-122.91251493011514,353.26436454616487,0.9896619048818905
2024-07-07 19:41:20.9900,0.188,-0.146,-0.702,-1.21,-1.53,-2.3,49.27809608377615,-122.91251493011514,353.26436454616487,0.9896619048818905
2024-07-07 19:41:21.0000,0.168,-0.148,-0.697,-1.07,-1.54,-2.44,49.27809608377615,-122.91251493011514,353.26436454616487,0.9896619048818905
2024-07-07 19:41:21.0100,0.141,-0.151,-0.689,-0.87,-1.51,-2.49,49.27809608377615,-122.91251493011514,353.26436454616487,0.9896619048818905
2024-07-07 19:41:21.0200,0.118,-0.156,-0.685,-0.61,-1.46,-2.58,49.27809608377615,-122.91251493011514,353.26436454616487,0.9896619048818905
2024-07-07 19:41:21.0300,0.099,-0.161,-0.69,-0.42,-1.38,-2.63,49.27809608377615,-122.91251493011514,353.26436454616487,0.9896619048818905
2024-07-07 19:41:21.0400,0.083,-0.177,-0.689,-0.29,-1.29,-2.58,49.27809608377615,-122.91251493011514,353.26436454616487,0.9896619048818905
2024-07-07 19:41:21.0500,0.064,-0.204,-0.681,-0.18,-1.08,-2.63,49.27809608377615,-122.91251493011514,353.26436454616487,0.9896619048818905
2024-07-07 19:41:21.0600,0.038,-0.231,-0.668,-0.06,-0.76,-2.72,49.27809608377615,-122.91251493011514,353.26436454616487,0.9896619048818905
2024-07-07 19:41:21.0710,0.007,-0.251,-0.634,0.13,-0.45,-2.89,49.27809608377615,-122.91251493011514,353.26436454616487,0.9896619048818905
2024-07-07 19:41:21.0800,-0.024,-0.256,-0.589,0.36,-0.2,-3.26,49.27809608377615,-122.91251493011514,353.26436454616487,0.9896619048818905
2024-07-07 19:41:21.0900,-0.05,-0.25,-0.565,0.6,-0.1,-3.73,49.27809608377615,-122.91251493011514,353.26436454616487,0.9896619048818905
2024-07-07 19:41:21.1010,-0.064,-0.242,-0.579,0.78,-0.1,-3.94,49.27809608377615,-122.91251493011514,353.26436454616487,0.9896619048818905
2024-07-07 19:41:21.1110,-0.069,-0.247,-0.601,0.86,-0.11,-3.79,49.27809608377615,-122.91251493011514,353.26436454616487,0.9896619048818905
2024-07-07 19:41:21.1210,-0.065,-0.264,-0.628,0.87,0.0,-3.58,49.27809608377615,-122.91251493011514,353.26436454616487,0.9896619048818905
2024-07-07 19:41:21.1310,-0.051,-0.285,-0.653,0.8,0.19,-3.32,49.27809608377615,-122.91251493011514,353.26436454616487,0.9896619048818905
2024-07-07 19:41:21.1410,-0.036,-0.314,-0.676,0.65,0.42,-3.08,49.27809608377615,-122.91251493011514,353.26436454616487,0.9896619048818905
2024-07-07 19:41:21.1530,-0.017,-0.344,-0.693,0.5,0.7,-2.85,49.27809608377615,-122.91251493011514,353.26436454616487,0.9896619048818905
2024-07-07 19:41:21.1610,-0.008,-0.371,-0.709,0.32,0.97,-2.7,49.27809608377615,-122.91251493011514,353.26436454616487,0.9896619048818905
2024-07-07 19:41:21.1720,0.003,-0.405,-0.714,0.25,1.2,-2.53,49.27807979810677,-122.91253150878391,353.41574158426374,1.4260709139357124
2024-07-07 19:41:21.1810,-0.004,-0.416,-0.751,0.16,1.52,-2.47,49.27807979810677,-122.91253150878391,353.41574158426374,1.4260709139357124
2024-07-07 19:41:21.1910,-0.006,-0.416,-0.798,0.26,1.53,-2.05,49.27807979810677,-122.91253150878391,353.41574158426374,1.4260709139357124
2024-07-07 19:41:21.2020,-0.012,-0.416,-0.845,0.3,1.52,-1.58,49.27807979810677,-122.91253150878391,353.41574158426374,1.4260709139357124
2024-07-07 19:41:21.2120,-0.025,-0.388,-0.875,0.39,1.42,-1.13,49.27807979810677,-122.91253150878391,353.41574158426374,1.4260709139357124
2024-07-07 19:41:21.2210,-0.044,-0.37,-0.905,0.56,1.09,-0.82,49.27807979810677,-122.91253150878391,353.41574158426374,1.4260709139357124
2024-07-07 19:41:21.2320,-0.042,-0.4,-0.932,0.74,0.95,-0.54,49.27807979810677,-122.91253150878391,353.41574158426374,1.4260709139357124
2024-07-07 19:41:21.2420,-0.024,-0.437,-0.991,0.73,1.19,-0.21,49.27807979810677,-122.91253150878391,353.41574158426374,1.4260709139357124
2024-07-07 19:41:21.2520,-0.01,-0.48,-1.057,0.58,1.52,0.4,49.27807979810677,-122.91253150878391,353.41574158426374,1.4260709139357124
2024-07-07 19:41:21.2620,0.0,-0.518,-1.134,0.46,1.94,1.07,49.27807979810677,-122.91253150878391,353.41574158426374,1.4260709139357124
2024-07-07 19:41:21.2720,0.012,-0.555,-1.192,0.36,2.33,1.8,49.27807979810677,-122.91253150878391,353.41574158426374,1.4260709139357124
2024-07-07 19:41:21.2820,0.01,-0.516,-1.261,0.26,2.6,2.38,49.27807979810677,-122.91253150878391,353.41574158426374,1.4260709139357124
2024-07-07 19:41:21.2920,0.01,-0.515,-1.31,0.27,2.21,3.05,49.27807979810677,-122.91253150878391,353.41574158426374,1.4260709139357124
2024-07-07 19:41:21.3020,0.001,-0.522,-1.336,0.27,2.25,3.51,49.27807979810677,-122.91253150878391,353.41574158426374,1.4260709139357124
2024-07-07 19:41:21.3130,0.006,-0.517,-1.317,0.31,2.29,3.7,49.27807979810677,-122.91253150878391,353.41574158426374,1.4260709139357124
2024-07-07 19:41:21.3220,0.001,-0.487,-1.299,0.22,2.22,3.5,49.27807979810677,-122.91253150878391,353.41574158426374,1.4260709139357124
2024-07-07 19:41:21.3340,-0.015,-0.449,-1.284,0.22,1.89,3.33,49.27807979810677,-122.91253150878391,353.41574158426374,1.4260709139357124
2024-07-07 19:41:21.3430,-0.043,-0.439,-1.277,0.34,1.58,3.17,49.27807979810677,-122.91253150878391,353.41574158426374,1.4260709139357124
2024-07-07 19:41:21.3520,-0.069,-0.395,-1.301,0.58,1.55,3.11,49.27807979810677,-122.91253150878391,353.41574158426374,1.4260709139357124
2024-07-07 19:41:21.3620,-0.088,-0.32,-1.378,0.8,1.15,3.37,49.27807979810677,-122.91253150878391,353.41574158426374,1.4260709139357124
2024-07-07 19:41:21.3730,-0.087,-0.252,-1.484,0.95,0.54,4.16,49.27807979810677,-122.91253150878391,353.41574158426374,1.4260709139357124
2024-07-07 19:41:21.3830,-0.064,-0.175,-1.552,0.89,-0.02,5.16,49.27807979810677,-122.91253150878391,353.41574158426374,1.4260709139357124
2024-07-07 19:41:21.3930,-0.027,-0.101,-1.559,0.63,-0.68,5.72,49.27807979810677,-122.91253150878391,353.41574158426374,1.4260709139357124
2024-07-07 19:41:21.4030,0.004,-0.056,-1.531,0.25,-1.32,5.72,49.27807979810677,-122.91253150878391,353.41574158426374,1.4260709139357124
2024-07-07 19:41:21.4130,0.01,-0.027,-1.467,-0.06,-1.68,5.4,49.27807979810677,-122.91253150878391,353.41574158426374,1.4260709139357124
2024-07-07 19:41:21.4230,-0.015,-0.034,-1.359,-0.09,-1.92,4.7,49.27807979810677,-122.91253150878391,353.41574158426374,1.4260709139357124
2024-07-07 19:41:21.4330,-0.041,-0.033,-1.258,0.15,-1.83,3.63,49.27807979810677,-122.91253150878391,353.41574158426374,1.4260709139357124
2024-07-07 19:41:21.4430,-0.066,-0.027,-1.163,0.41,-1.86,2.65,49.27807979810677,-122.91253150878391,353.41574158426374,1.4260709139357124
2024-07-07 19:41:21.4530,-0.081,-0.018,-1.101,0.68,-1.94,1.74,49.27807979810677,-122.91253150878391,353.41574158426374,1.4260709139357124
2024-07-07 19:41:21.4630,-0.084,-0.01,-1.057,0.87,-2.06,1.18,49.27807979810677,-122.91253150878391,353.41574158426374,1.4260709139357124
2024-07-07 19:41:21.4730,-0.072,-0.019,-1.023,0.95,-2.12,0.76,49.27807979810677,-122.91253150878391,353.41574158426374,1.4260709139357124
2024-07-07 19:41:21.4840,-0.045,-0.03,-1.001,0.89,-2.03,0.45,49.27807979810677,-122.91253150878391,353.41574158426374,1.4260709139357124
2024-07-07 19:41:21.4940,-0.015,-0.043,-0.984,0.7,-1.93,0.24,49.27807979810677,-122.91253150878391,353.41574158426374,1.4260709139357124
2024-07-07 19:41:21.5040,0.017,-0.058,-0.968,0.47,-1.81,0.09,49.27807979810677,-122.91253150878391,353.41574158426374,1.4260709139357124
2024-07-07 19:41:21.5140,0.036,-0.076,-0.923,0.23,-1.71,-0.08,49.27807979810677,-122.91253150878391,353.41574158426374,1.4260709139357124
2024-07-07 19:41:21.5240,0.047,-0.086,-0.861,0.12,-1.55,-0.54,49.27807979810677,-122.91253150878391,353.41574158426374,1.4260709139357124
2024-07-07 19:41:21.5340,0.057,-0.088,-0.787,0.05,-1.53,-1.15,49.27807979810677,-122.91253150878391,353.41574158426374,1.4260709139357124
2024-07-07 19:41:21.5440,0.062,-0.096,-0.719,0.01,-1.55,-1.87,49.27807979810677,-122.91253150878391,353.41574158426374,1.4260709139357124
2024-07-07 19:41:21.5540,0.069,-0.11,-0.66,0.0,-1.51,-2.51,49.27807979810677,-122.91253150878391,353.41574158426374,1.4260709139357124
2024-07-07 19:41:21.5650,0.077,-0.129,-0.618,-0.03,-1.42,-3.05,49.27807979810677,-122.91253150878391,353.41574158426374,1.4260709139357124
2024-07-07 19:41:21.5740,0.084,-0.15,-0.576,-0.06,-1.27,-3.44,49.27807979810677,-122.91253150878391,353.41574158426374,1.4260709139357124
2024-07-07 19:41:21.5840,0.081,-0.171,-0.539,-0.08,-1.09,-3.84,49.27807979810677,-122.91253150878391,353.41574158426374,1.4260709139357124
2024-07-07 19:41:21.5940,0.079,-0.187,-0.52,0.01,-0.92,-4.17,49.27807979810677,-122.91253150878391,353.41574158426374,1.4260709139357124
2024-07-07 19:41:21.6050,0.081,-0.201,-0.519,0.07,-0.81,-4.32,49.27807979810677,-122.91253150878391,353.41574158426374,1.4260709139357124
2024-07-07 19:41:21.6160,0.09,-0.209,-0.526,0.1,-0.71,-4.29,49.27807979810677,-122.91253150878391,353.41574158426374,1.4260709139357124
2024-07-07 19:41:21.6250,0.091,-0.219,-0.535,0.05,-0.67,-4.21,49.27807979810677,-122.91253150878391,353.41574158426374,1.4260709139357124
2024-07-07 19:41:21.6350,0.091,-0.225,-0.536,0.09,-0.6,-4.11,49.27807979810677,-122.91253150878391,353.41574158426374,1.4260709139357124
2024-07-07 19:41:21.6450,0.086,-0.244,-0.535,0.14,-0.58,-4.09,49.27807979810677,-122.91253150878391,353.41574158426374,1.4260709139357124
2024-07-07 19:41:21.6560,0.079,-0.274,-0.526,0.23,-0.4,-4.1,49.27807979810677,-122.91253150878391,353.41574158426374,1.4260709139357124
2024-07-07 19:41:21.6650,0.073,-0.298,-0.526,0.32,-0.14,-4.18,49.27807979810677,-122.91253150878391,353.41574158426374,1.4260709139357124
2024-07-07 19:41:21.6750,0.072,-0.316,-0.533,0.42,0.06,-4.14,49.27807979810677,-122.91253150878391,353.41574158426374,1.4260709139357124
2024-07-07 19:41:21.6850,0.073,-0.34,-0.556,0.47,0.23,-4.06,49.27807979810677,-122.91253150878391,353.41574158426374,1.4260709139357124
2024-07-07 19:41:21.6950,0.086,-0.362,-0.59,0.48,0.45,-3.8,49.27807979810677,-122.91253150878391,353.41574158426374,1.4260709139357124
2024-07-07 19:41:21.7050,0.106,-0.382,-0.632,0.38,0.65,-3.46,49.27807979810677,-122.91253150878391,353.41574158426374,1.4260709139357124
2024-07-07 19:41:21.7150,0.121,-0.393,-0.692,0.21,0.84,-3.01,49.27807979810677,-122.91253150878391,353.41574158426374,1.4260709139357124
2024-07-07 19:41:21.7250,0.123,-0.397,-0.738,0.1,0.94,-2.42,49.27807979810677,-122.91253150878391,353.41574158426374,1.4260709139357124
2024-07-07 19:41:21.7350,0.126,-0.404,-0.758,0.11,0.97,-2.0,49.27807979810677,-122.91253150878391,353.41574158426374,1.4260709139357124
2024-07-07 19:41:21.7460,0.13,-0.421,-0.783,0.1,1.02,-1.81,49.27807979810677,-122.91253150878391,353.41574158426374,1.4260709139357124
2024-07-07 19:41:21.7560,0.144,-0.448,-0.811,0.08,1.19,-1.54,49.27807979810677,-122.91253150878391,353.41574158426374,1.4260709139357124
2024-07-07 19:41:21.7660,0.158,-0.47,-0.846,-0.04,1.43,-1.25,49.27807979810677,-122.91253150878391,353.41574158426374,1.4260709139357124
2024-07-07 19:41:21.7760,0.175,-0.482,-0.903,-0.16,1.6,-0.86,49.27807979810677,-122.91253150878391,353.41574158426374,1.4260709139357124
2024-07-07 19:41:21.7860,0.186,-0.505,-0.956,-0.3,1.71,-0.29,49.27807979810677,-122.91253150878391,353.41574158426374,1.4260709139357124
2024-07-07 19:41:21.7960,0.187,-0.527,-1.013,-0.38,1.93,0.23,49.27807979810677,-122.91253150878391,353.41574158426374,1.4260709139357124
2024-07-07 19:41:21.8060,0.184,-0.533,-1.067,-0.38,2.13,0.8,49.27807979810677,-122.91253150878391,353.41574158426374,1.4260709139357124
2024-07-07 19:41:21.8160,0.191,-0.528,-1.124,-0.37,2.18,1.31,49.27807979810677,-122.91253150878391,353.41574158426374,1.4260709139357124
2024-07-07 19:41:21.8260,0.205,-0.528,-1.192,-0.47,2.16,1.87,49.27807979810677,-122.91253150878391,353.41574158426374,1.4260709139357124
2024-07-07 19:41:21.8360,0.229,-0.515,-1.254,-0.62,2.2,2.52,49.27807979810677,-122.91253150878391,353.41574158426374,1.4260709139357124
2024-07-07 19:41:21.8460,0.274,-0.488,-1.282,-0.91,2.11,3.09,49.27807979810677,-122.91253150878391,353.41574158426374,1.4260709139357124
2024-07-07 19:41:21.8560,0.316,-0.457,-1.301,-1.39,1.93,3.29,49.27807979810677,-122.91253150878391,353.41574158426374,1.4260709139357124
2024-07-07 19:41:21.8660,0.344,-0.433,-1.333,-1.81,1.72,3.47,49.27807979810677,-122.91253150878391,353.41574158426374,1.4260709139357124
2024-07-07 19:41:21.8760,0.361,-0.417,-1.377,-2.07,1.6,3.76,49.27807979810677,-122.91253150878391,353.41574158426374,1.4260709139357124
2024-07-07 19:41:21.8870,0.377,-0.39,-1.442,-2.24,1.56,4.17,49.27807979810677,-122.91253150878391,353.41574158426374,1.4260709139357124
2024-07-07 19:41:21.8970,0.384,-0.342,-1.53,-2.39,1.4,4.82,49.27807979810677,-122.91253150878391,353.41574158426374,1.4260709139357124
2024-07-07 19:41:21.9070,0.38,-0.271,-1.629,-2.45,1.03,5.66,49.27807979810677,-122.91253150878391,353.41574158426374,1.4260709139357124
2024-07-07 19:41:21.9170,0.384,-0.192,-1.714,-2.42,0.46,6.61,49.27807979810677,-122.91253150878391,353.41574158426374,1.4260709139357124
2024-07-07 19:41:21.9270,0.408,-0.11,-1.719,-2.51,-0.21,7.34,49.27807979810677,-122.91253150878391,353.41574158426374,1.4260709139357124
2024-07-07 19:41:21.9370,0.434,-0.05,-1.648,-2.79,-0.92,7.27,49.27807979810677,-122.91253150878391,353.41574158426374,1.4260709139357124
2024-07-07 19:41:21.9470,0.452,-0.023,-1.506,-3.08,-1.41,6.47,49.27807979810677,-122.91253150878391,353.41574158426374,1.4260709139357124
2024-07-07 19:41:21.9570,0.457,0.002,-1.352,-3.26,-1.66,5.01,49.27807979810677,-122.91253150878391,353.41574158426374,1.4260709139357124
2024-07-07 19:41:21.9670,0.445,0.029,-1.218,-3.3,-1.96,3.53,49.27807979810677,-122.91253150878391,353.41574158426374,1.4260709139357124
2024-07-07 19:41:21.9780,0.421,0.022,-1.106,-3.15,-2.29,2.25,49.27807979810677,-122.91253150878391,353.41574158426374,1.4260709139357124
2024-07-07 19:41:21.9870,0.403,-0.02,-1.022,-2.89,-2.27,1.22,49.27807979810677,-122.91253150878391,353.41574158426374,1.4260709139357124
2024-07-07 19:41:21.9970,0.404,-0.059,-0.946,-2.69,-1.94,0.44,49.27807979810677,-122.91253150878391,353.41574158426374,1.4260709139357124
2024-07-07 19:41:22.0080,0.404,-0.089,-0.9,-2.69,-1.7,-0.25,49.27807979810677,-122.91253150878391,353.41574158426374,1.4260709139357124
2024-07-07 19:41:22.0180,0.39,-0.115,-0.865,-2.64,-1.48,-0.63,49.27807979810677,-122.91253150878391,353.41574158426374,1.4260709139357124
2024-07-07 19:41:22.0270,0.365,-0.128,-0.825,-2.49,-1.34,-0.97,49.27807979810677,-122.91253150878391,353.41574158426374,1.4260709139357124
2024-07-07 19:41:22.0380,0.336,-0.128,-0.797,-2.22,-1.26,-1.33,49.27807979810677,-122.91253150878391,353.41574158426374,1.4260709139357124
2024-07-07 19:41:22.0480,0.304,-0.123,-0.754,-1.96,-1.33,-1.61,49.27807979810677,-122.91253150878391,353.41574158426374,1.4260709139357124
2024-07-07 19:41:22.0580,0.264,-0.124,-0.711,-1.65,-1.38,-2.04,49.27807979810677,-122.91253150878391,353.41574158426374,1.4260709139357124
2024-07-07 19:41:22.0680,0.224,-0.119,-0.672,-1.3,-1.38,-2.46,49.27807979810677,-122.91253150878391,353.41574158426374,1.4260709139357124
2024-07-07 19:41:22.0780,0.182,-0.117,-0.638,-0.94,-1.43,-2.84,49.27807979810677,-122.91253150878391,353.41574158426374,1.4260709139357124
2024-07-07 19:41:22.0880,0.145,-0.121,-0.606,-0.58,-1.42,-3.18,49.27807979810677,-122.91253150878391,353.41574158426374,1.4260709139357124
2024-07-07 19:41:22.0980,0.111,-0.128,-0.577,-0.26,-1.35,-3.51,49.27807979810677,-122.91253150878391,353.41574158426374,1.4260709139357124
2024-07-07 19:41:22.1090,0.085,-0.136,-0.562,0.02,-1.26,-3.79,49.27807979810677,-122.91253150878391,353.41574158426374,1.4260709139357124
2024-07-07 19:41:22.1180,0.062,-0.148,-0.554,0.23,-1.17,-3.93,49.27807979810677,-122.91253150878391,353.41574158426374,1.4260709139357124
2024-07-07 19:41:22.1280,0.043,-0.156,-0.545,0.42,-1.05,-4.01,49.27807979810677,-122.91253150878391,353.41574158426374,1.4260709139357124
2024-07-07 19:41:22.1380,0.026,-0.169,-0.518,0.56,-0.99,-4.11,49.27807979810677,-122.91253150878391,353.41574158426374,1.4260709139357124
2024-07-07 19:41:22.1490,0.015,-0.192,-0.471,0.69,-0.87,-4.4,49.27807979810677,-122.91253150878391,353.41574158426374,1.4260709139357124
2024-07-07 19:41:22.1590,0.009,-0.221,-0.434,0.77,-0.68,-4.86,49.27807979810677,-122.91253150878391,353.41574158426374,1.4260709139357124
2024-07-07 19:41:22.1710,0.016,-0.273,-0.402,0.8,-0.43,-5.2,49.27807421082613,-122.91254649807514,353.282917692326,1.363582755900867
2024-07-07 19:41:22.1780,0.038,-0.346,-0.375,0.71,0.06,-5.49,49.27807421082613,-122.91254649807514,353.282917692326,1.363582755900867
2024-07-07 19:41:22.1890,0.068,-0.411,-0.384,0.47,0.73,-5.71,49.27807421082613,-122.91254649807514,353.282917692326,1.363582755900867
2024-07-07 19:41:22.1990,0.074,-0.432,-0.437,0.2,1.28,-5.55,49.27807421082613,-122.91254649807514,353.282917692326,1.363582755900867
2024-07-07 19:41:22.2090,0.068,-0.459,-0.505,0.15,1.4,-4.99,49.27807421082613,-122.91254649807514,353.282917692326,1.363582755900867
2024-07-07 19:41:22.2190,0.042,-0.454,-0.611,0.19,1.68,-4.29,49.27807421082613,-122.91254649807514,353.282917692326,1.363582755900867
2024-07-07 19:41:22.2290,0.031,-0.418,-0.677,0.39,1.56,-3.26,49.27807421082613,-122.91254649807514,353.282917692326,1.363582755900867
2024-07-07 19:41:22.2390,0.019,-0.41,-0.703,0.4,1.26,-2.69,49.27807421082613,-122.91254649807514,353.282917692326,1.363582755900867
2024-07-07 19:41:22.2490,0.002,-0.413,-0.717,0.46,1.25,-2.47,49.27807421082613,-122.91254649807514,353.282917692326,1.363582755900867
2024-07-07 19:41:22.2600,-0.018,-0.41,-0.741,0.53,1.32,-2.36,49.27807421082613,-122.91254649807514,353.282917692326,1.363582755900867
2024-07-07 19:41:22.2690,-0.04,-0.412,-0.766,0.64,1.34,-2.13,49.27807421082613,-122.91254649807514,353.282917692326,1.363582755900867
2024-07-07 19:41:22.2800,-0.071,-0.418,-0.796,0.78,1.4,-1.9,49.27807421082613,-122.91254649807514,353.282917692326,1.363582755900867
2024-07-07 19:41:22.2900,-0.11,-0.415,-0.848,1.03,1.49,-1.6,49.27807421082613,-122.91254649807514,353.282917692326,1.363582755900867
2024-07-07 19:41:22.3000,-0.141,-0.393,-0.915,1.34,1.48,-1.08,49.27807421082613,-122.91254649807514,353.282917692326,1.363582755900867
2024-07-07 19:41:22.3100,-0.16,-0.362,-0.992,1.58,1.27,-0.41,49.27807421082613,-122.91254649807514,353.282917692326,1.363582755900867
2024-07-07 19:41:22.3200,-0.168,-0.337,-1.064,1.7,1.0,0.34,49.27807421082613,-122.91254649807514,353.282917692326,1.363582755900867
2024-07-07 19:41:22.3300,-0.17,-0.32,-1.124,1.73,0.82,1.02,49.27807421082613,-122.91254649807514,353.282917692326,1.363582755900867
2024-07-07 19:41:22.3400,-0.176,-0.3,-1.17,1.72,0.72,1.56,49.27807421082613,-122.91254649807514,353.282917692326,1.363582755900867
2024-07-07 19:41:22.3500,-0.179,-0.265,-1.226,1.78,0.58,2.0,49.27807421082613,-122.91254649807514,353.282917692326,1.363582755900867
2024-07-07 19:41:22.3600,-0.179,-0.229,-1.294,1.82,0.3,2.54,49.27807421082613,-122.91254649807514,353.282917692326,1.363582755900867
2024-07-07 19:41:22.3710,-0.17,-0.211,-1.378,1.84,0.04,3.23,49.27807421082613,-122.91254649807514,353.282917692326,1.363582755900867
2024-07-07 19:41:22.3800,-0.147,-0.2,-1.433,1.79,-0.09,4.03,49.27807421082613,-122.91254649807514,353.282917692326,1.363582755900867
2024-07-07 19:41:22.3900,-0.124,-0.197,-1.428,1.61,-0.18,4.5,49.27807421082613,-122.91254649807514,353.282917692326,1.363582755900867
2024-07-07 19:41:22.4010,-0.111,-0.201,-1.404,1.48,-0.23,4.41,49.27807421082613,-122.91254649807514,353.282917692326,1.363582755900867
2024-07-07 19:41:22.4110,-0.11,-0.225,-1.392,1.47,-0.21,4.2,49.27807421082613,-122.91254649807514,353.282917692326,1.363582755900867
2024-07-07 19:41:22.4210,-0.081,-0.243,-1.385,1.56,0.01,4.1,49.27807421082613,-122.91254649807514,353.282917692326,1.363582755900867
2024-07-07 19:41:22.4310,-0.022,-0.218,-1.407,1.38,0.15,4.05,49.27807421082613,-122.91254649807514,353.282917692326,1.363582755900867
2024-07-07 19:41:22.4410,0.051,-0.167,-1.473,0.92,-0.13,4.33,49.27807421082613,-122.91254649807514,353.282917692326,1.363582755900867
2024-07-07 19:41:22.4510,0.118,-0.124,-1.538,0.33,-0.59,5.01,49.27807421082613,-122.91254649807514,353.282917692326,1.363582755900867
2024-07-07 19:41:22.4610,0.154,-0.091,-1.562,-0.19,-0.93,5.62,49.27807421082613,-122.91254649807514,353.282917692326,1.363582755900867
2024-07-07 19:41:22.4720,0.152,-0.06,-1.539,-0.43,-1.2,5.78,49.27807421082613,-122.91254649807514,353.282917692326,1.363582755900867
2024-07-07 19:41:22.4810,0.134,-0.023,-1.503,-0.32,-1.46,5.53,49.27807421082613,-122.91254649807514,353.282917692326,1.363582755900867
2024-07-07 19:41:22.4910,0.126,0.01,-1.43,-0.14,-1.82,5.14,49.27807421082613,-122.91254649807514,353.282917692326,1.363582755900867
2024-07-07 19:41:22.5010,0.114,0.022,-1.322,-0.07,-2.14,4.37,49.27807421082613,-122.91254649807514,353.282917692326,1.363582755900867
2024-07-07 19:41:22.5110,0.091,0.025,-1.212,0.05,-2.25,3.3,49.27807421082613,-122.91254649807514,353.282917692326,1.363582755900867
2024-07-07 19:41:22.5220,0.06,0.032,-1.116,0.28,-2.31,2.23,49.27807421082613,-122.91254649807514,353.282917692326,1.363582755900867
2024-07-07 19:41:22.5320,0.032,0.044,-1.045,0.59,-2.42,1.33,49.27807421082613,-122.91254649807514,353.282917692326,1.363582755900867
2024-07-07 19:41:22.5420,0.012,0.062,-1.003,0.86,-2.57,0.67,49.27807421082613,-122.91254649807514,353.282917692326,1.363582755900867
2024-07-07 19:41:22.5520,0.006,0.068,-0.986,1.07,-2.75,0.29,49.27807421082613,-122.91254649807514,353.282917692326,1.363582755900867
2024-07-07 19:41:22.5620,0.016,0.069,-0.975,1.14,-2.79,0.15,49.27807421082613,-122.91254649807514,353.282917692326,1.363582755900867
2024-07-07 19:41:22.5720,0.035,0.064,-0.966,1.07,-2.81,0.05,49.27807421082613,-122.91254649807514,353.282917692326,1.363582755900867
2024-07-07 19:41:22.5820,0.056,0.048,-0.944,0.9,-2.74,-0.04,49.27807421082613,-122.91254649807514,353.282917692326,1.363582755900867
2024-07-07 19:41:22.5920,0.07,0.028,-0.908,0.73,-2.6,-0.27,49.27807421082613,-122.91254649807514,353.282917692326,1.363582755900867
2024-07-07 19:41:22.6030,0.079,0.004,-0.861,0.62,-2.42,-0.62,49.27807421082613,-122.91254649807514,353.282917692326,1.363582755900867
2024-07-07 19:41:22.6120,0.084,-0.017,-0.804,0.55,-2.22,-1.08,49.27807421082613,-122.91254649807514,353.282917692326,1.363582755900867
2024-07-07 19:41:22.6220,0.084,-0.038,-0.734,0.51,-2.08,-1.64,49.27807421082613,-122.91254649807514,353.282917692326,1.363582755900867
2024-07-07 19:41:22.6320,0.084,-0.05,-0.663,0.54,-1.93,-2.33,49.27807421082613,-122.91254649807514,353.282917692326,1.363582755900867
2024-07-07 19:41:22.6420,0.081,-0.061,-0.599,0.55,-1.89,-3.0,49.27807421082613,-122.91254649807514,353.282917692326,1.363582755900867
2024-07-07 19:41:22.6520,0.081,-0.092,-0.55,0.62,-1.81,-3.59,49.27807421082613,-122.91254649807514,353.282917692326,1.363582755900867
2024-07-07 19:41:22.6620,0.094,-0.123,-0.516,0.62,-1.57,-4.04,49.27807421082613,-122.91254649807514,353.282917692326,1.363582755900867
2024-07-07 19:41:22.6720,0.109,-0.157,-0.502,0.53,-1.31,-4.33,49.27807421082613,-122.91254649807514,353.282917692326,1.363582755900867
2024-07-07 19:41:22.6820,0.115,-0.183,-0.506,0.41,-1.03,-4.42,49.27807421082613,-122.91254649807514,353.282917692326,1.363582755900867
2024-07-07 19:41:22.6920,0.111,-0.195,-0.527,0.39,-0.84,-4.34,49.27807421082613,-122.91254649807514,353.282917692326,1.363582755900867
2024-07-07 19:41:22.7020,0.108,-0.206,-0.545,0.44,-0.77,-4.11,49.27807421082613,-122.91254649807514,353.282917692326,1.363582755900867
2024-07-07 19:41:22.7130,0.1,-0.217,-0.55,0.48,-0.68,-3.95,49.27807421082613,-122.91254649807514,353.282917692326,1.363582755900867
2024-07-07 19:41:22.7230,0.087,-0.227,-0.556,0.56,-0.6,-3.9,49.27807421082613,-122.91254649807514,353.282917692326,1.363582755900867
2024-07-07 19:41:22.7330,0.085,-0.241,-0.574,0.67,-0.51,-3.84,49.27807421082613,-122.91254649807514,353.282917692326,1.363582755900867
2024-07-07 19:41:22.7430,0.098,-0.257,-0.594,0.66,-0.37,-3.64,49.27807421082613,-122.91254649807514,353.282917692326,1.363582755900867
2024-07-07 19:41:22.7530,0.109,-0.282,-0.594,0.5,-0.22,-3.47,49.27807421082613,-122.91254649807514,353.282917692326,1.363582755900867
2024-07-07 19:41:22.7630,0.1,-0.31,-0.591,0.39,0.04,-3.49,49.27807421082613,-122.91254649807514,353.282917692326,1.363582755900867
2024-07-07 19:41:22.7730,0.091,-0.322,-0.615,0.47,0.3,-3.49,49.27807421082613,-122.91254649807514,353.282917692326,1.363582755900867
2024-07-07 19:41:22.7830,0.091,-0.333,-0.659,0.52,0.4,-3.23,49.27807421082613,-122.91254649807514,353.282917692326,1.363582755900867
2024-07-07 19:41:22.7930,0.088,-0.35,-0.714,0.48,0.52,-2.79,49.27807421082613,-122.91254649807514,353.282917692326,1.363582755900867
2024-07-07 19:41:22.8040,0.094,-0.363,-0.771,0.46,0.69,-2.25,49.27807421082613,-122.91254649807514,353.282917692326,1.363582755900867
2024-07-07 19:41:22.8140,0.103,-0.366,-0.808,0.33,0.82,-1.71,49.27807421082613,-122.91254649807514,353.282917692326,1.363582755900867
2024-07-07 19:41:22.8240,0.1,-0.371,-0.822,0.18,0.85,-1.4,49.27807421082613,-122.91254649807514,353.282917692326,1.363582755900867
2024-07-07 19:41:22.8340,0.086,-0.381,-0.834,0.16,0.91,-1.28,49.27807421082613,-122.91254649807514,353.282917692326,1.363582755900867
2024-07-07 19:41:22.8440,0.07,-0.391,-0.846,0.24,1.01,-1.17,49.27807421082613,-122.91254649807514,353.282917692326,1.363582755900867
2024-07-07 19:41:22.8550,0.056,-0.4,-0.864,0.34,1.1,-1.06,49.27807421082613,-122.91254649807514,353.282917692326,1.363582755900867
2024-07-07 19:41:22.8640,0.054,-0.401,-0.892,0.42,1.15,-0.86,49.27807421082613,-122.91254649807514,353.282917692326,1.363582755900867
2024-07-07 19:41:22.8740,0.055,-0.391,-0.917,0.39,1.09,-0.56,49.27807421082613,-122.91254649807514,353.282917692326,1.363582755900867
2024-07-07 19:41:22.8840,0.04,-0.377,-0.939,0.36,0.91,-0.32,49.27807421082613,-122.91254649807514,353.282917692326,1.363582755900867
2024-07-07 19:41:22.8940,0.042,-0.383,-0.947,0.49,0.68,-0.07,49.27807421082613,-122.91254649807514,353.282917692326,1.363582755900867
2024-07-07 19:41:22.9040,0.061,-0.385,-0.958,0.42,0.66,0.03,49.27807421082613,-122.91254649807514,353.282917692326,1.363582755900867
2024-07-07 19:41:22.9140,0.06,-0.442,-0.994,0.23,0.62,0.17,49.27807421082613,-122.91254649807514,353.282917692326,1.363582755900867
2024-07-07 19:41:22.9240,0.06,-0.508,-1.052,0.27,1.17,0.61,49.27807421082613,-122.91254649807514,353.282917692326,1.363582755900867
2024-07-07 19:41:22.9340,0.088,-0.543,-1.099,0.26,1.75,1.16,49.27807421082613,-122.91254649807514,353.282917692326,1.363582755900867
2024-07-07 19:41:22.9440,0.133,-0.547,-1.154,0.0,2.03,1.65,49.27807421082613,-122.91254649807514,353.282917692326,1.363582755900867
2024-07-07 19:41:22.9550,0.184,-0.556,-1.203,-0.41,2.06,2.19,49.27807421082613,-122.91254649807514,353.282917692326,1.363582755900867
2024-07-07 19:41:22.9650,0.235,-0.551,-1.247,-0.84,2.16,2.66,49.27807421082613,-122.91254649807514,353.282917692326,1.363582755900867
2024-07-07 19:41:22.9750,0.281,-0.524,-1.311,-1.26,2.14,3.1,49.27807421082613,-122.91254649807514,353.282917692326,1.363582755900867
2024-07-07 19:41:22.9850,0.317,-0.507,-1.395,-1.6,1.94,3.75,49.27807421082613,-122.91254649807514,353.282917692326,1.363582755900867
2024-07-07 19:41:22.9950,0.35,-0.476,-1.52,-1.84,1.87,4.57,49.27807421082613,-122.91254649807514,353.282917692326,1.363582755900867
2024-07-07 19:41:23.0050,0.372,-0.411,-1.723,-2.07,1.68,5.87,49.27807421082613,-122.91254649807514,353.282917692326,1.363582755900867
2024-07-07 19:41:23.0160,0.42,-0.281,-1.877,-2.2,1.13,7.87,49.27807421082613,-122.91254649807514,353.282917692326,1.363582755900867
2024-07-07 19:41:23.0250,0.464,-0.228,-1.888,-2.69,-0.05,9.17,49.27807421082613,-122.91254649807514,353.282917692326,1.363582755900867
2024-07-07 19:41:23.0350,0.497,-0.265,-1.778,-3.07,-0.19,9.07,49.27807421082613,-122.91254649807514,353.282917692326,1.363582755900867
2024-07-07 19:41:23.0450,0.502,-0.202,-1.627,-3.44,0.18,7.85,49.27807421082613,-122.91254649807514,353.282917692326,1.363582755900867
2024-07-07 19:41:23.0560,0.445,-0.117,-1.462,-3.43,-0.46,6.35,49.27807421082613,-122.91254649807514,353.282917692326,1.363582755900867
2024-07-07 19:41:23.0660,0.375,-0.068,-1.3,-2.86,-1.24,4.7,49.27807421082613,-122.91254649807514,353.282917692326,1.363582755900867
2024-07-07 19:41:23.0760,0.327,-0.056,-1.189,-2.2,-1.7,3.16,49.27807421082613,-122.91254649807514,353.282917692326,1.363582755900867
2024-07-07 19:41:23.0860,0.309,-0.076,-1.113,-1.77,-1.83,2.14,49.27807421082613,-122.91254649807514,353.282917692326,1.363582755900867
2024-07-07 19:41:23.0960,0.312,-0.11,-1.056,-1.63,-1.69,1.45,49.27807421082613,-122.91254649807514,353.282917692326,1.363582755900867
2024-07-07 19:41:23.1060,0.309,-0.143,-1.015,-1.64,-1.43,0.93,49.27807421082613,-122.91254649807514,353.282917692326,1.363582755900867
2024-07-07 19:41:23.1160,0.297,-0.163,-0.978,-1.59,-1.2,0.56,49.27807421082613,-122.91254649807514,353.282917692326,1.363582755900867
2024-07-07 19:41:23.1260,0.289,-0.172,-0.936,-1.46,-1.09,0.23,49.27807421082613,-122.91254649807514,353.282917692326,1.363582755900867
2024-07-07 19:41:23.1360,0.278,-0.184,-0.875,-1.37,-1.08,-0.18,49.27807421082613,-122.91254649807514,353.282917692326,1.363582755900867
2024-07-07 19:41:23.1500,0.266,-0.194,-0.809,-1.25,-1.01,-0.78,49.27807421082613,-122.91254649807514,353.282917692326,1.363582755900867
2024-07-07 19:41:23.1570,0.251,-0.197,-0.755,-1.11,-0.96,-1.41,49.27807421082613,-122.91254649807514,353.282917692326,1.363582755900867
2024-07-07 19:41:23.1660,0.237,-0.191,-0.722,-0.95,-0.99,-1.89,49.27807421082613,-122.91254649807514,353.282917692326,1.363582755900867
2024-07-07 19:41:23.1760,0.219,-0.184,-0.698,-0.8,-1.09,-2.19,49.27806484999767,-122.91255887073531,353.15072281938046,1.4107448488148502
2024-07-07 19:41:23.1860,0.2,-0.187,-0.679,-0.61,-1.18,-2.4,49.27806484999767,-122.91255887073531,353.15072281938046,1.4107448488148502
2024-07-07 19:41:23.1960,0.195,-0.196,-0.656,-0.43,-1.19,-2.59,49.27806484999767,-122.91255887073531,353.15072281938046,1.4107448488148502
2024-07-07 19:41:23.2060,0.184,-0.204,-0.64,-0.39,-1.13,-2.78,49.27806484999767,-122.91255887073531,353.15072281938046,1.4107448488148502
2024-07-07 19:41:23.2160,0.17,-0.208,-0.611,-0.28,-1.1,-2.93,49.27806484999767,-122.91255887073531,353.15072281938046,1.4107448488148502
2024-07-07 19:41:23.2260,0.151,-0.215,-0.585,-0.15,-1.1,-3.22,49.27806484999767,-122.91255887073531,353.15072281938046,1.4107448488148502
2024-07-07 19:41:23.2370,0.137,-0.226,-0.558,0.02,-1.07,-3.46,49.27806484999767,-122.91255887073531,353.15072281938046,1.4107448488148502
2024-07-07 19:41:23.2460,0.128,-0.235,-0.532,0.11,-0.99,-3.72,49.27806484999767,-122.91255887073531,353.15072281938046,1.4107448488148502
2024-07-07 19:41:23.2570,0.11,-0.246,-0.508,0.18,-0.94,-3.96,49.27806484999767,-122.91255887073531,353.15072281938046,1.4107448488148502
2024-07-07 19:41:23.2670,0.096,-0.268,-0.478,0.32,-0.85,-4.2,49.27806484999767,-122.91255887073531,353.15072281938046,1.4107448488148502
2024-07-07 19:41:23.2770,0.082,-0.288,-0.454,0.42,-0.65,-4.49,49.27806484999767,-122.91255887073531,353.15072281938046,1.4107448488148502
2024-07-07 19:41:23.2870,0.067,-0.303,-0.44,0.52,-0.47,-4.71,49.27806484999767,-122.91255887073531,353.15072281938046,1.4107448488148502
2024-07-07 19:41:23.2970,0.056,-0.31,-0.451,0.62,-0.36,-4.83,49.27806484999767,-122.91255887073531,353.15072281938046,1.4107448488148502
2024-07-07 19:41:23.3070,0.045,-0.322,-0.479,0.68,-0.28,-4.7,49.27806484999767,-122.91255887073531,353.15072281938046,1.4107448488148502
2024-07-07 19:41:23.3170,0.035,-0.333,-0.53,0.75,-0.15,-4.42,49.27806484999767,-122.91255887073531,353.15072281938046,1.4107448488148502
2024-07-07 19:41:23.3280,0.029,-0.341,-0.587,0.78,-0.03,-3.9,49.27806484999767,-122.91255887073531,353.15072281938046,1.4107448488148502
2024-07-07 19:41:23.3380,0.024,-0.348,-0.637,0.77,0.06,-3.37,49.27806484999767,-122.91255887073531,353.15072281938046,1.4107448488148502
2024-07-07 19:41:23.3490,0.009,-0.361,-0.672,0.75,0.16,-2.9,49.27806484999767,-122.91255887073531,353.15072281938046,1.4107448488148502
2024-07-07 19:41:23.3580,-0.016,-0.364,-0.707,0.83,0.31,-2.58,49.27806484999767,-122.91255887073531,353.15072281938046,1.4107448488148502
2024-07-07 19:41:23.3720,-0.044,-0.37,-0.743,0.99,0.35,-2.26,49.27806484999767,-122.91255887073531,353.15072281938046,1.4107448488148502
2024-07-07 19:41:23.3770,-0.093,-0.394,-0.772,1.18,0.44,-1.92,49.27806484999767,-122.91255887073531,353.15072281938046,1.4107448488148502
2024-07-07 19:41:23.3880,-0.159,-0.426,-0.787,1.6,0.71,-1.67,49.27806484999767,-122.91255887073531,353.15072281938046,1.4107448488148502
2024-07-07 19:41:23.3990,-0.228,-0.448,-0.795,2.17,1.02,-1.54,49.27806484999767,-122.91255887073531,353.15072281938046,1.4107448488148502
2024-07-07 19:41:23.4080,-0.292,-0.453,-0.792,2.77,1.22,-1.48,49.27806484999767,-122.91255887073531,353.15072281938046,1.4107448488148502
2024-07-07 19:41:23.4180,-0.328,-0.451,-0.807,3.32,1.26,-1.5,49.27806484999767,-122.91255887073531,353.15072281938046,1.4107448488148502
2024-07-07 19:41:23.4280,-0.334,-0.447,-0.859,3.61,1.25,-1.31,49.27806484999767,-122.91255887073531,353.15072281938046,1.4107448488148502
2024-07-07 19:41:23.4380,-0.317,-0.436,-0.919,3.63,1.21,-0.79,49.27806484999767,-122.91255887073531,353.15072281938046,1.4107448488148502
2024-07-07 19:41:23.4490,-0.281,-0.423,-0.986,3.45,1.12,-0.2,49.27806484999767,-122.91255887073531,353.15072281938046,1.4107448488148502
2024-07-07 19:41:23.4580,-0.234,-0.417,-1.055,3.11,1.01,0.46,49.27806484999767,-122.91255887073531,353.15072281938046,1.4107448488148502
2024-07-07 19:41:23.4680,-0.184,-0.423,-1.135,2.69,0.98,1.13,49.27806484999767,-122.91255887073531,353.15072281938046,1.4107448488148502
2024-07-07 19:41:23.4780,-0.139,-0.443,-1.225,2.24,1.08,1.94,49.27806484999767,-122.91255887073531,353.15072281938046,1.4107448488148502
2024-07-07 19:41:23.4890,-0.097,-0.465,-1.283,1.85,1.3,2.8,49.27806484999767,-122.91255887073531,353.15072281938046,1.4107448488148502
2024-07-07 19:41:23.4990,-0.056,-0.471,-1.324,1.48,1.52,3.33,49.27806484999767,-122.91255887073531,353.15072281938046,1.4107448488148502
2024-07-07 19:41:23.5100,-0.021,-0.465,-1.366,1.11,1.55,3.72,49.27806484999767,-122.91255887073531,353.15072281938046,1.4107448488148502
2024-07-07 19:41:23.5190,0.006,-0.47,-1.412,0.81,1.51,4.16,49.27806484999767,-122.91255887073531,353.15072281938046,1.4107448488148502
2024-07-07 19:41:23.5290,0.032,-0.475,-1.437,0.57,1.59,4.58,49.27806484999767,-122.91255887073531,353.15072281938046,1.4107448488148502
2024-07-07 19:41:23.5390,0.059,-0.448,-1.472,0.32,1.65,4.81,49.27806484999767,-122.91255887073531,353.15072281938046,1.4107448488148502
2024-07-07 19:41:23.5490,0.081,-0.362,-1.535,0.06,1.38,5.16,49.27806484999767,-122.91255887073531,353.15072281938046,1.4107448488148502
2024-07-07 19:41:23.5590,0.098,-0.225,-1.598,-0.16,0.53,5.78,49.27806484999767,-122.91255887073531,353.15072281938046,1.4107448488148502
2024-07-07 19:41:23.5690,0.089,-0.103,-1.635,-0.32,-0.75,6.34,49.27806484999767,-122.91255887073531,353.15072281938046,1.4107448488148502
2024-07-07 19:41:23.5790,0.082,-0.039,-1.633,-0.21,-1.82,6.66,49.27806484999767,-122.91255887073531,353.15072281938046,1.4107448488148502
2024-07-07 19:41:23.5890,0.114,-0.059,-1.572,-0.2,-2.27,6.53,49.27806484999767,-122.91255887073531,353.15072281938046,1.4107448488148502
2024-07-07 19:41:23.5990,0.145,-0.054,-1.511,-0.56,-2.04,5.92,49.27806484999767,-122.91255887073531,353.15072281938046,1.4107448488148502
2024-07-07 19:41:23.6090,0.144,-0.046,-1.417,-0.84,-2.14,5.29,49.27806484999767,-122.91255887073531,353.15072281938046,1.4107448488148502
2024-07-07 19:41:23.6190,0.128,-0.034,-1.304,-0.81,-2.25,4.35,49.27806484999767,-122.91255887073531,353.15072281938046,1.4107448488148502
2024-07-07 19:41:23.6290,0.101,-0.028,-1.19,-0.65,-2.45,3.26,49.27806484999767,-122.91255887073531,353.15072281938046,1.4107448488148502
2024-07-07 19:41:23.6390,0.075,-0.04,-1.079,-0.37,-2.58,2.17,49.27806484999767,-122.91255887073531,353.15072281938046,1.4107448488148502
2024-07-07 19:41:23.6500,0.057,-0.067,-0.988,-0.12,-2.54,1.12,49.27806484999767,-122.91255887073531,353.15072281938046,1.4107448488148502
2024-07-07 19:41:23.6600,0.048,-0.099,-0.908,0.06,-2.38,0.29,49.27806484999767,-122.91255887073531,353.15072281938046,1.4107448488148502
2024-07-07 19:41:23.6700,0.033,-0.135,-0.842,0.19,-2.16,-0.46,49.27806484999767,-122.91255887073531,353.15072281938046,1.4107448488148502
2024-07-07 19:41:23.6800,0.034,-0.159,-0.795,0.39,-1.89,-1.03,49.27806484999767,-122.91255887073531,353.15072281938046,1.4107448488148502
2024-07-07 19:41:23.6900,0.045,-0.167,-0.774,0.39,-1.77,-1.45,49.27806484999767,-122.91255887073531,353.15072281938046,1.4107448488148502
2024-07-07 19:41:23.7000,0.052,-0.185,-0.765,0.33,-1.74,-1.59,49.27806484999767,-122.91255887073531,353.15072281938046,1.4107448488148502
2024-07-07 19:41:23.7100,0.062,-0.182,-0.748,0.31,-1.62,-1.66,49.27806484999767,-122.91255887073531,353.15072281938046,1.4107448488148502
2024-07-07 19:41:23.7200,0.072,-0.19,-0.72,0.24,-1.71,-1.82,49.27806484999767,-122.91255887073531,353.15072281938046,1.4107448488148502
2024-07-07 19:41:23.7300,0.08,-0.188,-0.685,0.16,-1.65,-2.11,49.27806484999767,-122.91255887073531,353.15072281938046,1.4107448488148502
2024-07-07 19:41:23.7400,0.079,-0.18,-0.645,0.1,-1.69,-2.44,49.27806484999767,-122.91255887073531,353.15072281938046,1.4107448488148502
2024-07-07 19:41:23.7500,0.08,-0.178,-0.608,0.11,-1.78,-2.83,49.27806484999767,-122.91255887073531,353.15072281938046,1.4107448488148502
2024-07-07 19:41:23.7600,0.081,-0.186,-0.576,0.11,-1.78,-3.19,49.27806484999767,-122.91255887073531,353.15072281938046,1.4107448488148502
2024-07-07 19:41:23.7710,0.087,-0.198,-0.546,0.1,-1.68,-3.51,49.27806484999767,-122.91255887073531,353.15072281938046,1.4107448488148502
2024-07-07 19:41:23.7800,0.094,-0.207,-0.525,0.04,-1.55,-3.81,49.27806484999767,-122.91255887073531,353.15072281938046,1.4107448488148502
2024-07-07 19:41:23.7900,0.099,-0.212,-0.521,-0.03,-1.44,-4.0,49.27806484999767,-122.91255887073531,353.15072281938046,1.4107448488148502
2024-07-07 19:41:23.8010,0.102,-0.214,-0.528,-0.08,-1.38,-4.03,49.27806484999767,-122.91255887073531,353.15072281938046,1.4107448488148502
2024-07-07 19:41:23.8110,0.101,-0.218,-0.547,-0.1,-1.34,-3.95,49.27806484999767,-122.91255887073531,353.15072281938046,1.4107448488148502
2024-07-07 19:41:23.8210,0.1,-0.231,-0.569,-0.1,-1.28,-3.76,49.27806484999767,-122.91255887073531,353.15072281938046,1.4107448488148502
2024-07-07 19:41:23.8310,0.094,-0.246,-0.576,-0.1,-1.13,-3.56,49.27806484999767,-122.91255887073531,353.15072281938046,1.4107448488148502
2024-07-07 19:41:23.8410,0.081,-0.262,-0.565,-0.04,-0.97,-3.52,49.27806484999767,-122.91255887073531,353.15072281938046,1.4107448488148502
2024-07-07 19:41:23.8510,0.067,-0.275,-0.561,0.08,-0.8,-3.65,49.27806484999767,-122.91255887073531,353.15072281938046,1.4107448488148502
2024-07-07 19:41:23.8610,0.065,-0.295,-0.568,0.2,-0.67,-3.66,49.27806484999767,-122.91255887073531,353.15072281938046,1.4107448488148502
2024-07-07 19:41:23.8710,0.07,-0.331,-0.589,0.19,-0.45,-3.6,49.27806484999767,-122.91255887073531,353.15072281938046,1.4107448488148502
2024-07-07 19:41:23.8810,0.07,-0.374,-0.621,0.14,-0.07,-3.37,49.27806484999767,-122.91255887073531,353.15072281938046,1.4107448488148502
2024-07-07 19:41:23.8910,0.056,-0.412,-0.649,0.15,0.36,-3.06,49.27806484999767,-122.91255887073531,353.15072281938046,1.4107448488148502
2024-07-07 19:41:23.9010,0.034,-0.439,-0.683,0.3,0.73,-2.79,49.27806484999767,-122.91255887073531,353.15072281938046,1.4107448488148502
2024-07-07 19:41:23.9110,0.026,-0.461,-0.724,0.5,1.0,-2.45,49.27806484999767,-122.91255887073531,353.15072281938046,1.4107448488148502
2024-07-07 19:41:23.9220,0.026,-0.479,-0.763,0.55,1.22,-2.05,49.27806484999767,-122.91255887073531,353.15072281938046,1.4107448488148502
2024-07-07 19:41:23.9320,0.028,-0.49,-0.798,0.54,1.39,-1.67,49.27806484999767,-122.91255887073531,353.15072281938046,1.4107448488148502
2024-07-07 19:41:23.9420,0.029,-0.493,-0.828,0.52,1.5,-1.33,49.27806484999767,-122.91255887073531,353.15072281938046,1.4107448488148502
2024-07-07 19:41:23.9520,0.03,-0.505,-0.839,0.51,1.55,-1.06,49.27806484999767,-122.91255887073531,353.15072281938046,1.4107448488148502
2024-07-07 19:41:23.9620,0.03,-0.521,-0.859,0.51,1.69,-0.97,49.27806484999767,-122.91255887073531,353.15072281938046,1.4107448488148502
2024-07-07 19:41:23.9720,0.039,-0.532,-0.897,0.53,1.85,-0.75,49.27806484999767,-122.91255887073531,353.15072281938046,1.4107448488148502
2024-07-07 19:41:23.9820,0.058,-0.55,-0.961,0.47,1.98,-0.35,49.27806484999767,-122.91255887073531,353.15072281938046,1.4107448488148502
2024-07-07 19:41:23.9920,0.076,-0.563,-1.054,0.34,2.17,0.31,49.27806484999767,-122.91255887073531,353.15072281938046,1.4107448488148502
2024-07-07 19:41:24.0020,0.101,-0.558,-1.153,0.23,2.29,1.26,49.27806484999767,-122.91255887073531,353.15072281938046,1.4107448488148502
2024-07-07 19:41:24.0120,0.13,-0.554,-1.224,0.04,2.24,2.2,49.27806484999767,-122.91255887073531,353.15072281938046,1.4107448488148502
2024-07-07 19:41:24.0230,0.168,-0.548,-1.267,-0.18,2.21,2.88,49.27806484999767,-122.91255887073531,353.15072281938046,1.4107448488148502
2024-07-07 19:41:24.0320,0.217,-0.533,-1.297,-0.52,2.14,3.28,49.27806484999767,-122.91255887073531,353.15072281938046,1.4107448488148502
2024-07-07 19:41:24.0430,0.27,-0.507,-1.323,-0.96,1.98,3.57,49.27806484999767,-122.91255887073531,353.15072281938046,1.4107448488148502
2024-07-07 19:41:24.0530,0.314,-0.489,-1.345,-1.43,1.72,3.82,49.27806484999767,-122.91255887073531,353.15072281938046,1.4107448488148502
2024-07-07 19:41:24.0630,0.336,-0.498,-1.367,-1.8,1.6,4.03,49.27806484999767,-122.91255887073531,353.15072281938046,1.4107448488148502
2024-07-07 19:41:24.0730,0.348,-0.502,-1.396,-1.96,1.75,4.24,49.27806484999767,-122.91255887073531,353.15072281938046,1.4107448488148502
2024-07-07 19:41:24.0830,0.363,-0.482,-1.439,-2.06,1.83,4.53,49.27806484999767,-122.91255887073531,353.15072281938046,1.4107448488148502
2024-07-07 19:41:24.0930,0.373,-0.45,-1.491,-2.18,1.69,4.93,49.27806484999767,-122.91255887073531,353.15072281938046,1.4107448488148502
2024-07-07 19:41:24.1030,0.377,-0.398,-1.55,-2.25,1.47,5.43,49.27806484999767,-122.91255887073531,353.15072281938046,1.4107448488148502
2024-07-07 19:41:24.1130,0.387,-0.323,-1.616,-2.31,1.04,5.98,49.27806484999767,-122.91255887073531,353.15072281938046,1.4107448488148502
2024-07-07 19:41:24.1230,0.389,-0.253,-1.653,-2.44,0.41,6.58,49.27806484999767,-122.91255887073531,353.15072281938046,1.4107448488148502
2024-07-07 19:41:24.1330,0.39,-0.197,-1.622,-2.51,-0.16,6.83,49.27806484999767,-122.91255887073531,353.15072281938046,1.4107448488148502
2024-07-07 19:41:24.1430,0.379,-0.158,-1.526,-2.6,-0.62,6.41,49.27806484999767,-122.91255887073531,353.15072281938046,1.4107448488148502
2024-07-07 19:41:24.1540,0.35,-0.127,-1.4,-2.55,-0.93,5.38,49.278052222324234,-122.91256725619733,353.3304833797738,1.479165026281952
2024-07-07 19:41:24.1630,0.318,-0.094,-1.273,-2.33,-1.2,4.12,49.278052222324234,-122.91256725619733,353.3304833797738,1.479165026281952
2024-07-07 19:41:24.1740,0.291,-0.068,-1.156,-2.09,-1.54,2.88,49.278052222324234,-122.91256725619733,353.3304833797738,1.479165026281952
2024-07-07 19:41:24.1830,0.278,-0.054,-1.045,-1.89,-1.84,1.75,49.278052222324234,-122.91256725619733,353.3304833797738,1.479165026281952
2024-07-07 19:41:24.1940,0.273,-0.053,-0.953,-1.81,-2.03,0.69,49.278052222324234,-122.91256725619733,353.3304833797738,1.479165026281952
2024-07-07 19:41:24.2040,0.266,-0.059,-0.87,-1.8,-2.12,-0.16,49.278052222324234,-122.91256725619733,353.3304833797738,1.479165026281952
2024-07-07 19:41:24.2140,0.259,-0.071,-0.801,-1.74,-2.15,-0.95,49.278052222324234,-122.91256725619733,353.3304833797738,1.479165026281952
2024-07-07 19:41:24.2240,0.26,-0.089,-0.759,-1.68,-2.13,-1.56,49.278052222324234,-122.91256725619733,353.3304833797738,1.479165026281952
2024-07-07 19:41:24.2340,0.263,-0.11,-0.732,-1.69,-2.05,-1.92,49.278052222324234,-122.91256725619733,353.3304833797738,1.479165026281952
2024-07-07 19:41:24.2440,0.268,-0.13,-0.709,-1.73,-1.93,-2.15,49.278052222324234,-122.91256725619733,353.3304833797738,1.479165026281952
2024-07-07 19:41:24.2540,0.264,-0.15,-0.697,-1.77,-1.8,-2.34,49.278052222324234,-122.91256725619733,353.3304833797738,1.479165026281952
2024-07-07 19:41:24.2640,0.256,-0.16,-0.684,-1.73,-1.64,-2.44,49.278052222324234,-122.91256725619733,353.3304833797738,1.479165026281952
2024-07-07 19:41:24.2740,0.236,-0.16,-0.674,-1.65,-1.59,-2.57,49.278052222324234,-122.91256725619733,353.3304833797738,1.479165026281952
2024-07-07 19:41:24.2840,0.21,-0.152,-0.67,-1.46,-1.61,-2.65,49.278052222324234,-122.91256725619733,353.3304833797738,1.479165026281952
2024-07-07 19:41:24.2940,0.188,-0.145,-0.667,-1.25,-1.69,-2.69,49.278052222324234,-122.91256725619733,353.3304833797738,1.479165026281952
2024-07-07 19:41:24.3040,0.162,-0.142,-0.672,-1.05,-1.74,-2.71,49.278052222324234,-122.91256725619733,353.3304833797738,1.479165026281952
2024-07-07 19:41:24.3150,0.131,-0.14,-0.666,-0.83,-1.76,-2.68,49.278052222324234,-122.91256725619733,353.3304833797738,1.479165026281952
2024-07-07 19:41:24.3250,0.106,-0.137,-0.647,-0.58,-1.77,-2.76,49.278052222324234,-122.91256725619733,353.3304833797738,1.479165026281952
2024-07-07 19:41:24.3350,0.086,-0.142,-0.621,-0.4,-1.79,-2.96,49.278052222324234,-122.91256725619733,353.3304833797738,1.479165026281952
2024-07-07 19:41:24.3450,0.063,-0.153,-0.588,-0.25,-1.72,-3.23,49.278052222324234,-122.91256725619733,353.3304833797738,1.479165026281952
2024-07-07 19:41:24.3550,0.04,-0.167,-0.565,-0.08,-1.6,-3.56,49.278052222324234,-122.91256725619733,353.3304833797738,1.479165026281952
2024-07-07 19:41:24.3650,0.022,-0.182,-0.553,0.09,-1.45,-3.77,49.278052222324234,-122.91256725619733,353.3304833797738,1.479165026281952
2024-07-07 19:41:24.3750,0.001,-0.204,-0.531,0.22,-1.28,-3.91,49.278052222324234,-122.91256725619733,353.3304833797738,1.479165026281952
2024-07-07 19:41:24.3850,-0.023,-0.226,-0.512,0.39,-1.04,-4.14,49.278052222324234,-122.91256725619733,353.3304833797738,1.479165026281952
2024-07-07 19:41:24.3950,-0.043,-0.244,-0.512,0.59,-0.82,-4.3,49.278052222324234,-122.91256725619733,353.3304833797738,1.479165026281952
2024-07-07 19:41:24.4050,-0.056,-0.263,-0.519,0.74,-0.64,-4.3,49.278052222324234,-122.91256725619733,353.3304833797738,1.479165026281952
2024-07-07 19:41:24.4160,-0.071,-0.285,-0.531,0.84,-0.43,-4.22,49.278052222324234,-122.91256725619733,353.3304833797738,1.479165026281952
2024-07-07 19:41:24.4260,-0.082,-0.305,-0.554,0.96,-0.2,-4.11,49.278052222324234,-122.91256725619733,353.3304833797738,1.479165026281952
2024-07-07 19:41:24.4360,-0.093,-0.319,-0.581,1.04,-0.01,-3.87,49.278052222324234,-122.91256725619733,353.3304833797738,1.479165026281952
2024-07-07 19:41:24.4460,-0.104,-0.336,-0.625,1.14,0.14,-3.6,49.278052222324234,-122.91256725619733,353.3304833797738,1.479165026281952
2024-07-07 19:41:24.4560,-0.11,-0.354,-0.669,1.22,0.31,-3.16,49.278052222324234,-122.91256725619733,353.3304833797738,1.479165026281952
2024-07-07 19:41:24.4660,-0.121,-0.378,-0.695,1.24,0.51,-2.75,49.278052222324234,-122.91256725619733,353.3304833797738,1.479165026281952
2024-07-07 19:41:24.4760,-0.14,-0.405,-0.721,1.33,0.78,-2.51,49.278052222324234,-122.91256725619733,353.3304833797738,1.479165026281952
2024-07-07 19:41:24.4860,-0.155,-0.428,-0.752,1.48,1.06,-2.25,49.278052222324234,-122.91256725619733,353.3304833797738,1.479165026281952
2024-07-07 19:41:24.4960,-0.172,-0.45,-0.777,1.57,1.32,-1.97,49.278052222324234,-122.91256725619733,353.3304833797738,1.479165026281952
2024-07-07 19:41:24.5060,-0.195,-0.481,-0.799,1.69,1.58,-1.75,49.278052222324234,-122.91256725619733,353.3304833797738,1.479165026281952
2024-07-07 19:41:24.5160,-0.214,-0.512,-0.837,1.85,1.94,-1.52,49.278052222324234,-122.91256725619733,353.3304833797738,1.479165026281952
2024-07-07 19:41:24.5260,-0.226,-0.544,-0.865,1.96,2.3,-1.16,49.278052222324234,-122.91256725619733,353.3304833797738,1.479165026281952
2024-07-07 19:41:24.5360,-0.229,-0.564,-0.88,2.0,2.69,-0.94,49.278052222324234,-122.91256725619733,353.3304833797738,1.479165026281952
2024-07-07 19:41:24.5470,-0.226,-0.566,-0.926,1.95,2.95,-0.8,49.278052222324234,-122.91256725619733,353.3304833797738,1.479165026281952
2024-07-07 19:41:24.5560,-0.228,-0.545,-1.001,1.88,3.04,-0.33,49.278052222324234,-122.91256725619733,353.3304833797738,1.479165026281952
2024-07-07 19:41:24.5670,-0.227,-0.501,-1.092,1.86,2.91,0.41,49.278052222324234,-122.91256725619733,353.3304833797738,1.479165026281952
2024-07-07 19:41:24.5770,-0.228,-0.441,-1.184,1.83,2.55,1.3,49.278052222324234,-122.91256725619733,353.3304833797738,1.479165026281952
2024-07-07 19:41:24.5870,-0.234,-0.366,-1.263,1.84,2.01,2.17,49.278052222324234,-122.91256725619733,353.3304833797738,1.479165026281952
2024-07-07 19:41:24.5970,-0.223,-0.296,-1.315,1.9,1.31,2.9,49.278052222324234,-122.91256725619733,353.3304833797738,1.479165026281952
2024-07-07 19:41:24.6070,-0.186,-0.252,-1.355,1.78,0.67,3.39,49.278052222324234,-122.91256725619733,353.3304833797738,1.479165026281952
2024-07-07 19:41:24.6170,-0.134,-0.253,-1.365,1.42,0.29,3.76,49.278052222324234,-122.91256725619733,353.3304833797738,1.479165026281952
2024-07-07 19:41:24.6270,-0.089,-0.269,-1.352,0.94,0.33,3.82,49.278052222324234,-122.91256725619733,353.3304833797738,1.479165026281952
2024-07-07 19:41:24.6370,-0.052,-0.27,-1.34,0.57,0.46,3.68,49.278052222324234,-122.91256725619733,353.3304833797738,1.479165026281952
2024-07-07 19:41:24.6470,-0.024,-0.257,-1.336,0.28,0.44,3.58,49.278052222324234,-122.91256725619733,353.3304833797738,1.479165026281952
2024-07-07 19:41:24.6570,0.003,-0.23,-1.341,0.09,0.3,3.53,49.278052222324234,-122.91256725619733,353.3304833797738,1.479165026281952
2024-07-07 19:41:24.6670,0.028,-0.191,-1.401,-0.09,0.03,3.62,49.278052222324234,-122.91256725619733,353.3304833797738,1.479165026281952
2024-07-07 19:41:24.6770,0.052,-0.132,-1.499,-0.24,-0.34,4.28,49.278052222324234,-122.91256725619733,353.3304833797738,1.479165026281952
2024-07-07 19:41:24.6880,0.071,-0.078,-1.586,-0.37,-0.89,5.23,49.278052222324234,-122.91256725619733,353.3304833797738,1.479165026281952
2024-07-07 19:41:24.6980,0.093,-0.033,-1.647,-0.49,-1.37,6.07,49.278052222324234,-122.91256725619733,353.3304833797738,1.479165026281952
2024-07-07 19:41:24.7080,0.111,-0.001,-1.623,-0.67,-1.78,6.59,49.278052222324234,-122.91256725619733,353.3304833797738,1.479165026281952
2024-07-07 19:41:24.7180,0.111,0.008,-1.511,-0.8,-2.06,6.23,49.278052222324234,-122.91256725619733,353.3304833797738,1.479165026281952
2024-07-07 19:41:24.7280,0.09,-0.004,-1.368,-0.77,-2.13,5.06,49.278052222324234,-122.91256725619733,353.3304833797738,1.479165026281952
2024-07-07 19:41:24.7380,0.064,-0.006,-1.221,-0.54,-2.05,3.65,49.278052222324234,-122.91256725619733,353.3304833797738,1.479165026281952
2024-07-07 19:41:24.7480,0.038,-0.005,-1.093,-0.28,-2.09,2.24,49.278052222324234,-122.91256725619733,353.3304833797738,1.479165026281952
2024-07-07 19:41:24.7580,0.013,-0.013,-0.99,0.01,-2.15,1.02,49.278052222324234,-122.91256725619733,353.3304833797738,1.479165026281952
2024-07-07 19:41:24.7680,-0.008,-0.029,-0.929,0.3,-2.12,0.07,49.278052222324234,-122.91256725619733,353.3304833797738,1.479165026281952
2024-07-07 19:41:24.7780,-0.012,-0.039,-0.898,0.54,-2.03,-0.47,49.278052222324234,-122.91256725619733,353.3304833797738,1.479165026281952
2024-07-07 19:41:24.7880,-0.014,-0.056,-0.892,0.65,-2.0,-0.71,49.278052222324234,-122.91256725619733,353.3304833797738,1.479165026281952
2024-07-07 19:41:24.7980,-0.007,-0.066,-0.876,0.74,-1.9,-0.74,49.278052222324234,-122.91256725619733,353.3304833797738,1.479165026281952
2024-07-07 19:41:24.8080,0.003,-0.077,-0.858,0.73,-1.87,-0.9,49.278052222324234,-122.91256725619733,353.3304833797738,1.479165026281952
2024-07-07 19:41:24.8190,0.018,-0.092,-0.845,0.7,-1.82,-1.04,49.278052222324234,-122.91256725619733,353.3304833797738,1.479165026281952
2024-07-07 19:41:24.8290,0.029,-0.106,-0.831,0.62,-1.72,-1.15,49.278052222324234,-122.91256725619733,353.3304833797738,1.479165026281952
2024-07-07 19:41:24.8390,0.035,-0.111,-0.805,0.57,-1.63,-1.27,49.278052222324234,-122.91256725619733,353.3304833797738,1.479165026281952
2024-07-07 19:41:24.8490,0.04,-0.115,-0.781,0.56,-1.64,-1.52,49.278052222324234,-122.91256725619733,353.3304833797738,1.479165026281952
2024-07-07 19:41:24.8590,0.041,-0.125,-0.745,0.54,-1.63,-1.74,49.278052222324234,-122.91256725619733,353.3304833797738,1.479165026281952
2024-07-07 19:41:24.8690,0.038,-0.133,-0.7,0.56,-1.55,-2.11,49.278052222324234,-122.91256725619733,353.3304833797738,1.479165026281952
2024-07-07 19:41:24.8790,0.038,-0.142,-0.664,0.62,-1.49,-2.54,49.278052222324234,-122.91256725619733,353.3304833797738,1.479165026281952
2024-07-07 19:41:24.8890,0.043,-0.155,-0.643,0.65,-1.4,-2.88,49.278052222324234,-122.91256725619733,353.3304833797738,1.479165026281952
2024-07-07 19:41:24.9000,0.052,-0.165,-0.634,0.61,-1.27,-3.06,49.278052222324234,-122.91256725619733,353.3304833797738,1.479165026281952
2024-07-07 19:41:24.9100,0.063,-0.176,-0.629,0.53,-1.18,-3.13,49.278052222324234,-122.91256725619733,353.3304833797738,1.479165026281952
2024-07-07 19:41:24.9200,0.072,-0.191,-0.626,0.45,-1.06,-3.17,49.278052222324234,-122.91256725619733,353.3304833797738,1.479165026281952
2024-07-07 19:41:24.9300,0.083,-0.21,-0.616,0.38,-0.91,-3.21,49.278052222324234,-122.91256725619733,353.3304833797738,1.479165026281952
2024-07-07 19:41:24.9400,0.094,-0.228,-0.607,0.28,-0.73,-3.31,49.278052222324234,-122.91256725619733,353.3304833797738,1.479165026281952
2024-07-07 19:41:24.9500,0.103,-0.245,-0.599,0.2,-0.57,-3.39,49.278052222324234,-122.91256725619733,353.3304833797738,1.479165026281952
2024-07-07 19:41:24.9600,0.107,-0.258,-0.603,0.12,-0.42,-3.45,49.278052222324234,-122.91256725619733,353.3304833797738,1.479165026281952
2024-07-07 19:41:24.9700,0.102,-0.268,-0.63,0.1,-0.32,-3.38,49.278052222324234,-122.91256725619733,353.3304833797738,1.479165026281952
2024-07-07 19:41:24.9800,0.092,-0.274,-0.675,0.16,-0.24,-3.08,49.278052222324234,-122.91256725619733,353.3304833797738,1.479165026281952
2024-07-07 19:41:24.9900,0.09,-0.283,-0.716,0.24,-0.19,-2.64,49.278052222324234,-122.91256725619733,353.3304833797738,1.479165026281952
2024-07-07 19:41:25.0000,0.091,-0.301,-0.746,0.23,-0.09,-2.25,49.278052222324234,-122.91256725619733,353.3304833797738,1.479165026281952
2024-07-07 19:41:25.0100,0.09,-0.323,-0.775,0.2,0.1,-1.97,49.278052222324234,-122.91256725619733,353.3304833797738,1.479165026281952
2024-07-07 19:41:25.0200,0.081,-0.337,-0.802,0.17,0.34,-1.69,49.278052222324234,-122.91256725619733,353.3304833797738,1.479165026281952
2024-07-07 19:41:25.0300,0.066,-0.342,-0.819,0.21,0.5,-1.46,49.278052222324234,-122.91256725619733,353.3304833797738,1.479165026281952
2024-07-07 19:41:25.0400,0.046,-0.343,-0.83,0.31,0.57,-1.32,49.278052222324234,-122.91256725619733,353.3304833797738,1.479165026281952
2024-07-07 19:41:25.0510,0.024,-0.346,-0.835,0.45,0.62,-1.23,49.278052222324234,-122.91256725619733,353.3304833797738,1.479165026281952
2024-07-07 19:41:25.0610,0.003,-0.361,-0.834,0.62,0.72,-1.21,49.278052222324234,-122.91256725619733,353.3304833797738,1.479165026281952
2024-07-07 19:41:25.0710,-0.009,-0.377,-0.842,0.77,0.93,-1.24,49.278052222324234,-122.91256725619733,353.3304833797738,1.479165026281952
2024-07-07 19:41:25.0810,-0.008,-0.387,-0.87,0.83,1.12,-1.15,49.278052222324234,-122.91256725619733,353.3304833797738,1.479165026281952
2024-07-07 19:41:25.0910,0.001,-0.392,-0.9,0.77,1.27,-0.88,49.278052222324234,-122.91256725619733,353.3304833797738,1.479165026281952
2024-07-07 19:41:25.1010,0.016,-0.4,-0.933,0.65,1.34,-0.6,49.278052222324234,-122.91256725619733,353.3304833797738,1.479165026281952
2024-07-07 19:41:25.1110,0.043,-0.425,-0.972,0.48,1.47,-0.28,49.278052222324234,-122.91256725619733,353.3304833797738,1.479165026281952
2024-07-07 19:41:25.1210,0.071,-0.456,-1.025,0.21,1.74,0.12,49.278052222324234,-122.91256725619733,353.3304833797738,1.479165026281952
2024-07-07 19:41:25.1310,0.087,-0.474,-1.076,-0.07,2.03,0.64,49.278052222324234,-122.91256725619733,353.3304833797738,1.479165026281952
2024-07-07 19:41:25.1420,0.086,-0.474,-1.112,-0.21,2.18,1.14,49.278052222324234,-122.91256725619733,353.3304833797738,1.479165026281952
2024-07-07 19:41:25.1520,0.082,-0.464,-1.145,-0.17,2.13,1.48,49.278052222324234,-122.91256725619733,353.3304833797738,1.479165026281952
2024-07-07 19:41:25.1610,0.1,-0.451,-1.157,-0.13,2.0,1.81,49.278052222324234,-122.91256725619733,353.3304833797738,1.479165026281952
2024-07-07 19:41:25.1710,0.145,-0.448,-1.154,-0.33,1.84,1.9,49.278048394448085,-122.91257962642405,353.8281927453354,1.1908874738121216
2024-07-07 19:41:25.1810,0.204,-0.452,-1.137,-0.75,1.81,1.87,49.278048394448085,-122.91257962642405,353.8281927453354,1.1908874738121216
2024-07-07 19:41:25.1920,0.26,-0.472,-1.153,-1.27,1.85,1.71,49.278048394448085,-122.91257962642405,353.8281927453354,1.1908874738121216
2024-07-07 19:41:25.2020,0.311,-0.51,-1.231,-1.72,2.07,1.95,49.278048394448085,-122.91257962642405,353.8281927453354,1.1908874738121216
2024-07-07 19:41:25.2120,0.358,-0.531,-1.345,-2.11,2.47,2.78,49.278048394448085,-122.91257962642405,353.8281927453354,1.1908874738121216
2024-07-07 19:41:25.2220,0.41,-0.497,-1.486,-2.49,2.67,3.93,49.278048394448085,-122.91257962642405,353.8281927453354,1.1908874738121216
2024-07-07 19:41:25.2320,0.446,-0.414,-1.615,-2.94,2.35,5.32,49.278048394448085,-122.91257962642405,353.8281927453354,1.1908874738121216
2024-07-07 19:41:25.2420,0.443,-0.284,-1.694,-3.22,1.58,6.52,49.278048394448085,-122.91257962642405,353.8281927453354,1.1908874738121216
2024-07-07 19:41:25.2520,0.418,-0.154,-1.715,-3.17,0.37,7.2,49.278048394448085,-122.91257962642405,353.8281927453354,1.1908874738121216
2024-07-07 19:41:25.2620,0.401,-0.063,-1.642,-2.97,-0.75,7.27,49.278048394448085,-122.91257962642405,353.8281927453354,1.1908874738121216
2024-07-07 19:41:25.2720,0.392,-0.012,-1.506,-2.89,-1.49,6.42,49.278048394448085,-122.91257962642405,353.8281927453354,1.1908874738121216
2024-07-07 19:41:25.2820,0.384,0.003,-1.342,-2.87,-1.89,5.02,49.278048394448085,-122.91257962642405,353.8281927453354,1.1908874738121216
2024-07-07 19:41:25.2930,0.376,-0.021,-1.191,-2.85,-1.95,3.39,49.278048394448085,-122.91257962642405,353.8281927453354,1.1908874738121216
2024-07-07 19:41:25.3020,0.372,-0.048,-1.07,-2.81,-1.7,1.94,49.278048394448085,-122.91257962642405,353.8281927453354,1.1908874738121216
2024-07-07 19:41:25.3130,0.376,-0.051,-0.986,-2.81,-1.52,0.8,49.278048394448085,-122.91257962642405,353.8281927453354,1.1908874738121216
2024-07-07 19:41:25.3230,0.374,-0.044,-0.933,-2.85,-1.62,0.04,49.278048394448085,-122.91257962642405,353.8281927453354,1.1908874738121216
2024-07-07 19:41:25.3330,0.359,-0.047,-0.896,-2.81,-1.8,-0.42,49.278048394448085,-122.91257962642405,353.8281927453354,1.1908874738121216
2024-07-07 19:41:25.3430,0.332,-0.052,-0.864,-2.64,-1.89,-0.74,49.278048394448085,-122.91257962642405,353.8281927453354,1.1908874738121216
2024-07-07 19:41:25.3530,0.296,-0.066,-0.832,-2.37,-1.96,-1.02,49.278048394448085,-122.91257962642405,353.8281927453354,1.1908874738121216
2024-07-07 19:41:25.3630,0.263,-0.083,-0.808,-2.02,-1.93,-1.3,49.278048394448085,-122.91257962642405,353.8281927453354,1.1908874738121216
2024-07-07 19:41:25.3730,0.237,-0.093,-0.791,-1.71,-1.85,-1.51,49.278048394448085,-122.91257962642405,353.8281927453354,1.1908874738121216
2024-07-07 19:41:25.3830,0.214,-0.11,-0.774,-1.48,-1.81,-1.65,49.278048394448085,-122.91257962642405,353.8281927453354,1.1908874738121216
2024-07-07 19:41:25.3930,0.193,-0.128,-0.752,-1.27,-1.68,-1.82,49.278048394448085,-122.91257962642405,353.8281927453354,1.1908874738121216
2024-07-07 19:41:25.4040,0.173,-0.139,-0.726,-1.1,-1.51,-2.04,49.278048394448085,-122.91257962642405,353.8281927453354,1.1908874738121216
2024-07-07 19:41:25.4130,0.146,-0.141,-0.704,-0.93,-1.42,-2.29,49.278048394448085,-122.91257962642405,353.8281927453354,1.1908874738121216
2024-07-07 19:41:25.4240,0.119,-0.138,-0.694,-0.69,-1.39,-2.5,49.278048394448085,-122.91257962642405,353.8281927453354,1.1908874738121216
2024-07-07 19:41:25.4340,0.097,-0.131,-0.696,-0.48,-1.42,-2.59,49.278048394448085,-122.91257962642405,353.8281927453354,1.1908874738121216
2024-07-07 19:41:25.4440,0.074,-0.124,-0.688,-0.3,-1.47,-2.58,49.278048394448085,-122.91257962642405,353.8281927453354,1.1908874738121216
2024-07-07 19:41:25.4540,0.053,-0.118,-0.659,-0.13,-1.54,-2.68,49.278048394448085,-122.91257962642405,353.8281927453354,1.1908874738121216
2024-07-07 19:41:25.4640,0.028,-0.127,-0.621,0.05,-1.59,-2.99,49.278048394448085,-122.91257962642405,353.8281927453354,1.1908874738121216
2024-07-07 19:41:25.4740,0.006,-0.147,-0.585,0.25,-1.49,-3.36,49.278048394448085,-122.91257962642405,353.8281927453354,1.1908874738121216
2024-07-07 19:41:25.4840,-0.008,-0.162,-0.561,0.43,-1.32,-3.7,49.278048394448085,-122.91257962642405,353.8281927453354,1.1908874738121216
2024-07-07 19:41:25.4940,-0.017,-0.177,-0.542,0.54,-1.19,-3.92,49.278048394448085,-122.91257962642405,353.8281927453354,1.1908874738121216
2024-07-07 19:41:25.5040,-0.025,-0.198,-0.537,0.61,-1.06,-4.09,49.278048394448085,-122.91257962642405,353.8281927453354,1.1908874738121216
2024-07-07 19:41:25.5140,-0.03,-0.22,-0.538,0.69,-0.88,-4.12,49.278048394448085,-122.91257962642405,353.8281927453354,1.1908874738121216
2024-07-07 19:41:25.5240,-0.028,-0.243,-0.542,0.74,-0.7,-4.09,49.278048394448085,-122.91257962642405,353.8281927453354,1.1908874738121216
2024-07-07 19:41:25.5340,-0.02,-0.268,-0.56,0.71,-0.5,-4.03,49.278048394448085,-122.91257962642405,353.8281927453354,1.1908874738121216
2024-07-07 19:41:25.5440,-0.007,-0.29,-0.579,0.64,-0.28,-3.84,49.278048394448085,-122.91257962642405,353.8281927453354,1.1908874738121216
2024-07-07 19:41:25.5550,0.001,-0.309,-0.598,0.53,-0.1,-3.64,49.278048394448085,-122.91257962642405,353.8281927453354,1.1908874738121216
2024-07-07 19:41:25.5640,0.006,-0.326,-0.612,0.47,0.07,-3.45,49.278048394448085,-122.91257962642405,353.8281927453354,1.1908874738121216
2024-07-07 19:41:25.5740,0.012,-0.335,-0.637,0.44,0.22,-3.31,49.278048394448085,-122.91257962642405,353.8281927453354,1.1908874738121216
2024-07-07 19:41:25.5850,0.019,-0.342,-0.671,0.38,0.3,-3.04,49.278048394448085,-122.91257962642405,353.8281927453354,1.1908874738121216
2024-07-07 19:41:25.5940,0.024,-0.348,-0.704,0.32,0.37,-2.71,49.278048394448085,-122.91257962642405,353.8281927453354,1.1908874738121216
2024-07-07 19:41:25.6050,0.03,-0.355,-0.745,0.27,0.44,-2.39,49.278048394448085,-122.91257962642405,353.8281927453354,1.1908874738121216
2024-07-07 19:41:25.6150,0.036,-0.368,-0.789,0.21,0.54,-1.98,49.278048394448085,-122.91257962642405,353.8281927453354,1.1908874738121216
2024-07-07 19:41:25.6250,0.042,-0.388,-0.819,0.14,0.7,-1.57,49.278048394448085,-122.91257962642405,353.8281927453354,1.1908874738121216
2024-07-07 19:41:25.6350,0.041,-0.411,-0.836,0.07,0.93,-1.3,49.278048394448085,-122.91257962642405,353.8281927453354,1.1908874738121216
2024-07-07 19:41:25.6450,0.032,-0.434,-0.855,0.08,1.18,-1.15,49.278048394448085,-122.91257962642405,353.8281927453354,1.1908874738121216
2024-07-07 19:41:25.6550,0.026,-0.449,-0.876,0.15,1.43,-0.97,49.278048394448085,-122.91257962642405,353.8281927453354,1.1908874738121216
2024-07-07 19:41:25.6650,0.022,-0.466,-0.9,0.19,1.6,-0.77,49.278048394448085,-122.91257962642405,353.8281927453354,1.1908874738121216
2024-07-07 19:41:25.6750,0.021,-0.484,-0.938,0.21,1.82,-0.54,49.278048394448085,-122.91257962642405,353.8281927453354,1.1908874738121216
2024-07-07 19:41:25.6850,0.027,-0.496,-0.992,0.2,2.02,-0.16,49.278048394448085,-122.91257962642405,353.8281927453354,1.1908874738121216
2024-07-07 19:41:25.6960,0.037,-0.502,-1.05,0.14,2.18,0.37,49.278048394448085,-122.91257962642405,353.8281927453354,1.1908874738121216
2024-07-07 19:41:25.7060,0.043,-0.502,-1.102,0.04,2.29,0.92,49.278048394448085,-122.91257962642405,353.8281927453354,1.1908874738121216
2024-07-07 19:41:25.7160,0.042,-0.495,-1.152,0.0,2.35,1.4,49.278048394448085,-122.91257962642405,353.8281927453354,1.1908874738121216
2024-07-07 19:41:25.7260,0.044,-0.466,-1.222,0.03,2.34,1.89,49.278048394448085,-122.91257962642405,353.8281927453354,1.1908874738121216
2024-07-07 19:41:25.7360,0.056,-0.423,-1.296,0.04,2.09,2.58,49.278048394448085,-122.91257962642405,353.8281927453354,1.1908874738121216
2024-07-07 19:41:25.7460,0.068,-0.38,-1.366,-0.04,1.75,3.29,49.278048394448085,-122.91257962642405,353.8281927453354,1.1908874738121216
2024-07-07 19:41:25.7560,0.07,-0.345,-1.418,-0.11,1.41,3.94,49.278048394448085,-122.91257962642405,353.8281927453354,1.1908874738121216
2024-07-07 19:41:25.7660,0.076,-0.304,-1.451,-0.06,1.15,4.42,49.278048394448085,-122.91257962642405,353.8281927453354,1.1908874738121216
2024-07-07 19:41:25.7760,0.097,-0.242,-1.48,-0.07,0.8,4.71,49.278048394448085,-122.91257962642405,353.8281927453354,1.1908874738121216
2024-07-07 19:41:25.7860,0.131,-0.169,-1.515,-0.21,0.22,4.99,49.278048394448085,-122.91257962642405,353.8281927453354,1.1908874738121216
2024-07-07 19:41:25.7960,0.168,-0.104,-1.574,-0.47,-0.41,5.34,49.278048394448085,-122.91257962642405,353.8281927453354,1.1908874738121216
2024-07-07 19:41:25.8060,0.211,-0.039,-1.633,-0.78,-0.98,5.93,49.278048394448085,-122.91257962642405,353.8281927453354,1.1908874738121216
2024-07-07 19:41:25.8170,0.241,0.011,-1.674,-1.14,-1.55,6.51,49.278048394448085,-122.91257962642405,353.8281927453354,1.1908874738121216
2024-07-07 19:41:25.8260,0.227,0.036,-1.668,-1.38,-1.98,6.84,49.278048394448085,-122.91257962642405,353.8281927453354,1.1908874738121216
2024-07-07 19:41:25.8370,0.175,0.04,-1.609,-1.18,-2.17,6.73,49.278048394448085,-122.91257962642405,353.8281927453354,1.1908874738121216
2024-07-07 19:41:25.8470,0.13,0.045,-1.492,-0.68,-2.21,6.07,49.278048394448085,-122.91257962642405,353.8281927453354,1.1908874738121216
2024-07-07 19:41:25.8570,0.099,0.033,-1.343,-0.3,-2.29,4.87,49.278048394448085,-122.91257962642405,353.8281927453354,1.1908874738121216
2024-07-07 19:41:25.8670,0.064,0.002,-1.197,-0.01,-2.2,3.4,49.278048394448085,-122.91257962642405,353.8281927453354,1.1908874738121216
2024-07-07 19:41:25.8770,0.036,-0.014,-1.076,0.31,-1.97,2.0,49.278048394448085,-122.91257962642405,353.8281927453354,1.1908874738121216
2024-07-07 19:41:25.8870,0.001,-0.014,-0.999,0.6,-1.91,0.88,49.278048394448085,-122.91257962642405,353.8281927453354,1.1908874738121216
2024-07-07 19:41:25.8970,-0.027,-0.008,-0.962,0.97,-2.0,0.21,49.278048394448085,-122.91257962642405,353.8281927453354,1.1908874738121216
2024-07-07 19:41:25.9070,-0.043,-0.001,-0.952,1.29,-2.15,-0.1,49.278048394448085,-122.91257962642405,353.8281927453354,1.1908874738121216
2024-07-07 19:41:25.9180,-0.038,-0.005,-0.946,1.48,-2.28,-0.16,49.278048394448085,-122.91257962642405,353.8281927453354,1.1908874738121216
2024-07-07 19:41:25.9270,-0.027,-0.02,-0.937,1.48,-2.3,-0.19,49.278048394448085,-122.91257962642405,353.8281927453354,1.1908874738121216
2024-07-07 19:41:25.9370,-0.008,-0.039,-0.921,1.41,-2.2,-0.27,49.278048394448085,-122.91257962642405,353.8281927453354,1.1908874738121216
2024-07-07 19:41:25.9470,0.01,-0.055,-0.901,1.27,-2.06,-0.41,49.278048394448085,-122.91257962642405,353.8281927453354,1.1908874738121216
2024-07-07 19:41:25.9570,0.023,-0.073,-0.879,1.13,-1.97,-0.59,49.278048394448085,-122.91257962642405,353.8281927453354,1.1908874738121216
2024-07-07 19:41:25.9680,0.029,-0.099,-0.857,1.05,-1.82,-0.79,49.278048394448085,-122.91257962642405,353.8281927453354,1.1908874738121216
2024-07-07 19:41:25.9780,0.037,-0.123,-0.828,1.0,-1.61,-1.0,49.278048394448085,-122.91257962642405,353.8281927453354,1.1908874738121216
2024-07-07 19:41:25.9880,0.039,-0.147,-0.793,0.94,-1.4,-1.29,49.278048394448085,-122.91257962642405,353.8281927453354,1.1908874738121216
2024-07-07 19:41:25.9980,0.035,-0.161,-0.766,0.93,-1.2,-1.62,49.278048394448085,-122.91257962642405,353.8281927453354,1.1908874738121216
2024-07-07 19:41:26.0080,0.03,-0.167,-0.742,0.96,-1.08,-1.87,49.278048394448085,-122.91257962642405,353.8281927453354,1.1908874738121216
2024-07-07 19:41:26.0180,0.024,-0.163,-0.716,1.01,-1.03,-2.11,49.278048394448085,-122.91257962642405,353.8281927453354,1.1908874738121216
2024-07-07 19:41:26.0280,0.022,-0.157,-0.697,1.05,-1.07,-2.37,49.278048394448085,-122.91257962642405,353.8281927453354,1.1908874738121216
2024-07-07 19:41:26.0380,0.014,-0.149,-0.685,1.06,-1.12,-2.54,49.278048394448085,-122.91257962642405,353.8281927453354,1.1908874738121216
2024-07-07 19:41:26.0480,0.008,-0.146,-0.669,1.13,-1.2,-2.66,49.278048394448085,-122.91257962642405,353.8281927453354,1.1908874738121216
2024-07-07 19:41:26.0580,0.01,-0.155,-0.647,1.17,-1.22,-2.83,49.278048394448085,-122.91257962642405,353.8281927453354,1.1908874738121216
2024-07-07 19:41:26.0680,0.015,-0.177,-0.631,1.14,-1.13,-3.03,49.278048394448085,-122.91257962642405,353.8281927453354,1.1908874738121216
2024-07-07 19:41:26.0780,0.02,-0.2,-0.623,1.09,-0.92,-3.18,49.278048394448085,-122.91257962642405,353.8281927453354,1.1908874738121216
2024-07-07 19:41:26.0880,0.03,-0.22,-0.619,1.04,-0.72,-3.25,49.278048394448085,-122.91257962642405,353.8281927453354,1.1908874738121216
2024-07-07 19:41:26.0990,0.036,-0.234,-0.625,0.96,-0.56,-3.27,49.278048394448085,-122.91257962642405,353.8281927453354,1.1908874738121216
2024-07-07 19:41:26.1090,0.039,-0.249,-0.64,0.91,-0.44,-3.19,49.278048394448085,-122.91257962642405,353.8281927453354,1.1908874738121216
2024-07-07 19:41:26.1190,0.042,-0.261,-0.653,0.89,-0.31,-3.04,49.278048394448085,-122.91257962642405,353.8281927453354,1.1908874738121216
2024-07-07 19:41:26.1290,0.05,-0.276,-0.669,0.87,-0.19,-2.9,49.278048394448085,-122.91257962642405,353.8281927453354,1.1908874738121216
2024-07-07 19:41:26.1390,0.055,-0.3,-0.695,0.8,-0.03,-2.74,49.278048394448085,-122.91257962642405,353.8281927453354,1.1908874738121216
2024-07-07 19:41:26.1500,0.06,-0.32,-0.725,0.76,0.22,-2.48,49.278048394448085,-122.91257962642405,353.8281927453354,1.1908874738121216
2024-07-07 19:41:26.1590,0.082,-0.337,-0.758,0.72,0.4,-2.18,49.278048394448085,-122.91257962642405,353.8281927453354,1.1908874738121216
2024-07-07 19:41:26.1690,0.11,-0.365,-0.788,0.49,0.59,-1.85,49.27804059604263,-122.91258870031653,353.80969266127795,1.118719422316781
2024-07-07 19:41:26.1790,0.131,-0.399,-0.81,0.22,0.88,-1.57,49.27804059604263,-122.91258870031653,353.80969266127795,1.118719422316781
2024-07-07 19:41:26.1890,0.143,-0.429,-0.825,0.03,1.21,-1.36,49.27804059604263,-122.91258870031653,353.80969266127795,1.118719422316781
2024-07-07 19:41:26.1990,0.147,-0.441,-0.835,-0.09,1.48,-1.22,49.27804059604263,-122.91258870031653,353.80969266127795,1.118719422316781
2024-07-07 19:41:26.2100,0.137,-0.439,-0.836,-0.14,1.56,-1.13,49.27804059604263,-122.91258870031653,353.80969266127795,1.118719422316781
2024-07-07 19:41:26.2200,0.117,-0.435,-0.834,-0.05,1.52,-1.13,49.27804059604263,-122.91258870031653,353.80969266127795,1.118719422316781
2024-07-07 19:41:26.2300,0.096,-0.423,-0.837,0.12,1.47,-1.15,49.27804059604263,-122.91258870031653,353.80969266127795,1.118719422316781
2024-07-07 19:41:26.2400,0.096,-0.412,-0.841,0.27,1.35,-1.12,49.27804059604263,-122.91258870031653,353.80969266127795,1.118719422316781
2024-07-07 19:41:26.2500,0.104,-0.413,-0.843,0.22,1.26,-1.09,49.27804059604263,-122.91258870031653,353.80969266127795,1.118719422316781
2024-07-07 19:41:26.2600,0.114,-0.432,-0.848,0.11,1.3,-1.08,49.27804059604263,-122.91258870031653,353.80969266127795,1.118719422316781
2024-07-07 19:41:26.2700,0.123,-0.451,-0.856,-0.02,1.51,-1.03,49.27804059604263,-122.91258870031653,353.80969266127795,1.118719422316781
2024-07-07 19:41:26.2800,0.129,-0.463,-0.867,-0.12,1.7,-0.95,49.27804059604263,-122.91258870031653,353.80969266127795,1.118719422316781
2024-07-07 19:41:26.2900,0.134,-0.472,-0.891,-0.19,1.82,-0.84,49.27804059604263,-122.91258870031653,353.80969266127795,1.118719422316781
2024-07-07 19:41:26.3000,0.144,-0.475,-0.935,-0.25,1.9,-0.58,49.27804059604263,-122.91258870031653,353.80969266127795,1.118719422316781
2024-07-07 19:41:26.3100,0.158,-0.476,-0.974,-0.36,1.91,-0.13,49.27804059604263,-122.91258870031653,353.80969266127795,1.118719422316781
2024-07-07 19:41:26.3200,0.171,-0.476,-1.0,-0.49,1.9,0.23,49.27804059604263,-122.91258870031653,353.80969266127795,1.118719422316781
2024-07-07 19:41:26.3300,0.176,-0.47,-1.034,-0.6,1.88,0.5,49.27804059604263,-122.91258870031653,353.80969266127795,1.118719422316781
2024-07-07 19:41:26.3400,0.178,-0.468,-1.055,-0.63,1.79,0.84,49.27804059604263,-122.91258870031653,353.80969266127795,1.118719422316781
2024-07-07 19:41:26.3500,0.194,-0.463,-1.067,-0.64,1.76,1.03,49.27804059604263,-122.91258870031653,353.80969266127795,1.118719422316781
2024-07-07 19:41:26.3610,0.23,-0.444,-1.097,-0.79,1.68,1.16,49.27804059604263,-122.91258870031653,353.80969266127795,1.118719422316781
2024-07-07 19:41:26.3710,0.283,-0.42,-1.158,-1.13,1.49,1.5,49.27804059604263,-122.91258870031653,353.80969266127795,1.118719422316781
2024-07-07 19:41:26.3810,0.34,-0.408,-1.244,-1.62,1.27,2.14,49.27804059604263,-122.91258870031653,353.80969266127795,1.118719422316781
2024-07-07 19:41:26.3910,0.393,-0.396,-1.314,-2.12,1.19,2.98,49.27804059604263,-122.91258870031653,353.80969266127795,1.118719422316781
2024-07-07 19:41:26.4010,0.444,-0.37,-1.374,-2.61,1.12,3.63,49.27804059604263,-122.91258870031653,353.80969266127795,1.118719422316781
2024-07-07 19:41:26.4120,0.476,-0.331,-1.438,-3.08,0.92,4.2,49.27804059604263,-122.91258870031653,353.80969266127795,1.118719422316781
2024-07-07 19:41:26.4210,0.486,-0.281,-1.494,-3.38,0.6,4.81,49.27804059604263,-122.91258870031653,353.80969266127795,1.118719422316781
2024-07-07 19:41:26.4310,0.476,-0.21,-1.527,-3.49,0.2,5.3,49.27804059604263,-122.91258870031653,353.80969266127795,1.118719422316781
2024-07-07 19:41:26.4410,0.442,-0.124,-1.522,-3.43,-0.41,5.55,49.27804059604263,-122.91258870031653,353.80969266127795,1.118719422316781
2024-07-07 19:41:26.4510,0.395,-0.044,-1.461,-3.15,-1.16,5.4,49.27804059604263,-122.91258870031653,353.80969266127795,1.118719422316781
2024-07-07 19:41:26.4610,0.353,0.016,-1.355,-2.79,-1.84,4.71,49.27804059604263,-122.91258870031653,353.80969266127795,1.118719422316781
2024-07-07 19:41:26.4720,0.328,0.048,-1.224,-2.46,-2.34,3.61,49.27804059604263,-122.91258870031653,353.80969266127795,1.118719422316781
2024-07-07 19:41:26.4820,0.321,0.052,-1.092,-2.3,-2.6,2.29,49.27804059604263,-122.91258870031653,353.80969266127795,1.118719422316781
2024-07-07 19:41:26.4910,0.327,0.047,-0.981,-2.28,-2.65,1.02,49.27804059604263,-122.91258870031653,353.80969266127795,1.118719422316781
2024-07-07 19:41:26.5020,0.339,0.031,-0.907,-2.36,-2.66,-0.01,49.27804059604263,-122.91258870031653,353.80969266127795,1.118719422316781
2024-07-07 19:41:26.5120,0.341,0.008,-0.859,-2.46,-2.58,-0.68,49.27804059604263,-122.91258870031653,353.80969266127795,1.118719422316781
2024-07-07 19:41:26.5220,0.334,-0.012,-0.838,-2.44,-2.47,-1.09,49.27804059604263,-122.91258870031653,353.80969266127795,1.118719422316781
2024-07-07 19:41:26.5320,0.326,-0.032,-0.845,-2.33,-2.38,-1.22,49.27804059604263,-122.91258870031653,353.80969266127795,1.118719422316781
2024-07-07 19:41:26.5420,0.322,-0.054,-0.86,-2.21,-2.26,-1.11,49.27804059604263,-122.91258870031653,353.80969266127795,1.118719422316781
2024-07-07 19:41:26.5520,0.321,-0.072,-0.874,-2.14,-2.12,-0.94,49.27804059604263,-122.91258870031653,353.80969266127795,1.118719422316781
2024-07-07 19:41:26.5620,0.313,-0.085,-0.884,-2.1,-1.98,-0.79,49.27804059604263,-122.91258870031653,353.80969266127795,1.118719422316781
2024-07-07 19:41:26.5720,0.302,-0.097,-0.875,-2.0,-1.86,-0.71,49.27804059604263,-122.91258870031653,353.80969266127795,1.118719422316781
2024-07-07 19:41:26.5820,0.29,-0.106,-0.851,-1.89,-1.74,-0.82,49.27804059604263,-122.91258870031653,353.80969266127795,1.118719422316781
2024-07-07 19:41:26.5920,0.273,-0.116,-0.83,-1.77,-1.62,-1.07,49.27804059604263,-122.91258870031653,353.80969266127795,1.118719422316781
2024-07-07 19:41:26.6020,0.247,-0.122,-0.811,-1.62,-1.48,-1.28,49.27804059604263,-122.91258870031653,353.80969266127795,1.118719422316781
2024-07-07 19:41:26.6130,0.216,-0.119,-0.796,-1.38,-1.4,-1.48,49.27804059604263,-122.91258870031653,353.80969266127795,1.118719422316781
2024-07-07 19:41:26.6230,0.183,-0.114,-0.78,-1.11,-1.41,-1.63,49.27804059604263,-122.91258870031653,353.80969266127795,1.118719422316781
2024-07-07 19:41:26.6330,0.149,-0.121,-0.755,-0.82,-1.42,-1.81,49.27804059604263,-122.91258870031653,353.80969266127795,1.118719422316781
2024-07-07 19:41:26.6430,0.116,-0.135,-0.714,-0.52,-1.32,-2.08,49.27804059604263,-122.91258870031653,353.80969266127795,1.118719422316781
2024-07-07 19:41:26.6530,0.086,-0.154,-0.672,-0.23,-1.17,-2.5,49.27804059604263,-122.91258870031653,353.80969266127795,1.118719422316781
2024-07-07 19:41:26.6630,0.054,-0.17,-0.641,0.03,-0.98,-2.9,49.27804059604263,-122.91258870031653,353.80969266127795,1.118719422316781
2024-07-07 19:41:26.6730,0.026,-0.182,-0.614,0.32,-0.82,-3.2,49.27804059604263,-122.91258870031653,353.80969266127795,1.118719422316781
2024-07-07 19:41:26.6830,0.003,-0.196,-0.596,0.57,-0.71,-3.46,49.27804059604263,-122.91258870031653,353.80969266127795,1.118719422316781
2024-07-07 19:41:26.6930,-0.013,-0.213,-0.593,0.79,-0.59,-3.61,49.27804059604263,-122.91258870031653,353.80969266127795,1.118719422316781
2024-07-07 19:41:26.7030,-0.022,-0.235,-0.595,0.94,-0.42,-3.63,49.27804059604263,-122.91258870031653,353.80969266127795,1.118719422316781
2024-07-07 19:41:26.7130,-0.025,-0.258,-0.613,1.02,-0.21,-3.59,49.27804059604263,-122.91258870031653,353.80969266127795,1.118719422316781
2024-07-07 19:41:26.7230,-0.03,-0.282,-0.633,1.06,-0.01,-3.4,49.27804059604263,-122.91258870031653,353.80969266127795,1.118719422316781
2024-07-07 19:41:26.7330,-0.032,-0.308,-0.657,1.1,0.22,-3.2,49.27804059604263,-122.91258870031653,353.80969266127795,1.118719422316781
2024-07-07 19:41:26.7430,-0.034,-0.324,-0.689,1.13,0.45,-2.95,49.27804059604263,-122.91258870031653,353.80969266127795,1.118719422316781
2024-07-07 19:41:26.7540,-0.036,-0.339,-0.724,1.15,0.6,-2.63,49.27804059604263,-122.91258870031653,353.80969266127795,1.118719422316781
2024-07-07 19:41:26.7640,-0.039,-0.356,-0.744,1.16,0.75,-2.3,49.27804059604263,-122.91258870031653,353.80969266127795,1.118719422316781
2024-07-07 19:41:26.7740,-0.045,-0.367,-0.758,1.17,0.92,-2.12,49.27804059604263,-122.91258870031653,353.80969266127795,1.118719422316781
2024-07-07 19:41:26.7840,-0.055,-0.365,-0.781,1.23,1.03,-1.98,49.27804059604263,-122.91258870031653,353.80969266127795,1.118719422316781
2024-07-07 19:41:26.7940,-0.065,-0.361,-0.802,1.31,1.02,-1.76,49.27804059604263,-122.91258870031653,353.80969266127795,1.118719422316781
2024-07-07 19:41:26.8040,-0.075,-0.366,-0.825,1.37,1.0,-1.56,49.27804059604263,-122.91258870031653,353.80969266127795,1.118719422316781
2024-07-07 19:41:26.8140,-0.079,-0.376,-0.85,1.43,1.09,-1.34,49.27804059604263,-122.91258870031653,353.80969266127795,1.118719422316781
2024-07-07 19:41:26.8240,-0.086,-0.386,-0.876,1.42,1.22,-1.1,49.27804059604263,-122.91258870031653,353.80969266127795,1.118719422316781
2024-07-07 19:41:26.8340,-0.096,-0.392,-0.899,1.46,1.35,-0.86,49.27804059604263,-122.91258870031653,353.80969266127795,1.118719422316781
2024-07-07 19:41:26.8440,-0.104,-0.392,-0.91,1.51,1.43,-0.66,49.27804059604263,-122.91258870031653,353.80969266127795,1.118719422316781
2024-07-07 19:41:26.8540,-0.116,-0.378,-0.923,1.54,1.45,-0.57,49.27804059604263,-122.91258870031653,353.80969266127795,1.118719422316781
2024-07-07 19:41:26.8640,-0.122,-0.354,-0.949,1.6,1.33,-0.44,49.27804059604263,-122.91258870031653,353.80969266127795,1.118719422316781
2024-07-07 19:41:26.8740,-0.121,-0.335,-0.981,1.61,1.12,-0.18,49.27804059604263,-122.91258870031653,353.80969266127795,1.118719422316781
2024-07-07 19:41:26.8840,-0.117,-0.323,-1.025,1.56,0.96,0.13,49.27804059604263,-122.91258870031653,353.80969266127795,1.118719422316781
2024-07-07 19:41:26.8950,-0.098,-0.311,-1.072,1.46,0.87,0.57,49.27804059604263,-122.91258870031653,353.80969266127795,1.118719422316781
2024-07-07 19:41:26.9050,-0.07,-0.301,-1.106,1.23,0.77,1.02,49.27804059604263,-122.91258870031653,353.80969266127795,1.118719422316781
2024-07-07 19:41:26.9150,-0.038,-0.298,-1.13,0.91,0.68,1.33,49.27804059604263,-122.91258870031653,353.80969266127795,1.118719422316781
2024-07-07 19:41:26.9250,-0.02,-0.309,-1.143,0.58,0.64,1.58,49.27804059604263,-122.91258870031653,353.80969266127795,1.118719422316781
2024-07-07 19:41:26.9350,-0.005,-0.33,-1.12,0.39,0.74,1.66,49.27804059604263,-122.91258870031653,353.80969266127795,1.118719422316781
2024-07-07 19:41:26.9450,0.018,-0.344,-1.101,0.23,0.92,1.41,49.27804059604263,-122.91258870031653,353.80969266127795,1.118719422316781
2024-07-07 19:41:26.9550,0.039,-0.344,-1.125,-0.01,1.03,1.29,49.27804059604263,-122.91258870031653,353.80969266127795,1.118719422316781
2024-07-07 19:41:26.9650,0.071,-0.35,-1.169,-0.22,1.03,1.55,49.27804059604263,-122.91258870031653,353.80969266127795,1.118719422316781
2024-07-07 19:41:26.9750,0.109,-0.356,-1.233,-0.55,1.16,1.99,49.27804059604263,-122.91258870031653,353.80969266127795,1.118719422316781
2024-07-07 19:41:26.9850,0.159,-0.328,-1.318,-0.95,1.28,2.63,49.27804059604263,-122.91258870031653,353.80969266127795,1.118719422316781
2024-07-07 19:41:26.9950,0.188,-0.239,-1.409,-1.47,1.05,3.45,49.27804059604263,-122.91258870031653,353.80969266127795,1.118719422316781
2024-07-07 19:41:27.0050,0.189,-0.117,-1.506,-1.75,0.23,4.33,49.27804059604263,-122.91258870031653,353.80969266127795,1.118719422316781
2024-07-07 19:41:27.0160,0.181,-0.006,-1.572,-1.8,-0.84,5.24,49.27804059604263,-122.91258870031653,353.80969266127795,1.118719422316781
2024-07-07 19:41:27.0260,0.168,0.071,-1.577,-1.8,-1.79,5.8,49.27804059604263,-122.91258870031653,353.80969266127795,1.118719422316781
2024-07-07 19:41:27.0360,0.15,0.099,-1.51,-1.75,-2.4,5.75,49.27804059604263,-122.91258870031653,353.80969266127795,1.118719422316781
2024-07-07 19:41:27.0460,0.131,0.108,-1.403,-1.66,-2.58,5.01,49.27804059604263,-122.91258870031653,353.80969266127795,1.118719422316781
2024-07-07 19:41:27.0560,0.099,0.109,-1.292,-1.55,-2.64,3.94,49.27804059604263,-122.91258870031653,353.80969266127795,1.118719422316781
2024-07-07 19:41:27.0660,0.05,0.107,-1.188,-1.27,-2.66,2.86,49.27804059604263,-122.91258870031653,353.80969266127795,1.118719422316781
2024-07-07 19:41:27.0760,-0.006,0.109,-1.102,-0.82,-2.69,1.87,49.27804059604263,-122.91258870031653,353.80969266127795,1.118719422316781
2024-07-07 19:41:27.0860,-0.055,0.113,-1.028,-0.31,-2.78,1.05,49.27804059604263,-122.91258870031653,353.80969266127795,1.118719422316781
2024-07-07 19:41:27.0960,-0.091,0.112,-0.974,0.17,-2.89,0.36,49.27804059604263,-122.91258870031653,353.80969266127795,1.118719422316781
2024-07-07 19:41:27.1060,-0.105,0.109,-0.948,0.53,-2.95,-0.12,49.27804059604263,-122.91258870031653,353.80969266127795,1.118719422316781
2024-07-07 19:41:27.1160,-0.101,0.112,-0.95,0.71,-2.98,-0.33,49.27804059604263,-122.91258870031653,353.80969266127795,1.118719422316781
2024-07-07 19:41:27.1270,-0.086,0.119,-0.976,0.74,-3.06,-0.27,49.27804059604263,-122.91258870031653,353.80969266127795,1.118719422316781
2024-07-07 19:41:27.1370,-0.066,0.132,-1.011,0.67,-3.17,0.01,49.27804059604263,-122.91258870031653,353.80969266127795,1.118719422316781
2024-07-07 19:41:27.1470,-0.041,0.137,-1.04,0.58,-3.32,0.35,49.27804059604263,-122.91258870031653,353.80969266127795,1.118719422316781
2024-07-07 19:41:27.1560,-0.007,0.122,-1.056,0.42,-3.37,0.63,49.27804059604263,-122.91258870031653,353.80969266127795,1.118719422316781
2024-07-07 19:41:27.1710,0.028,0.095,-1.056,0.16,-3.22,0.78,49.27803089563667,-122.91259757602776,353.65916242823005,1.1251676527957433
2024-07-07 19:41:27.1760,0.052,0.058,-1.024,-0.1,-2.95,0.74,49.27803089563667,-122.91259757602776,353.65916242823005,1.1251676527957433
2024-07-07 19:41:27.1870,0.062,0.02,-0.966,-0.25,-2.59,0.39,49.27803089563667,-122.91259757602776,353.65916242823005,1.1251676527957433
2024-07-07 19:41:27.1970,0.067,-0.012,-0.903,-0.28,-2.25,-0.18,49.27803089563667,-122.91259757602776,353.65916242823005,1.1251676527957433
2024-07-07 19:41:27.2070,0.072,-0.045,-0.833,-0.28,-1.98,-0.8,49.27803089563667,-122.91259757602776,353.65916242823005,1.1251676527957433
2024-07-07 19:41:27.2170,0.079,-0.084,-0.772,-0.27,-1.68,-1.48,49.27803089563667,-122.91259757602776,353.65916242823005,1.1251676527957433
2024-07-07 19:41:27.2270,0.085,-0.114,-0.729,-0.28,-1.35,-2.03,49.27803089563667,-122.91259757602776,353.65916242823005,1.1251676527957433
2024-07-07 19:41:27.2370,0.085,-0.133,-0.698,-0.28,-1.11,-2.43,49.27803089563667,-122.91259757602776,353.65916242823005,1.1251676527957433
2024-07-07 19:41:27.2470,0.08,-0.148,-0.683,-0.22,-0.97,-2.7,49.27803089563667,-122.91259757602776,353.65916242823005,1.1251676527957433
2024-07-07 19:41:27.2570,0.083,-0.162,-0.67,-0.12,-0.87,-2.82,49.27803089563667,-122.91259757602776,353.65916242823005,1.1251676527957433
2024-07-07 19:41:27.2670,0.092,-0.176,-0.674,-0.12,-0.77,-2.93,49.27803089563667,-122.91259757602776,353.65916242823005,1.1251676527957433
2024-07-07 19:41:27.2770,0.105,-0.202,-0.685,-0.16,-0.64,-2.86,49.27803089563667,-122.91259757602776,353.65916242823005,1.1251676527957433
2024-07-07 19:41:27.2880,0.119,-0.232,-0.683,-0.27,-0.4,-2.76,49.27803089563667,-122.91259757602776,353.65916242823005,1.1251676527957433
2024-07-07 19:41:27.2980,0.13,-0.255,-0.687,-0.38,-0.12,-2.78,49.27803089563667,-122.91259757602776,353.65916242823005,1.1251676527957433
2024-07-07 19:41:27.3080,0.139,-0.266,-0.69,-0.46,0.09,-2.73,49.27803089563667,-122.91259757602776,353.65916242823005,1.1251676527957433
2024-07-07 19:41:27.3180,0.138,-0.267,-0.686,-0.54,0.18,-2.71,49.27803089563667,-122.91259757602776,353.65916242823005,1.1251676527957433
2024-07-07 19:41:27.3280,0.135,-0.268,-0.685,-0.52,0.19,-2.74,49.27803089563667,-122.91259757602776,353.65916242823005,1.1251676527957433
2024-07-07 19:41:27.3380,0.135,-0.273,-0.676,-0.49,0.2,-2.76,49.27803089563667,-122.91259757602776,353.65916242823005,1.1251676527957433
2024-07-07 19:41:27.3480,0.139,-0.281,-0.675,-0.5,0.25,-2.86,49.27803089563667,-122.91259757602776,353.65916242823005,1.1251676527957433
2024-07-07 19:41:27.3580,0.141,-0.287,-0.692,-0.54,0.34,-2.84,49.27803089563667,-122.91259757602776,353.65916242823005,1.1251676527957433
2024-07-07 19:41:27.3680,0.145,-0.29,-0.712,-0.55,0.41,-2.67,49.27803089563667,-122.91259757602776,353.65916242823005,1.1251676527957433
2024-07-07 19:41:27.3780,0.146,-0.288,-0.739,-0.59,0.45,-2.47,49.27803089563667,-122.91259757602776,353.65916242823005,1.1251676527957433
2024-07-07 19:41:27.3880,0.142,-0.278,-0.767,-0.59,0.42,-2.2,49.27803089563667,-122.91259757602776,353.65916242823005,1.1251676527957433
2024-07-07 19:41:27.3980,0.138,-0.271,-0.789,-0.55,0.34,-1.93,49.27803089563667,-122.91259757602776,353.65916242823005,1.1251676527957433
2024-07-07 19:41:27.4080,0.132,-0.263,-0.813,-0.51,0.28,-1.73,49.27803089563667,-122.91259757602776,353.65916242823005,1.1251676527957433
2024-07-07 19:41:27.4190,0.128,-0.259,-0.839,-0.44,0.22,-1.49,49.27803089563667,-122.91259757602776,353.65916242823005,1.1251676527957433
2024-07-07 19:41:27.4290,0.121,-0.253,-0.861,-0.39,0.19,-1.23,49.27803089563667,-122.91259757602776,353.65916242823005,1.1251676527957433
2024-07-07 19:41:27.4390,0.113,-0.249,-0.882,-0.32,0.14,-1.02,49.27803089563667,-122.91259757602776,353.65916242823005,1.1251676527957433
2024-07-07 19:41:27.4490,0.101,-0.249,-0.903,-0.21,0.11,-0.81,49.27803089563667,-122.91259757602776,353.65916242823005,1.1251676527957433
2024-07-07 19:41:27.4590,0.092,-0.247,-0.915,-0.09,0.1,-0.61,49.27803089563667,-122.91259757602776,353.65916242823005,1.1251676527957433
2024-07-07 19:41:27.4690,0.084,-0.247,-0.923,0.01,0.07,-0.5,49.27803089563667,-122.91259757602776,353.65916242823005,1.1251676527957433
2024-07-07 19:41:27.4790,0.073,-0.252,-0.929,0.11,0.06,-0.41,49.27803089563667,-122.91259757602776,353.65916242823005,1.1251676527957433
2024-07-07 19:41:27.4890,0.062,-0.258,-0.935,0.23,0.1,-0.36,49.27803089563667,-122.91259757602776,353.65916242823005,1.1251676527957433
2024-07-07 19:41:27.4990,0.054,-0.266,-0.939,0.34,0.14,-0.29,49.27803089563667,-122.91259757602776,353.65916242823005,1.1251676527957433
2024-07-07 19:41:27.5090,0.041,-0.28,-0.944,0.44,0.21,-0.25,49.27803089563667,-122.91259757602776,353.65916242823005,1.1251676527957433
2024-07-07 19:41:27.5190,0.021,-0.296,-0.954,0.56,0.33,-0.19,49.27803089563667,-122.91259757602776,353.65916242823005,1.1251676527957433
2024-07-07 19:41:27.5290,-0.002,-0.315,-0.967,0.74,0.48,-0.09,49.27803089563667,-122.91259757602776,353.65916242823005,1.1251676527957433
2024-07-07 19:41:27.5390,-0.025,-0.323,-0.976,0.93,0.64,0.05,49.27803089563667,-122.91259757602776,353.65916242823005,1.1251676527957433
2024-07-07 19:41:27.5490,-0.05,-0.312,-0.974,1.11,0.69,0.11,49.27803089563667,-122.91259757602776,353.65916242823005,1.1251676527957433
2024-07-07 19:41:27.5590,-0.08,-0.284,-0.984,1.3,0.55,0.09,49.27803089563667,-122.91259757602776,353.65916242823005,1.1251676527957433
2024-07-07 19:41:27.5700,-0.109,-0.247,-1.003,1.54,0.26,0.2,49.27803089563667,-122.91259757602776,353.65916242823005,1.1251676527957433
2024-07-07 19:41:27.5800,-0.119,-0.219,-1.0,1.74,-0.08,0.37,49.27803089563667,-122.91259757602776,353.65916242823005,1.1251676527957433
2024-07-07 19:41:27.5900,-0.126,-0.214,-1.008,1.75,-0.36,0.33,49.27803089563667,-122.91259757602776,353.65916242823005,1.1251676527957433
2024-07-07 19:41:27.6000,-0.105,-0.231,-0.975,1.74,-0.32,0.38,49.27803089563667,-122.91259757602776,353.65916242823005,1.1251676527957433
2024-07-07 19:41:27.6100,-0.061,-0.218,-0.955,1.45,-0.18,0.01,49.27803089563667,-122.91259757602776,353.65916242823005,1.1251676527957433
2024-07-07 19:41:27.6200,-0.024,-0.199,-1.01,0.97,-0.33,-0.1,49.27803089563667,-122.91259757602776,353.65916242823005,1.1251676527957433
2024-07-07 19:41:27.6300,-0.005,-0.188,-1.106,0.6,-0.51,0.51,49.27803089563667,-122.91259757602776,353.65916242823005,1.1251676527957433
2024-07-07 19:41:27.6400,0.013,-0.183,-1.208,0.4,-0.62,1.48,49.27803089563667,-122.91259757602776,353.65916242823005,1.1251676527957433
2024-07-07 19:41:27.6500,0.042,-0.206,-1.283,0.16,-0.65,2.46,49.27803089563667,-122.91259757602776,353.65916242823005,1.1251676527957433
2024-07-07 19:41:27.6610,0.076,-0.246,-1.277,-0.19,-0.4,3.14,49.27803089563667,-122.91259757602776,353.65916242823005,1.1251676527957433
2024-07-07 19:41:27.6710,0.11,-0.265,-1.195,-0.58,-0.03,2.96,49.27803089563667,-122.91259757602776,353.65916242823005,1.1251676527957433
2024-07-07 19:41:27.6810,0.156,-0.249,-1.103,-0.97,0.1,2.11,49.27803089563667,-122.91259757602776,353.65916242823005,1.1251676527957433
2024-07-07 19:41:27.6910,0.204,-0.218,-1.059,-1.46,-0.09,1.24,49.27803089563667,-122.91259757602776,353.65916242823005,1.1251676527957433
2024-07-07 19:41:27.7010,0.23,-0.18,-1.082,-1.9,-0.38,0.88,49.27803089563667,-122.91259757602776,353.65916242823005,1.1251676527957433
2024-07-07 19:41:27.7110,0.248,-0.137,-1.163,-2.09,-0.72,1.18,49.27803089563667,-122.91259757602776,353.65916242823005,1.1251676527957433
2024-07-07 19:41:27.7210,0.275,-0.091,-1.266,-2.22,-1.09,2.02,49.27803089563667,-122.91259757602776,353.65916242823005,1.1251676527957433
2024-07-07 19:41:27.7320,0.296,-0.06,-1.355,-2.43,-1.47,3.01,49.27803089563667,-122.91259757602776,353.65916242823005,1.1251676527957433
2024-07-07 19:41:27.7410,0.311,-0.052,-1.4,-2.58,-1.7,3.83,49.27803089563667,-122.91259757602776,353.65916242823005,1.1251676527957433
2024-07-07 19:41:27.7510,0.324,-0.066,-1.382,-2.68,-1.72,4.19,49.27803089563667,-122.91259757602776,353.65916242823005,1.1251676527957433
2024-07-07 19:41:27.7610,0.328,-0.101,-1.306,-2.78,-1.55,3.94,49.27803089563667,-122.91259757602776,353.65916242823005,1.1251676527957433
2024-07-07 19:41:27.7710,0.305,-0.159,-1.184,-2.77,-1.21,3.15,49.27803089563667,-122.91259757602776,353.65916242823005,1.1251676527957433
2024-07-07 19:41:27.7810,0.263,-0.213,-1.046,-2.48,-0.69,1.92,49.27803089563667,-122.91259757602776,353.65916242823005,1.1251676527957433
2024-07-07 19:41:27.7910,0.222,-0.251,-0.941,-2.03,-0.24,0.6,49.27803089563667,-122.91259757602776,353.65916242823005,1.1251676527957433
2024-07-07 19:41:27.8020,0.187,-0.27,-0.876,-1.59,0.02,-0.35,49.27803089563667,-122.91259757602776,353.65916242823005,1.1251676527957433
2024-07-07 19:41:27.8120,0.156,-0.282,-0.832,-1.2,0.11,-0.92,49.27803089563667,-122.91259757602776,353.65916242823005,1.1251676527957433
2024-07-07 19:41:27.8220,0.132,-0.291,-0.798,-0.85,0.14,-1.32,49.27803089563667,-122.91259757602776,353.65916242823005,1.1251676527957433
2024-07-07 19:41:27.8320,0.111,-0.297,-0.775,-0.56,0.15,-1.62,49.27803089563667,-122.91259757602776,353.65916242823005,1.1251676527957433
2024-07-07 19:41:27.8420,0.095,-0.303,-0.755,-0.31,0.16,-1.81,49.27803089563667,-122.91259757602776,353.65916242823005,1.1251676527957433
2024-07-07 19:41:27.8520,0.082,-0.314,-0.74,-0.13,0.17,-1.99,49.27803089563667,-122.91259757602776,353.65916242823005,1.1251676527957433
2024-07-07 19:41:27.8620,0.074,-0.316,-0.726,0.03,0.25,-2.12,49.27803089563667,-122.91259757602776,353.65916242823005,1.1251676527957433
2024-07-07 19:41:27.8720,0.061,-0.32,-0.696,0.12,0.24,-2.26,49.27803089563667,-122.91259757602776,353.65916242823005,1.1251676527957433
2024-07-07 19:41:27.8820,0.044,-0.329,-0.659,0.26,0.29,-2.57,49.27803089563667,-122.91259757602776,353.65916242823005,1.1251676527957433
2024-07-07 19:41:27.8920,0.03,-0.326,-0.629,0.43,0.37,-2.92,49.27803089563667,-122.91259757602776,353.65916242823005,1.1251676527957433
2024-07-07 19:41:27.9020,0.016,-0.318,-0.603,0.56,0.34,-3.21,49.27803089563667,-122.91259757602776,353.65916242823005,1.1251676527957433
2024-07-07 19:41:27.9130,0.001,-0.307,-0.583,0.69,0.26,-3.47,49.27803089563667,-122.91259757602776,353.65916242823005,1.1251676527957433
2024-07-07 19:41:27.9220,-0.008,-0.297,-0.574,0.83,0.18,-3.67,49.27803089563667,-122.91259757602776,353.65916242823005,1.1251676527957433
2024-07-07 19:41:27.9330,-0.01,-0.28,-0.573,0.91,0.1,-3.75,49.27803089563667,-122.91259757602776,353.65916242823005,1.1251676527957433
2024-07-07 19:41:27.9430,-0.01,-0.268,-0.581,0.93,-0.04,-3.75,49.27803089563667,-122.91259757602776,353.65916242823005,1.1251676527957433
2024-07-07 19:41:27.9530,-0.005,-0.26,-0.593,0.92,-0.13,-3.67,49.27803089563667,-122.91259757602776,353.65916242823005,1.1251676527957433
2024-07-07 19:41:27.9630,0.003,-0.255,-0.609,0.87,-0.19,-3.56,49.27803089563667,-122.91259757602776,353.65916242823005,1.1251676527957433
2024-07-07 19:41:27.9730,0.017,-0.25,-0.63,0.79,-0.22,-3.39,49.27803089563667,-122.91259757602776,353.65916242823005,1.1251676527957433
2024-07-07 19:41:27.9830,0.029,-0.256,-0.642,0.66,-0.25,-3.2,49.27803089563667,-122.91259757602776,353.65916242823005,1.1251676527957433
2024-07-07 19:41:27.9930,0.038,-0.267,-0.646,0.55,-0.18,-3.09,49.27803089563667,-122.91259757602776,353.65916242823005,1.1251676527957433
2024-07-07 19:41:28.0030,0.051,-0.274,-0.642,0.47,-0.08,-3.06,49.27803089563667,-122.91259757602776,353.65916242823005,1.1251676527957433
2024-07-07 19:41:28.0130,0.064,-0.285,-0.648,0.36,-0.01,-3.09,49.27803089563667,-122.91259757602776,353.65916242823005,1.1251676527957433
2024-07-07 19:41:28.0230,0.074,-0.3,-0.667,0.25,0.09,-3.02,49.27803089563667,-122.91259757602776,353.65916242823005,1.1251676527957433
2024-07-07 19:41:28.0330,0.08,-0.311,-0.701,0.18,0.24,-2.81,49.27803089563667,-122.91259757602776,353.65916242823005,1.1251676527957433
2024-07-07 19:41:28.0430,0.089,-0.313,-0.755,0.14,0.34,-2.46,49.27803089563667,-122.91259757602776,353.65916242823005,1.1251676527957433
2024-07-07 19:41:28.0530,0.103,-0.313,-0.829,0.08,0.35,-1.9,49.27803089563667,-122.91259757602776,353.65916242823005,1.1251676527957433
2024-07-07 19:41:28.0640,0.117,-0.321,-0.913,-0.04,0.37,-1.15,49.27803089563667,-122.91259757602776,353.65916242823005,1.1251676527957433
2024-07-07 19:41:28.0740,0.134,-0.336,-0.979,-0.16,0.48,-0.33,49.27803089563667,-122.91259757602776,353.65916242823005,1.1251676527957433
2024-07-07 19:41:28.0840,0.148,-0.344,-1.018,-0.33,0.63,0.28,49.27803089563667,-122.91259757602776,353.65916242823005,1.1251676527957433
2024-07-07 19:41:28.0940,0.155,-0.347,-1.037,-0.46,0.71,0.62,49.27803089563667,-122.91259757602776,353.65916242823005,1.1251676527957433
2024-07-07 19:41:28.1040,0.157,-0.345,-1.045,-0.53,0.73,0.8,49.27803089563667,-122.91259757602776,353.65916242823005,1.1251676527957433
2024-07-07 19:41:28.1140,0.154,-0.341,-1.048,-0.55,0.7,0.87,49.27803089563667,-122.91259757602776,353.65916242823005,1.1251676527957433
2024-07-07 19:41:28.1240,0.149,-0.347,-1.045,-0.55,0.64,0.89,49.27803089563667,-122.91259757602776,353.65916242823005,1.1251676527957433
2024-07-07 19:41:28.1340,0.14,-0.374,-1.015,-0.5,0.7,0.85,49.27803089563667,-122.91259757602776,353.65916242823005,1.1251676527957433
2024-07-07 19:41:28.1440,0.142,-0.39,-0.982,-0.43,0.94,0.53,49.27803089563667,-122.91259757602776,353.65916242823005,1.1251676527957433
2024-07-07 19:41:28.1550,0.159,-0.374,-0.973,-0.48,1.01,0.25,49.27803089563667,-122.91259757602776,353.65916242823005,1.1251676527957433
2024-07-07 19:41:28.1640,0.172,-0.352,-1.013,-0.64,0.79,0.22,49.27802303719533,-122.91260136160219,353.4617310743779,1.005034633832121
2024-07-07 19:41:28.1740,0.179,-0.346,-1.086,-0.74,0.55,0.68,49.27802303719533,-122.91260136160219,353.4617310743779,1.005034633832121
2024-07-07 19:41:28.1840,0.188,-0.363,-1.125,-0.8,0.5,1.41,49.27802303719533,-122.91260136160219,353.4617310743779,1.005034633832121
2024-07-07 19:41:28.1950,0.203,-0.37,-1.12,-0.89,0.66,1.73,49.27802303719533,-122.91260136160219,353.4617310743779,1.005034633832121
2024-07-07 19:41:28.2050,0.213,-0.348,-1.123,-1.03,0.7,1.66,49.27802303719533,-122.91260136160219,353.4617310743779,1.005034633832121
2024-07-07 19:41:28.2150,0.224,-0.314,-1.161,-1.13,0.48,1.72,49.27802303719533,-122.91260136160219,353.4617310743779,1.005034633832121
2024-07-07 19:41:28.2250,0.245,-0.295,-1.232,-1.25,0.22,2.11,49.27802303719533,-122.91260136160219,353.4617310743779,1.005034633832121
2024-07-07 19:41:28.2350,0.256,-0.281,-1.333,-1.49,0.17,2.8,49.27802303719533,-122.91260136160219,353.4617310743779,1.005034633832121
2024-07-07 19:41:28.2450,0.23,-0.254,-1.443,-1.6,0.2,3.78,49.27802303719533,-122.91260136160219,353.4617310743779,1.005034633832121
2024-07-07 19:41:28.2550,0.173,-0.197,-1.507,-1.36,0.08,4.77,49.27802303719533,-122.91260136160219,353.4617310743779,1.005034633832121
2024-07-07 19:41:28.2650,0.112,-0.108,-1.525,-0.85,-0.32,5.28,49.27802303719533,-122.91260136160219,353.4617310743779,1.005034633832121
2024-07-07 19:41:28.2750,0.06,-0.029,-1.496,-0.33,-1.04,5.37,49.27802303719533,-122.91260136160219,353.4617310743779,1.005034633832121
2024-07-07 19:41:28.2850,0.014,0.029,-1.424,0.11,-1.63,4.98,49.27802303719533,-122.91260136160219,353.4617310743779,1.005034633832121
2024-07-07 19:41:28.2950,-0.021,0.07,-1.346,0.49,-2.08,4.23,49.27802303719533,-122.91260136160219,353.4617310743779,1.005034633832121
2024-07-07 19:41:28.3050,-0.046,0.082,-1.279,0.78,-2.38,3.45,49.27802303719533,-122.91260136160219,353.4617310743779,1.005034633832121
2024-07-07 19:41:28.3150,-0.068,0.05,-1.228,1.02,-2.42,2.82,49.27802303719533,-122.91260136160219,353.4617310743779,1.005034633832121
2024-07-07 19:41:28.3250,-0.064,-0.009,-1.186,1.21,-2.05,2.33,49.27802303719533,-122.91260136160219,353.4617310743779,1.005034633832121
2024-07-07 19:41:28.3360,-0.042,-0.062,-1.158,1.17,-1.49,1.93,49.27802303719533,-122.91260136160219,353.4617310743779,1.005034633832121
2024-07-07 19:41:28.3460,-0.018,-0.11,-1.125,0.97,-1.0,1.67,49.27802303719533,-122.91260136160219,353.4617310743779,1.005034633832121
2024-07-07 19:41:28.3560,0.004,-0.149,-1.1,0.79,-0.57,1.35,49.27802303719533,-122.91260136160219,353.4617310743779,1.005034633832121
2024-07-07 19:41:28.3660,0.023,-0.183,-1.076,0.63,-0.24,1.13,49.27802303719533,-122.91260136160219,353.4617310743779,1.005034633832121
2024-07-07 19:41:28.3760,0.041,-0.205,-1.033,0.49,0.04,0.89,49.27802303719533,-122.91260136160219,353.4617310743779,1.005034633832121
2024-07-07 19:41:28.3860,0.053,-0.217,-0.982,0.38,0.2,0.47,49.27802303719533,-122.91260136160219,353.4617310743779,1.005034633832121
2024-07-07 19:41:28.3960,0.057,-0.218,-0.926,0.3,0.26,-0.03,49.27802303719533,-122.91260136160219,353.4617310743779,1.005034633832121
2024-07-07 19:41:28.4060,0.052,-0.209,-0.864,0.33,0.19,-0.58,49.27802303719533,-122.91260136160219,353.4617310743779,1.005034633832121
2024-07-07 19:41:28.4160,0.044,-0.207,-0.805,0.43,0.05,-1.16,49.27802303719533,-122.91260136160219,353.4617310743779,1.005034633832121
2024-07-07 19:41:28.4260,0.036,-0.212,-0.762,0.55,-0.02,-1.71,49.27802303719533,-122.91260136160219,353.4617310743779,1.005034633832121
2024-07-07 19:41:28.4360,0.033,-0.216,-0.727,0.66,-0.02,-2.1,49.27802303719533,-122.91260136160219,353.4617310743779,1.005034633832121
2024-07-07 19:41:28.4460,0.032,-0.224,-0.707,0.73,-0.04,-2.42,49.27802303719533,-122.91260136160219,353.4617310743779,1.005034633832121
2024-07-07 19:41:28.4570,0.036,-0.247,-0.692,0.77,0.02,-2.58,49.27802303719533,-122.91260136160219,353.4617310743779,1.005034633832121
2024-07-07 19:41:28.4660,0.039,-0.265,-0.685,0.76,0.21,-2.72,49.27802303719533,-122.91260136160219,353.4617310743779,1.005034633832121
2024-07-07 19:41:28.4770,0.041,-0.276,-0.677,0.76,0.36,-2.77,49.27802303719533,-122.91260136160219,353.4617310743779,1.005034633832121
2024-07-07 19:41:28.4870,0.043,-0.278,-0.666,0.76,0.44,-2.85,49.27802303719533,-122.91260136160219,353.4617310743779,1.005034633832121
2024-07-07 19:41:28.4970,0.042,-0.269,-0.657,0.76,0.43,-2.95,49.27802303719533,-122.91260136160219,353.4617310743779,1.005034633832121
2024-07-07 19:41:28.5070,0.035,-0.255,-0.654,0.78,0.33,-3.03,49.27802303719533,-122.91260136160219,353.4617310743779,1.005034633832121
2024-07-07 19:41:28.5170,0.026,-0.238,-0.66,0.87,0.17,-3.04,49.27802303719533,-122.91260136160219,353.4617310743779,1.005034633832121
2024-07-07 19:41:28.5270,0.023,-0.228,-0.669,0.96,0.0,-2.98,49.27802303719533,-122.91260136160219,353.4617310743779,1.005034633832121
2024-07-07 19:41:28.5370,0.022,-0.225,-0.677,0.99,-0.12,-2.88,49.27802303719533,-122.91260136160219,353.4617310743779,1.005034633832121
2024-07-07 19:41:28.5470,0.021,-0.225,-0.691,1.02,-0.16,-2.79,49.27802303719533,-122.91260136160219,353.4617310743779,1.005034633832121
2024-07-07 19:41:28.5570,0.027,-0.233,-0.711,1.02,-0.18,-2.64,49.27802303719533,-122.91260136160219,353.4617310743779,1.005034633832121
2024-07-07 19:41:28.5670,0.035,-0.246,-0.734,0.97,-0.12,-2.42,49.27802303719533,-122.91260136160219,353.4617310743779,1.005034633832121
2024-07-07 19:41:28.5770,0.039,-0.261,-0.751,0.9,-0.02,-2.2,49.27802303719533,-122.91260136160219,353.4617310743779,1.005034633832121
2024-07-07 19:41:28.5870,0.04,-0.27,-0.766,0.88,0.09,-2.03,49.27802303719533,-122.91260136160219,353.4617310743779,1.005034633832121
2024-07-07 19:41:28.5970,0.046,-0.278,-0.78,0.86,0.14,-1.87,49.27802303719533,-122.91260136160219,353.4617310743779,1.005034633832121
2024-07-07 19:41:28.6080,0.052,-0.292,-0.791,0.79,0.18,-1.73,49.27802303719533,-122.91260136160219,353.4617310743779,1.005034633832121
2024-07-07 19:41:28.6180,0.056,-0.306,-0.801,0.74,0.29,-1.61,49.27802303719533,-122.91260136160219,353.4617310743779,1.005034633832121
2024-07-07 19:41:28.6280,0.059,-0.311,-0.818,0.69,0.39,-1.5,49.27802303719533,-122.91260136160219,353.4617310743779,1.005034633832121
2024-07-07 19:41:28.6380,0.058,-0.317,-0.84,0.65,0.4,-1.32,49.27802303719533,-122.91260136160219,353.4617310743779,1.005034633832121
2024-07-07 19:41:28.6480,0.062,-0.325,-0.871,0.65,0.44,-1.09,49.27802303719533,-122.91260136160219,353.4617310743779,1.005034633832121
2024-07-07 19:41:28.6580,0.072,-0.336,-0.923,0.57,0.51,-0.77,49.27802303719533,-122.91260136160219,353.4617310743779,1.005034633832121
2024-07-07 19:41:28.6680,0.082,-0.354,-0.979,0.44,0.64,-0.24,49.27802303719533,-122.91260136160219,353.4617310743779,1.005034633832121
2024-07-07 19:41:28.6780,0.1,-0.362,-1.011,0.3,0.83,0.27,49.27802303719533,-122.91260136160219,353.4617310743779,1.005034633832121
2024-07-07 19:41:28.6880,0.118,-0.334,-1.047,0.07,0.9,0.56,49.27802303719533,-122.91260136160219,353.4617310743779,1.005034633832121
2024-07-07 19:41:28.6980,0.135,-0.292,-1.117,-0.17,0.62,0.93,49.27802303719533,-122.91260136160219,353.4617310743779,1.005034633832121
2024-07-07 19:41:28.7090,0.15,-0.276,-1.207,-0.4,0.28,1.63,49.27802303719533,-122.91260136160219,353.4617310743779,1.005034633832121
2024-07-07 19:41:28.7180,0.166,-0.279,-1.296,-0.64,0.25,2.49,49.27802303719533,-122.91260136160219,353.4617310743779,1.005034633832121
2024-07-07 19:41:28.7290,0.175,-0.276,-1.365,-0.9,0.37,3.32,49.27802303719533,-122.91260136160219,353.4617310743779,1.005034633832121
2024-07-07 19:41:28.7390,0.165,-0.253,-1.393,-1.07,0.42,3.92,49.27802303719533,-122.91260136160219,353.4617310743779,1.005034633832121
2024-07-07 19:41:28.7490,0.147,-0.217,-1.37,-1.06,0.27,4.11,49.27802303719533,-122.91260136160219,353.4617310743779,1.005034633832121
2024-07-07 19:41:28.7590,0.141,-0.176,-1.319,-0.97,0.01,3.8,49.27802303719533,-122.91260136160219,353.4617310743779,1.005034633832121
2024-07-07 19:41:28.7690,0.155,-0.139,-1.278,-0.99,-0.31,3.28,49.27802303719533,-122.91260136160219,353.4617310743779,1.005034633832121
2024-07-07 19:41:28.7790,0.187,-0.112,-1.269,-1.18,-0.59,2.89,49.27802303719533,-122.91260136160219,353.4617310743779,1.005034633832121
2024-07-07 19:41:28.7890,0.22,-0.098,-1.284,-1.49,-0.79,2.83,49.27802303719533,-122.91260136160219,353.4617310743779,1.005034633832121
2024-07-07 19:41:28.7990,0.256,-0.1,-1.312,-1.8,-0.87,2.98,49.27802303719533,-122.91260136160219,353.4617310743779,1.005034633832121
2024-07-07 19:41:28.8090,0.293,-0.11,-1.331,-2.11,-0.81,3.27,49.27802303719533,-122.91260136160219,353.4617310743779,1.005034633832121
2024-07-07 19:41:28.8190,0.32,-0.124,-1.325,-2.44,-0.7,3.43,49.27802303719533,-122.91260136160219,353.4617310743779,1.005034633832121
2024-07-07 19:41:28.8290,0.329,-0.127,-1.292,-2.64,-0.56,3.33,49.27802303719533,-122.91260136160219,353.4617310743779,1.005034633832121
2024-07-07 19:41:28.8390,0.325,-0.131,-1.252,-2.68,-0.53,2.99,49.27802303719533,-122.91260136160219,353.4617310743779,1.005034633832121
2024-07-07 19:41:28.8490,0.308,-0.128,-1.2,-2.6,-0.5,2.59,49.27802303719533,-122.91260136160219,353.4617310743779,1.005034633832121
2024-07-07 19:41:28.8590,0.276,-0.139,-1.15,-2.39,-0.52,2.07,49.27802303719533,-122.91260136160219,353.4617310743779,1.005034633832121
2024-07-07 19:41:28.8700,0.239,-0.153,-1.107,-2.07,-0.4,1.59,49.27802303719533,-122.91260136160219,353.4617310743779,1.005034633832121
2024-07-07 19:41:28.8800,0.202,-0.165,-1.064,-1.7,-0.27,1.18,49.27802303719533,-122.91260136160219,353.4617310743779,1.005034633832121
2024-07-07 19:41:28.8900,0.171,-0.172,-1.013,-1.34,-0.16,0.75,49.27802303719533,-122.91260136160219,353.4617310743779,1.005034633832121
2024-07-07 19:41:28.9000,0.143,-0.175,-0.952,-1.06,-0.1,0.24,49.27802303719533,-122.91260136160219,353.4617310743779,1.005034633832121
2024-07-07 19:41:28.9100,0.112,-0.182,-0.892,-0.78,-0.08,-0.37,49.27802303719533,-122.91260136160219,353.4617310743779,1.005034633832121
2024-07-07 19:41:28.9200,0.081,-0.189,-0.831,-0.49,-0.02,-0.96,49.27802303719533,-122.91260136160219,353.4617310743779,1.005034633832121
2024-07-07 19:41:28.9300,0.051,-0.19,-0.785,-0.19,0.02,-1.54,49.27802303719533,-122.91260136160219,353.4617310743779,1.005034633832121
2024-07-07 19:41:28.9420,0.024,-0.186,-0.753,0.12,0.0,-1.97,49.27802303719533,-122.91260136160219,353.4617310743779,1.005034633832121
2024-07-07 19:41:28.9500,0.003,-0.183,-0.732,0.39,-0.06,-2.26,49.27802303719533,-122.91260136160219,353.4617310743779,1.005034633832121
2024-07-07 19:41:28.9600,-0.013,-0.184,-0.713,0.6,-0.11,-2.45,49.27802303719533,-122.91260136160219,353.4617310743779,1.005034633832121
2024-07-07 19:41:28.9700,-0.027,-0.192,-0.694,0.79,-0.13,-2.63,49.27802303719533,-122.91260136160219,353.4617310743779,1.005034633832121
2024-07-07 19:41:28.9800,-0.034,-0.205,-0.676,0.95,-0.07,-2.82,49.27802303719533,-122.91260136160219,353.4617310743779,1.005034633832121
2024-07-07 19:41:28.9900,-0.034,-0.214,-0.667,1.03,0.02,-2.96,49.27802303719533,-122.91260136160219,353.4617310743779,1.005034633832121
2024-07-07 19:41:29.0010,-0.035,-0.227,-0.662,1.06,0.09,-3.03,49.27802303719533,-122.91260136160219,353.4617310743779,1.005034633832121
2024-07-07 19:41:29.0110,-0.034,-0.239,-0.646,1.1,0.19,-3.09,49.27802303719533,-122.91260136160219,353.4617310743779,1.005034633832121
2024-07-07 19:41:29.0210,-0.031,-0.244,-0.624,1.13,0.27,-3.24,49.27802303719533,-122.91260136160219,353.4617310743779,1.005034633832121
2024-07-07 19:41:29.0310,-0.023,-0.249,-0.62,1.13,0.28,-3.44,49.27802303719533,-122.91260136160219,353.4617310743779,1.005034633832121
2024-07-07 19:41:29.0410,-0.01,-0.254,-0.636,1.1,0.29,-3.43,49.27802303719533,-122.91260136160219,353.4617310743779,1.005034633832121
2024-07-07 19:41:29.0510,0.007,-0.261,-0.657,1.01,0.31,-3.26,49.27802303719533,-122.91260136160219,353.4617310743779,1.005034633832121
2024-07-07 19:41:29.0610,0.022,-0.261,-0.685,0.89,0.34,-3.04,49.27802303719533,-122.91260136160219,353.4617310743779,1.005034633832121
2024-07-07 19:41:29.0710,0.035,-0.265,-0.711,0.79,0.31,-2.75,49.27802303719533,-122.91260136160219,353.4617310743779,1.005034633832121
2024-07-07 19:41:29.0810,0.049,-0.274,-0.725,0.7,0.33,-2.49,49.27802303719533,-122.91260136160219,353.4617310743779,1.005034633832121
2024-07-07 19:41:29.0910,0.067,-0.287,-0.733,0.59,0.38,-2.35,49.27802303719533,-122.91260136160219,353.4617310743779,1.005034633832121
2024-07-07 19:41:29.1010,0.091,-0.304,-0.742,0.44,0.49,-2.26,49.27802303719533,-122.91260136160219,353.4617310743779,1.005034633832121
2024-07-07 19:41:29.1120,0.109,-0.322,-0.757,0.22,0.62,-2.16,49.27802303719533,-122.91260136160219,353.4617310743779,1.005034633832121
2024-07-07 19:41:29.1210,0.115,-0.325,-0.776,0.07,0.76,-1.99,49.27802303719533,-122.91260136160219,353.4617310743779,1.005034633832121
2024-07-07 19:41:29.1320,0.12,-0.319,-0.788,0.03,0.74,-1.8,49.27802303719533,-122.91260136160219,353.4617310743779,1.005034633832121
2024-07-07 19:41:29.1420,0.125,-0.312,-0.805,-0.02,0.66,-1.68,49.27802303719533,-122.91260136160219,353.4617310743779,1.005034633832121
2024-07-07 19:41:29.1520,0.127,-0.314,-0.831,-0.08,0.58,-1.51,49.27802303719533,-122.91260136160219,353.4617310743779,1.005034633832121
2024-07-07 19:41:29.1630,0.125,-0.326,-0.865,-0.12,0.6,-1.24,49.27802303719533,-122.91260136160219,353.4617310743779,1.005034633832121
2024-07-07 19:41:29.1720,0.122,-0.336,-0.897,-0.13,0.7,-0.9,49.27801767188613,-122.91260620681709,352.8817847361788,0.8064565585223413
2024-07-07 19:41:29.1820,0.119,-0.342,-0.918,-0.14,0.78,-0.6,49.27801767188613,-122.91260620681709,352.8817847361788,0.8064565585223413
2024-07-07 19:41:29.1920,0.117,-0.346,-0.919,-0.16,0.83,-0.41,49.27801767188613,-122.91260620681709,352.8817847361788,0.8064565585223413
2024-07-07 19:41:29.2020,0.101,-0.37,-0.912,-0.19,0.87,-0.42,49.27801767188613,-122.91260620681709,352.8817847361788,0.8064565585223413
2024-07-07 19:41:29.2120,0.089,-0.396,-0.883,-0.07,1.12,-0.51,49.27801767188613,-122.91260620681709,352.8817847361788,0.8064565585223413
2024-07-07 19:41:29.2220,0.089,-0.392,-0.858,-0.01,1.34,-0.82,49.27801767188613,-122.91260620681709,352.8817847361788,0.8064565585223413
2024-07-07 19:41:29.2320,0.09,-0.37,-0.885,-0.02,1.27,-1.03,49.27801767188613,-122.91260620681709,352.8817847361788,0.8064565585223413
2024-07-07 19:41:29.2420,0.098,-0.352,-0.977,-0.02,1.07,-0.68,49.27801767188613,-122.91260620681709,352.8817847361788,0.8064565585223413
2024-07-07 19:41:29.2530,0.118,-0.335,-1.119,-0.08,0.92,0.29,49.27801767188613,-122.91260620681709,352.8817847361788,0.8064565585223413
2024-07-07 19:41:29.2630,0.153,-0.3,-1.264,-0.25,0.78,1.71,49.27801767188613,-122.91260620681709,352.8817847361788,0.8064565585223413
2024-07-07 19:41:29.2730,0.206,-0.242,-1.394,-0.58,0.46,3.11,49.27801767188613,-122.91260620681709,352.8817847361788,0.8064565585223413
2024-07-07 19:41:29.2830,0.268,-0.172,-1.498,-1.09,-0.07,4.35,49.27801767188613,-122.91260620681709,352.8817847361788,0.8064565585223413
2024-07-07 19:41:29.2930,0.309,-0.109,-1.577,-1.67,-0.69,5.32,49.27801767188613,-122.91260620681709,352.8817847361788,0.8064565585223413
2024-07-07 19:41:29.3030,0.31,-0.068,-1.638,-2.02,-1.21,6.05,49.27801767188613,-122.91260620681709,352.8817847361788,0.8064565585223413
2024-07-07 19:41:29.3130,0.288,-0.034,-1.661,-2.0,-1.51,6.6,49.27801767188613,-122.91260620681709,352.8817847361788,0.8064565585223413
2024-07-07 19:41:29.3230,0.256,0.008,-1.641,-1.79,-1.75,6.74,49.27801767188613,-122.91260620681709,352.8817847361788,0.8064565585223413
2024-07-07 19:41:29.3330,0.215,0.059,-1.592,-1.49,-2.1,6.48,49.27801767188613,-122.91260620681709,352.8817847361788,0.8064565585223413
2024-07-07 19:41:29.3430,0.171,0.102,-1.511,-1.11,-2.55,5.95,49.27801767188613,-122.91260620681709,352.8817847361788,0.8064565585223413
2024-07-07 19:41:29.3530,0.134,0.116,-1.416,-0.69,-2.93,5.12,49.27801767188613,-122.91260620681709,352.8817847361788,0.8064565585223413
2024-07-07 19:41:29.3630,0.115,0.097,-1.316,-0.36,-3.04,4.19,49.27801767188613,-122.91260620681709,352.8817847361788,0.8064565585223413
2024-07-07 19:41:29.3730,0.106,0.065,-1.215,-0.18,-2.86,3.21,49.27801767188613,-122.91260620681709,352.8817847361788,0.8064565585223413
2024-07-07 19:41:29.3830,0.104,0.025,-1.119,-0.07,-2.6,2.23,49.27801767188613,-122.91260620681709,352.8817847361788,0.8064565585223413
2024-07-07 19:41:29.3940,0.104,-0.025,-1.043,-0.01,-2.28,1.33,49.27801767188613,-122.91260620681709,352.8817847361788,0.8064565585223413
2024-07-07 19:41:29.4040,0.107,-0.081,-0.994,0.05,-1.86,0.65,49.27801767188613,-122.91260620681709,352.8817847361788,0.8064565585223413
2024-07-07 19:41:29.4140,0.12,-0.142,-0.954,0.08,-1.37,0.21,49.27801767188613,-122.91260620681709,352.8817847361788,0.8064565585223413
2024-07-07 19:41:29.4240,0.14,-0.206,-0.919,0.0,-0.83,-0.15,49.27801767188613,-122.91260620681709,352.8817847361788,0.8064565585223413
2024-07-07 19:41:29.4340,0.165,-0.27,-0.885,-0.16,-0.26,-0.48,49.27801767188613,-122.91260620681709,352.8817847361788,0.8064565585223413
2024-07-07 19:41:29.4440,0.188,-0.317,-0.853,-0.37,0.34,-0.79,49.27801767188613,-122.91260620681709,352.8817847361788,0.8064565585223413
2024-07-07 19:41:29.4540,0.193,-0.326,-0.817,-0.55,0.73,-1.1,49.27801767188613,-122.91260620681709,352.8817847361788,0.8064565585223413
2024-07-07 19:41:29.4640,0.176,-0.314,-0.783,-0.56,0.79,-1.45,49.27801767188613,-122.91260620681709,352.8817847361788,0.8064565585223413
2024-07-07 19:41:29.4740,0.15,-0.287,-0.754,-0.38,0.65,-1.78,49.27801767188613,-122.91260620681709,352.8817847361788,0.8064565585223413
2024-07-07 19:41:29.4840,0.127,-0.267,-0.727,-0.14,0.4,-2.07,49.27801767188613,-122.91260620681709,352.8817847361788,0.8064565585223413
2024-07-07 19:41:29.4950,0.105,-0.262,-0.697,0.06,0.26,-2.35,49.27801767188613,-122.91260620681709,352.8817847361788,0.8064565585223413
2024-07-07 19:41:29.5050,0.085,-0.268,-0.672,0.26,0.26,-2.66,49.27801767188613,-122.91260620681709,352.8817847361788,0.8064565585223413
2024-07-07 19:41:29.5150,0.067,-0.277,-0.663,0.43,0.36,-2.9,49.27801767188613,-122.91260620681709,352.8817847361788,0.8064565585223413
2024-07-07 19:41:29.5240,0.055,-0.284,-0.672,0.58,0.49,-2.97,49.27801767188613,-122.91260620681709,352.8817847361788,0.8064565585223413
2024-07-07 19:41:29.5350,0.047,-0.284,-0.686,0.66,0.61,-2.89,49.27801767188613,-122.91260620681709,352.8817847361788,0.8064565585223413
