time,gFx,gFy,gFz,ax,ay,az,latitude,longitude,altitude,speed
2024-07-23 19:13:31.5740,-0.031,-0.104,-1.002,0.2,0.9,0.85,49.27949052724601,-122.90342778138915,338.09790853317827,0.6452675223268153
2024-07-23 19:13:52.1100,-0.061,-0.144,-0.966,0.79,1.27,-0.33,49.27949052724601,-122.90342778138915,338.09790853317827,0.6452675223268153
2024-07-23 19:13:52.1180,-0.036,-0.116,-0.939,0.79,1.27,-0.33,49.27949052724601,-122.90342778138915,338.09790853317827,0.6452675223268153
2024-07-23 19:13:52.1280,-0.053,-0.05,-0.976,0.54,1.02,-0.6,49.27949052724601,-122.90342778138915,338.09790853317827,0.6452675223268153
2024-07-23 19:13:52.1380,-0.06,-0.037,-1.028,0.72,0.39,-0.24,49.27949052724601,-122.90342778138915,338.09790853317827,0.6452675223268153
2024-07-23 19:13:52.1480,-0.061,-0.043,-1.074,0.81,0.27,0.27,49.27949052724601,-122.90342778138915,338.09790853317827,0.6452675223268153
2024-07-23 19:13:52.1580,-0.076,-0.065,-1.107,0.83,0.35,0.72,49.27949297593085,-122.90343239855277,337.70743897370994,0.47047538803034167
2024-07-23 19:13:52.1680,-0.103,-0.134,-1.129,0.99,0.6,1.05,49.27949297593085,-122.90343239855277,337.70743897370994,0.47047538803034167
2024-07-23 19:13:52.1790,-0.091,-0.158,-1.11,1.27,1.31,1.26,49.27949297593085,-122.90343239855277,337.70743897370994,0.47047538803034167
2024-07-23 19:13:52.1880,-0.087,-0.122,-1.099,1.16,1.58,1.08,49.27949297593085,-122.90343239855277,337.70743897370994,0.47047538803034167
2024-07-23 19:13:52.1980,-0.099,-0.087,-1.061,1.12,1.27,0.98,49.27949297593085,-122.90343239855277,337.70743897370994,0.47047538803034167
2024-07-23 19:13:52.2080,-0.106,-0.078,-0.976,1.33,0.91,-0.23,49.27949297593085,-122.90343239855277,337.70743897370994,0.47047538803034167
2024-07-23 19:13:52.2180,-0.106,-0.099,-0.905,1.4,1.15,-0.92,49.27949297593085,-122.90343239855277,337.70743897370994,0.47047538803034167
2024-07-23 19:13:52.2290,-0.104,-0.064,-0.912,1.45,0.85,-0.85,49.27949297593085,-122.90343239855277,337.70743897370994,0.47047538803034167
2024-07-23 19:13:52.2390,-0.105,-0.063,-0.923,1.45,0.85,-0.85,49.27949297593085,-122.90343239855277,337.70743897370994,0.47047538803034167
2024-07-23 19:13:52.2490,-0.085,-0.075,-0.924,1.48,1.02,-0.73,49.27949297593085,-122.90343239855277,337.70743897370994,0.47047538803034167
2024-07-23 19:13:52.2590,-0.061,-0.094,-0.975,1.48,1.02,-0.73,49.27949297593085,-122.90343239855277,337.70743897370994,0.47047538803034167
2024-07-23 19:13:52.2690,-0.034,-0.084,-0.99,1.17,1.2,-0.06,49.27949297593085,-122.90343239855277,337.70743897370994,0.47047538803034167
2024-07-23 19:13:52.2790,-0.031,-0.051,-0.96,1.17,1.2,-0.06,49.27949297593085,-122.90343239855277,337.70743897370994,0.47047538803034167
2024-07-23 19:13:52.2890,-0.031,-0.001,-0.963,1.23,0.92,-0.34,49.27949297593085,-122.90343239855277,337.70743897370994,0.47047538803034167
2024-07-23 19:13:52.3000,0.003,0.043,-0.997,1.32,0.07711117967963219,0.03928217947483063,49.27949297593085,-122.90343239855277,337.70743897370994,0.47047538803034167
2024-07-23 19:13:52.3110,0.017,0.093,-1.026,1.04,0.07,0.03,49.27949297593085,-122.90343239855277,337.70743897370994,0.47047538803034167
2024-07-23 19:13:52.3200,0.051,0.146,-1.04,0.94,-0.42,0.32,49.27949297593085,-122.90343239855277,337.70743897370994,0.47047538803034167
2024-07-23 19:13:52.3300,0.118,0.172,-1.02,0.63,-0.96,0.47,49.27949297593085,-122.90343239855277,337.70743897370994,0.47047538803034167
2024-07-23 19:13:52.3400,0.186,0.205,-0.985,-0.01,-1.27,0.27,49.27949297593085,-122.90343239855277,337.70743897370994,0.47047538803034167
2024-07-23 19:13:52.3500,0.238,0.215,-0.986,-1.13,-1.86,-0.06,49.27949297593085,-122.90343239855277,337.70743897370994,0.47047538803034167
2024-07-23 19:13:52.3620,0.222,0.196,-1.03,-1.13,-1.86,-0.06,49.27949297593085,-122.90343239855277,337.70743897370994,0.47047538803034167
2024-07-23 19:13:52.3700,0.172,0.182,-1.08,-0.93,-1.77,0.38,49.27949297593085,-122.90343239855277,337.70743897370994,0.47047538803034167
2024-07-23 19:13:52.3800,0.156,0.145,-1.113,-0.39,-1.72,0.86,49.27949297593085,-122.90343239855277,337.70743897370994,0.47047538803034167
2024-07-23 19:13:52.3910,0.187,0.108,-1.133,-0.42,-1.12,1.41,49.27949297593085,-122.90343239855277,337.70743897370994,0.47047538803034167
2024-07-23 19:13:52.4000,0.207,0.079,-1.183,-0.42,-1.12,1.41,49.27949297593085,-122.90343239855277,337.70743897370994,0.47047538803034167
2024-07-23 19:13:52.4100,0.236,0.056,-1.247,-0.56,-0.88,1.91,49.27949297593085,-122.90343239855277,337.70743897370994,0.47047538803034167
2024-07-23 19:13:52.4200,0.263,0.053,-1.25,-0.81,-0.68,2.53,49.27949297593085,-122.90343239855277,337.70743897370994,0.47047538803034167
2024-07-23 19:13:52.4310,0.271,0.09,-1.164,-1.05,-0.66,2.57,49.27949297593085,-122.90343239855277,337.70743897370994,0.47047538803034167
2024-07-23 19:13:52.4400,0.244,0.121,-1.061,-1.12,-1.02,1.73,49.27949297593085,-122.90343239855277,337.70743897370994,0.47047538803034167
2024-07-23 19:13:52.4510,0.215,0.115,-0.979,-0.55,-1.27,-0.08,49.27949297593085,-122.90343239855277,337.70743897370994,0.47047538803034167
2024-07-23 19:13:52.4610,0.191,0.115,-0.912,-0.55,-1.27,-0.08,49.27949297593085,-122.90343239855277,337.70743897370994,0.47047538803034167
2024-07-23 19:13:52.4710,0.177,0.1,-0.845,-0.15,-1.14,-1.39,49.27949297593085,-122.90343239855277,337.70743897370994,0.47047538803034167
2024-07-23 19:13:52.4810,0.16,0.061,-0.79,-0.15,-1.14,-1.39,49.27949297593085,-122.90343239855277,337.70743897370994,0.47047538803034167
2024-07-23 19:13:52.4910,0.147,0.025,-0.735,0.2,-0.48,-2.46,49.27949297593085,-122.90343239855277,337.70743897370994,0.47047538803034167
2024-07-23 19:13:52.5010,0.137,0.034,-0.711,0.2,-0.48,-2.46,49.27949297593085,-122.90343239855277,337.70743897370994,0.47047538803034167
2024-07-23 19:13:52.5110,0.132,0.04,-0.722,0.33,-0.62,-2.69,49.27949297593085,-122.90343239855277,337.70743897370994,0.47047538803034167
2024-07-23 19:13:52.5210,0.123,0.035,-0.732,0.41,-0.74,-2.57,49.27949297593085,-122.90343239855277,337.70743897370994,0.47047538803034167
2024-07-23 19:13:52.5310,0.124,0.031,-0.722,0.53,-0.81,-2.56,49.27949297593085,-122.90343239855277,337.70743897370994,0.47047538803034167
2024-07-23 19:13:52.5410,0.146,0.015,-0.722,0.31927069231867794,-0.7306037485599518,-2.5555337870121004,49.27949297593085,-122.90343239855277,337.70743897370994,0.47047538803034167
2024-07-23 19:13:52.5510,0.18,-0.023,-0.77,0.31,-0.74,-2.56,49.27949297593085,-122.90343239855277,337.70743897370994,0.47047538803034167
2024-07-23 19:13:52.5610,0.212,-0.109,-0.813,-0.02,-0.45,-2.08,49.27949297593085,-122.90343239855277,337.70743897370994,0.47047538803034167
2024-07-23 19:13:52.5710,0.242,-0.175,-0.849,-0.63,0.93,-1.29,49.27949297593085,-122.90343239855277,337.70743897370994,0.47047538803034167
2024-07-23 19:13:52.5810,0.253,-0.237,-0.855,-0.63,0.93,-1.29,49.27949297593085,-122.90343239855277,337.70743897370994,0.47047538803034167
2024-07-23 19:13:52.5910,0.397,-0.265,-0.745,-2.15,1.78,-2.32,49.27949297593085,-122.90343239855277,337.70743897370994,0.47047538803034167
2024-07-23 19:13:52.6010,0.572,-0.226,-0.696,-2.15,1.78,-2.32,49.27949297593085,-122.90343239855277,337.70743897370994,0.47047538803034167
2024-07-23 19:13:52.6120,0.327,-0.053,-0.803,-1.3776618951559068,-0.16,-1.75,49.27949297593085,-122.90343239855277,337.70743897370994,0.47047538803034167
2024-07-23 19:13:52.6220,0.164,0.175,-0.778,-1.38,-0.16,-1.75,49.27949297593085,-122.90343239855277,337.70743897370994,0.47047538803034167
2024-07-23 19:13:52.6310,0.199,0.357,-0.746,0.31,-2.25,-1.98,49.27949297593085,-122.90343239855277,337.70743897370994,0.47047538803034167
2024-07-23 19:13:52.6420,0.259,0.381,-0.765,0.08,-3.86,-2.27,49.27949297593085,-122.90343239855277,337.70743897370994,0.47047538803034167
2024-07-23 19:13:52.6520,0.25,0.275,-0.796,-0.37,-3.92,-2.06,49.27949297593085,-122.90343239855277,337.70743897370994,0.47047538803034167
2024-07-23 19:13:52.6610,0.203,0.222,-0.799,0.43,-2.0,-1.67,49.27949297593085,-122.90343239855277,337.70743897370994,0.47047538803034167
2024-07-23 19:13:52.6720,0.198,0.225,-0.706,0.57,-1.87,-2.56,49.27949297593085,-122.90343239855277,337.70743897370994,0.47047538803034167
2024-07-23 19:13:52.6820,0.139,0.244,-0.74,0.57,-1.87,-2.56,49.27949297593085,-122.90343239855277,337.70743897370994,0.47047538803034167
2024-07-23 19:13:52.6930,0.064,0.162,-0.747,1.92,-1.08,-2.14,49.27949297593085,-122.90343239855277,337.70743897370994,0.47047538803034167
2024-07-23 19:13:52.7020,-0.054,0.099,-0.641,2.99,-0.44,-3.19,49.27949297593085,-122.90343239855277,337.70743897370994,0.47047538803034167
2024-07-23 19:13:52.7130,-0.111,0.082,-0.46,3.44,-0.22,-5.0,49.27949297593085,-122.90343239855277,337.70743897370994,0.47047538803034167
2024-07-23 19:13:52.7240,-0.145,0.133,-0.263,3.67,-0.62,-6.95,49.27949297593085,-122.90343239855277,337.70743897370994,0.47047538803034167
2024-07-23 19:13:52.7320,-0.13,0.183,-0.164,3.43,-0.95,-7.93,49.27949297593085,-122.90343239855277,337.70743897370994,0.47047538803034167
2024-07-23 19:13:52.7430,-0.118,0.198,-0.209,3.21,-0.89,-7.49,49.27949297593085,-122.90343239855277,337.70743897370994,0.47047538803034167
2024-07-23 19:13:52.7530,-0.129,0.214,-0.332,3.2,-0.82,-6.27,49.27949297593085,-122.90343239855277,337.70743897370994,0.47047538803034167
2024-07-23 19:13:52.7630,-0.142,0.247,-0.497,3.17,-0.91,-4.65,49.27949297593085,-122.90343239855277,337.70743897370994,0.47047538803034167
2024-07-23 19:13:52.7730,-0.143,0.267,-0.609,3.17,-0.91,-4.65,49.27949297593085,-122.90343239855277,337.70743897370994,0.47047538803034167
2024-07-23 19:13:52.7830,-0.157,0.275,-0.655,2.99,-0.9,-3.55,49.27949297593085,-122.90343239855277,337.70743897370994,0.47047538803034167
2024-07-23 19:13:52.7920,-0.159,0.318,-0.686,2.64,-0.96,-2.79,49.27949297593085,-122.90343239855277,337.70743897370994,0.47047538803034167
2024-07-23 19:13:52.8030,-0.169,0.354,-0.697,2.64,-0.96,-2.79,49.27949297593085,-122.90343239855277,337.70743897370994,0.47047538803034167
2024-07-23 19:13:52.8130,-0.168,0.406,-0.733,2.21,-1.29,-2.23,49.27949297593085,-122.90343239855277,337.70743897370994,0.47047538803034167
2024-07-23 19:13:52.8230,-0.164,0.485,-0.873,1.93,-1.76,-0.78,49.27949297593085,-122.90343239855277,337.70743897370994,0.47047538803034167
2024-07-23 19:13:52.8340,-0.165,0.495,-1.07,1.7,-1.57,1.25,49.27949297593085,-122.90343239855277,337.70743897370994,0.47047538803034167
2024-07-23 19:13:52.8430,-0.171,0.545,-1.304,1.7,-1.57,1.25,49.27949297593085,-122.90343239855277,337.70743897370994,0.47047538803034167
2024-07-23 19:13:52.8530,-0.159,0.552,-1.447,1.12,-1.63,5.15,49.27949297593085,-122.90343239855277,337.70743897370994,0.47047538803034167
2024-07-23 19:13:52.8630,-0.139,0.494,-1.505,1.12,-1.63,5.15,49.27949297593085,-122.90343239855277,337.70743897370994,0.47047538803034167
2024-07-23 19:13:52.8740,-0.15,0.528,-1.556,0.63,-0.87,5.82,49.27949297593085,-122.90343239855277,337.70743897370994,0.47047538803034167
2024-07-23 19:13:52.8840,-0.184,0.571,-1.513,0.45,-1.03,6.43,49.27949297593085,-122.90343239855277,337.70743897370994,0.47047538803034167
2024-07-23 19:13:52.8930,-0.194,0.585,-1.504,0.36,-1.27,6.16,49.27949297593085,-122.90343239855277,337.70743897370994,0.47047538803034167
2024-07-23 19:13:52.9040,-0.211,0.559,-1.574,0.36,-1.27,6.16,49.27949297593085,-122.90343239855277,337.70743897370994,0.47047538803034167
2024-07-23 19:13:52.9140,-0.233,0.588,-1.659,0.3,-1.01,7.92,49.27949297593085,-122.90343239855277,337.70743897370994,0.47047538803034167
2024-07-23 19:13:52.9240,-0.22,0.552,-1.695,-0.03,-0.55,8.39,49.27949297593085,-122.90343239855277,337.70743897370994,0.47047538803034167
2024-07-23 19:13:52.9340,-0.205,0.495,-1.771,-0.37,0.1,9.24,49.27949297593085,-122.90343239855277,337.70743897370994,0.47047538803034167
2024-07-23 19:13:52.9440,-0.198,0.547,-1.826,-0.62,-0.35,9.88,49.27949297593085,-122.90343239855277,337.70743897370994,0.47047538803034167
2024-07-23 19:13:52.9540,-0.195,0.506,-1.802,-0.81,0.1,9.72,49.27949297593085,-122.90343239855277,337.70743897370994,0.47047538803034167
2024-07-23 19:13:52.9650,-0.236,0.572,-1.807,-0.81,0.1,9.72,49.27949297593085,-122.90343239855277,337.70743897370994,0.47047538803034167
2024-07-23 19:13:52.9750,-0.237,0.555,-1.741,-0.64,-0.34,9.24,49.27949297593085,-122.90343239855277,337.70743897370994,0.47047538803034167
2024-07-23 19:13:52.9850,-0.223,0.37,-1.673,-0.64,-0.34,9.24,49.27949297593085,-122.90343239855277,337.70743897370994,0.47047538803034167
2024-07-23 19:13:52.9950,-0.261,0.564,-1.748,-0.52,-0.44,9.35,49.27949297593085,-122.90343239855277,337.70743897370994,0.47047538803034167
2024-07-23 19:13:53.0050,-0.269,0.505,-1.712,-0.52,-0.44,9.35,49.27949297593085,-122.90343239855277,337.70743897370994,0.47047538803034167
2024-07-23 19:13:53.0150,-0.279,0.504,-1.705,-0.34,0.05,8.86,49.27949297593085,-122.90343239855277,337.70743897370994,0.47047538803034167
2024-07-23 19:13:53.0250,-0.279,0.5,-1.674,-0.32,0.02,8.5,49.27949297593085,-122.90343239855277,337.70743897370994,0.47047538803034167
2024-07-23 19:13:53.0360,-0.277,0.437,-1.621,-0.32,0.02,8.5,49.27949297593085,-122.90343239855277,337.70743897370994,0.47047538803034167
2024-07-23 19:13:53.0450,-0.273,0.455,-1.595,-0.33,0.25,7.58,49.27949297593085,-122.90343239855277,337.70743897370994,0.47047538803034167
2024-07-23 19:13:53.0550,-0.273,0.444,-1.547,-0.33,0.25,7.58,49.27949297593085,-122.90343239855277,337.70743897370994,0.47047538803034167
2024-07-23 19:13:53.0650,-0.252,0.465,-1.494,-0.44,-0.08,6.43,49.27949297593085,-122.90343239855277,337.70743897370994,0.47047538803034167
2024-07-23 19:13:53.0760,-0.272,0.423,-1.448,-0.44,-0.08,6.43,49.27949297593085,-122.90343239855277,337.70743897370994,0.47047538803034167
2024-07-23 19:13:53.0850,-0.269,0.414,-1.444,-0.17,0.2,5.88,49.27949297593085,-122.90343239855277,337.70743897370994,0.47047538803034167
2024-07-23 19:13:53.0950,-0.237,0.455,-1.467,-0.33,-0.4,5.87,49.27949297593085,-122.90343239855277,337.70743897370994,0.47047538803034167
2024-07-23 19:13:53.1060,-0.229,0.394,-1.456,-0.33,-0.4,5.87,49.27949297593085,-122.90343239855277,337.70743897370994,0.47047538803034167
2024-07-23 19:13:53.1160,-0.21,0.405,-1.418,-0.32,0.06,5.66,49.27949297593085,-122.90343239855277,337.70743897370994,0.47047538803034167
2024-07-23 19:13:53.1260,-0.221,0.29,-1.4,-0.26,0.78,4.95,49.27949297593085,-122.90343239855277,337.70743897370994,0.47047538803034167
2024-07-23 19:13:53.1360,-0.246,0.354,-1.433,-0.26,0.78,4.95,49.27949297593085,-122.90343239855277,337.70743897370994,0.47047538803034167
2024-07-23 19:13:53.1460,-0.296,0.439,-1.447,0.03,0.03,5.2,49.27949297593085,-122.90343239855277,337.70743897370994,0.47047538803034167
2024-07-23 19:13:53.1570,-0.286,0.399,-1.483,0.54,-0.94,5.29,49.27949297593085,-122.90343239855277,337.70743897370994,0.47047538803034167
2024-07-23 19:13:53.1670,-0.274,0.393,-1.487,0.38,-0.7,5.59,49.27949297593085,-122.90343239855277,337.70743897370994,0.47047538803034167
2024-07-23 19:13:53.1780,-0.288,0.454,-1.52,0.38,-0.7,5.59,49.2794953847534,-122.90342829850638,337.7775947730988,0.0
2024-07-23 19:13:53.1860,-0.283,0.507,-1.62,0.58,-1.39,5.86,49.2794953847534,-122.90342829850638,337.7775947730988,0.0
2024-07-23 19:13:53.1960,-0.275,0.517,-1.744,0.6,-2.28,7.93,49.2794953847534,-122.90342829850638,337.7775947730988,0.0
2024-07-23 19:13:53.2060,-0.26,0.561,-1.822,0.52,-2.89,8.64,49.2794953847534,-122.90342829850638,337.7775947730988,0.0
2024-07-23 19:13:53.2160,-0.205,0.569,-1.86,0.52,-2.89,8.64,49.2794953847534,-122.90342829850638,337.7775947730988,0.0
2024-07-23 19:13:53.2270,-0.136,0.502,-1.885,0.05,-3.18,8.93,49.2794953847534,-122.90342829850638,337.7775947730988,0.0
2024-07-23 19:13:53.2360,-0.122,0.47,-1.844,-0.56,-2.76,9.11,49.2794953847534,-122.90342829850638,337.7775947730988,0.0
2024-07-23 19:13:53.2460,-0.107,0.432,-1.778,-0.63,-2.69,8.64,49.2794953847534,-122.90342829850638,337.7775947730988,0.0
2024-07-23 19:13:53.2570,-0.062,0.285,-1.745,-0.69,-2.57,7.92,49.2794953847534,-122.90342829850638,337.7775947730988,0.0
2024-07-23 19:13:53.2670,-0.119,0.55,-1.652,-0.35,-4.28,6.57,49.2794953847534,-122.90342829850638,337.7775947730988,0.0
2024-07-23 19:13:53.2770,-0.089,0.418,-1.638,-0.35,-4.28,6.57,49.2794953847534,-122.90342829850638,337.7775947730988,0.0
2024-07-23 19:13:53.2870,-0.072,0.378,-1.604,-0.5,-3.28,6.38,49.2794953847534,-122.90342829850638,337.7775947730988,0.0
2024-07-23 19:13:53.2970,-0.101,0.465,-1.565,-0.53,-3.2,6.01,49.2794953847534,-122.90342829850638,337.7775947730988,0.0
2024-07-23 19:13:53.3070,-0.132,0.427,-1.509,-0.11,-4.37,5.6,49.2794953847534,-122.90342829850638,337.7775947730988,0.0
2024-07-23 19:13:53.3170,-0.13,0.321,-1.474,0.33,-4.31,5.03,49.2794953847534,-122.90342829850638,337.7775947730988,0.0
2024-07-23 19:13:53.3270,-0.163,0.444,-1.45,0.43,-3.59,4.69,49.2794953847534,-122.90342829850638,337.7775947730988,0.0
2024-07-23 19:13:53.3370,-0.282,0.498,-1.364,2.14,-5.97,3.65,49.2794953847534,-122.90342829850638,337.7775947730988,0.0
2024-07-23 19:13:53.3470,-0.248,0.306,-1.324,2.14,-5.97,3.65,49.2794953847534,-122.90342829850638,337.7775947730988,0.0
2024-07-23 19:13:53.3570,-0.286,0.393,-1.307,1.91,-4.42,3.29,49.2794953847534,-122.90342829850638,337.7775947730988,0.0
2024-07-23 19:13:53.3680,-0.333,0.389,-1.25,2.37,-5.62,3.18,49.2794953847534,-122.90342829850638,337.7775947730988,0.0
2024-07-23 19:13:53.3780,-0.354,0.348,-1.159,2.9,-5.96,2.69,49.2794953847534,-122.90342829850638,337.7775947730988,0.0
2024-07-23 19:13:53.3880,-0.348,0.344,-1.095,3.16,-5.96,1.9,49.2794953847534,-122.90342829850638,337.7775947730988,0.0
2024-07-23 19:13:53.3980,-0.34,0.323,-1.023,3.08,-6.53,0.81,49.2794953847534,-122.90342829850638,337.7775947730988,0.0
2024-07-23 19:13:53.4080,-0.302,0.262,-0.925,2.72,-6.31,0.0,49.2794953847534,-122.90342829850638,337.7775947730988,0.0
2024-07-23 19:13:53.4180,-0.259,0.168,-0.839,2.72,-6.31,0.0,49.2794953847534,-122.90342829850638,337.7775947730988,0.0
2024-07-23 19:13:53.4280,-0.235,0.082,-0.81,2.02,-5.22,-0.82,49.2794953847534,-122.90342829850638,337.7775947730988,0.0
2024-07-23 19:13:53.4380,-0.288,0.04,-0.822,2.51,-5.12,-0.54,49.2794953847534,-122.90342829850638,337.7775947730988,0.0
2024-07-23 19:13:53.4480,-0.371,0.041,-0.776,3.34077362626791,-5.415463095903397,-0.82,49.2794953847534,-122.90342829850638,337.7775947730988,0.0
2024-07-23 19:13:53.4580,-0.4,0.016,-0.742,3.68,-5.44,-0.99,49.2794953847534,-122.90342829850638,337.7775947730988,0.0
2024-07-23 19:13:53.4680,-0.384,-0.0,-0.717,3.68,-5.44,-0.99,49.2794953847534,-122.90342829850638,337.7775947730988,0.0
2024-07-23 19:13:53.4780,-0.332,-0.025,-0.699,3.62,-5.54,-1.07,49.2794953847534,-122.90342829850638,337.7775947730988,0.0
2024-07-23 19:13:53.4880,-0.293,-0.046,-0.679,3.23,-5.53,-1.09,49.2794953847534,-122.90342829850638,337.7775947730988,0.0
2024-07-23 19:13:53.4990,-0.265,-0.055,-0.65,2.96,-5.55,-1.1,49.2794953847534,-122.90342829850638,337.7775947730988,0.0
2024-07-23 19:13:53.5090,-0.225,-0.081,-0.616,2.5,-5.64,-1.37,49.2794953847534,-122.90342829850638,337.7775947730988,0.0
2024-07-23 19:13:53.5190,-0.188,-0.094,-0.531,2.5,-5.64,-1.37,49.2794953847534,-122.90342829850638,337.7775947730988,0.0
2024-07-23 19:13:53.5290,-0.138,-0.119,-0.412,2.22,-5.71,-2.02,49.2794953847534,-122.90342829850638,337.7775947730988,0.0
2024-07-23 19:13:53.5390,-0.089,-0.121,-0.302,1.79,-5.65,-3.0,49.2794953847534,-122.90342829850638,337.7775947730988,0.0
2024-07-23 19:13:53.5490,-0.05,-0.156,-0.224,1.04,-5.62,-4.51,49.2794953847534,-122.90342829850638,337.7775947730988,0.0
2024-07-23 19:13:53.5590,-0.031,-0.203,-0.137,0.92,-5.3,-5.2,49.2794953847534,-122.90342829850638,337.7775947730988,0.0
2024-07-23 19:13:53.5690,-0.042,-0.256,-0.046,1.1,-4.91,-5.93,49.2794953847534,-122.90342829850638,337.7775947730988,0.0
2024-07-23 19:13:53.5790,-0.074,-0.284,0.026,1.1,-4.91,-5.93,49.2794953847534,-122.90342829850638,337.7775947730988,0.0
2024-07-23 19:13:53.5890,-0.101,-0.32,0.084,1.51,-4.77,-6.47,49.2794953847534,-122.90342829850638,337.7775947730988,0.0
2024-07-23 19:13:53.5990,-0.119,-0.324,0.146,2.16,-4.59,-7.36,49.2794953847534,-122.90342829850638,337.7775947730988,0.0
2024-07-23 19:13:53.6100,-0.098,-0.35,0.192,2.06,-4.41,-7.68,49.2794953847534,-122.90342829850638,337.7775947730988,0.0
2024-07-23 19:13:53.6190,-0.062,-0.385,0.232,2.06,-4.41,-7.68,49.2794953847534,-122.90342829850638,337.7775947730988,0.0
2024-07-23 19:13:53.6290,-0.008,-0.44,0.275,1.44,-3.62,-8.31,49.2794953847534,-122.90342829850638,337.7775947730988,0.0
2024-07-23 19:13:53.6390,0.049,-0.483,0.295,1.44,-3.62,-8.31,49.2794953847534,-122.90342829850638,337.7775947730988,0.0
2024-07-23 19:13:53.6490,0.078,-0.498,0.314,0.89,-3.13,-8.51,49.2794953847534,-122.90342829850638,337.7775947730988,0.0
2024-07-23 19:13:53.6600,0.087,-0.464,0.323,0.89,-3.13,-8.51,49.2794953847534,-122.90342829850638,337.7775947730988,0.0
2024-07-23 19:13:53.6700,0.098,-0.444,0.326,0.99,-3.7,-8.47,49.2794953847534,-122.90342829850638,337.7775947730988,0.0
2024-07-23 19:13:53.6800,0.093,-0.431,0.34,0.99,-3.7,-8.47,49.2794953847534,-122.90342829850638,337.7775947730988,0.0
2024-07-23 19:13:53.6900,0.099,-0.423,0.369,1.23,-3.9,-8.79,49.2794953847534,-122.90342829850638,337.7775947730988,0.0
2024-07-23 19:13:53.7000,0.123,-0.435,0.38,1.23,-3.9,-8.79,49.2794953847534,-122.90342829850638,337.7775947730988,0.0
2024-07-23 19:13:53.7100,0.176,-0.469,0.359,1.11,-3.76,-8.88,49.2794953847534,-122.90342829850638,337.7775947730988,0.0
2024-07-23 19:13:53.7200,0.23,-0.497,0.326,0.69,-3.38,-8.69,49.2794953847534,-122.90342829850638,337.7775947730988,0.0
2024-07-23 19:13:53.7300,0.261,-0.493,0.273,0.25,-3.07,-8.37,49.2794953847534,-122.90342829850638,337.7775947730988,0.0
2024-07-23 19:13:53.7400,0.275,-0.493,0.238,0.03,-3.08,-7.87,49.2794953847534,-122.90342829850638,337.7775947730988,0.0
2024-07-23 19:13:53.7510,0.271,-0.496,0.229,-0.04,-3.05,-7.53,49.2794953847534,-122.90342829850638,337.7775947730988,0.0
2024-07-23 19:13:53.7610,0.253,-0.479,0.229,0.05,-3.0,-7.45,49.2794953847534,-122.90342829850638,337.7775947730988,0.0
2024-07-23 19:13:53.7710,0.253,-0.49,0.228,0.29,-3.02,-7.46,49.2794953847534,-122.90342829850638,337.7775947730988,0.0
2024-07-23 19:13:53.7810,0.248,-0.504,0.224,0.37,-2.87,-7.45,49.2794953847534,-122.90342829850638,337.7775947730988,0.0
2024-07-23 19:13:53.7910,0.246,-0.522,0.229,0.37,-2.87,-7.45,49.2794953847534,-122.90342829850638,337.7775947730988,0.0
2024-07-23 19:13:53.8000,0.247,-0.526,0.227,0.39,-2.66,-7.53,49.2794953847534,-122.90342829850638,337.7775947730988,0.0
2024-07-23 19:13:53.8110,0.262,-0.525,0.221,0.39,-2.59,-7.54,49.2794953847534,-122.90342829850638,337.7775947730988,0.0
2024-07-23 19:13:53.8210,0.284,-0.517,0.196,0.25,-2.56,-7.54,49.2794953847534,-122.90342829850638,337.7775947730988,0.0
2024-07-23 19:13:53.8310,0.304,-0.508,0.165,0.04,-2.6,-7.34,49.2794953847534,-122.90342829850638,337.7775947730988,0.0
2024-07-23 19:13:53.8410,0.325,-0.501,0.16,-0.16,-2.66,-7.09,49.2794953847534,-122.90342829850638,337.7775947730988,0.0
2024-07-23 19:13:53.8510,0.343,-0.483,0.128,-0.5716083070635796,-2.833239108324051,-6.827699577212334,49.2794953847534,-122.90342829850638,337.7775947730988,0.0
2024-07-23 19:13:53.8610,0.339,-0.452,0.09,-0.58,-3.12,-6.52,49.2794953847534,-122.90342829850638,337.7775947730988,0.0
2024-07-23 19:13:53.8720,0.314,-0.409,0.087,-0.58,-3.12,-6.52,49.2794953847534,-122.90342829850638,337.7775947730988,0.0
2024-07-23 19:13:53.8810,0.3,-0.382,0.066,-0.39,-3.51,-6.56,49.2794953847534,-122.90342829850638,337.7775947730988,0.0
2024-07-23 19:13:53.8910,0.309,-0.372,0.029,-0.48,-3.79,-6.15,49.2794953847534,-122.90342829850638,337.7775947730988,0.0
2024-07-23 19:13:53.9010,0.315,-0.359,-0.001,-0.48,-3.79,-6.15,49.2794953847534,-122.90342829850638,337.7775947730988,0.0
2024-07-23 19:13:53.9120,0.279,-0.299,-0.044,-0.37,-4.44,-5.6,49.2794953847534,-122.90342829850638,337.7775947730988,0.0
2024-07-23 19:13:53.9220,0.232,-0.227,-0.073,-0.37,-4.44,-5.6,49.2794953847534,-122.90342829850638,337.7775947730988,0.0
2024-07-23 19:13:53.9320,0.269,-0.248,-0.109,-0.02,-5.11,-5.4,49.2794953847534,-122.90342829850638,337.7775947730988,0.0
2024-07-23 19:13:53.9420,0.342,-0.315,-0.138,-0.5,-4.88,-5.12,49.2794953847534,-122.90342829850638,337.7775947730988,0.0
2024-07-23 19:13:53.9520,0.349,-0.296,-0.148,-1.33,-4.19,-4.91,49.2794953847534,-122.90342829850638,337.7775947730988,0.0
2024-07-23 19:13:53.9620,0.32,-0.249,-0.141,-1.54,-4.34,-4.89,49.2794953847534,-122.90342829850638,337.7775947730988,0.0
2024-07-23 19:13:53.9720,0.266,-0.223,-0.16,-1.41,-4.77,-5.06,49.2794953847534,-122.90342829850638,337.7775947730988,0.0
2024-07-23 19:13:53.9820,0.181,-0.18,-0.169,-1.04,-4.97,-4.95,49.2794953847534,-122.90342829850638,337.7775947730988,0.0
2024-07-23 19:13:53.9920,0.083,-0.114,-0.18,0.42,-5.94,-4.95,49.2794953847534,-122.90342829850638,337.7775947730988,0.0
2024-07-23 19:13:54.0020,-0.032,-0.036,-0.199,1.4,-6.63,-4.86,49.2794953847534,-122.90342829850638,337.7775947730988,0.0
2024-07-23 19:13:54.0120,-0.115,0.038,-0.222,1.4,-6.63,-4.86,49.2794953847534,-122.90342829850638,337.7775947730988,0.0
2024-07-23 19:13:54.0230,-0.143,0.086,-0.267,2.1,-7.28,-4.73,49.2794953847534,-122.90342829850638,337.7775947730988,0.0
2024-07-23 19:13:54.0330,-0.131,0.099,-0.298,2.09,-7.71,-4.17,49.2794953847534,-122.90342829850638,337.7775947730988,0.0
2024-07-23 19:13:54.0430,-0.111,0.123,-0.346,2.09,-7.71,-4.17,49.2794953847534,-122.90342829850638,337.7775947730988,0.0
2024-07-23 19:13:54.0530,-0.101,0.168,-0.376,1.81,-7.86,-3.79,49.2794953847534,-122.90342829850638,337.7775947730988,0.0
2024-07-23 19:13:54.0630,-0.1,0.199,-0.381,1.62,-8.19,-3.6,49.2794953847534,-122.90342829850638,337.7775947730988,0.0
2024-07-23 19:13:54.0730,-0.122,0.223,-0.409,1.51,-8.38,-3.67,49.2794953847534,-122.90342829850638,337.7775947730988,0.0
2024-07-23 19:13:54.0830,-0.184,0.258,-0.427,2.1,-8.62,-3.5,49.2794953847534,-122.90342829850638,337.7775947730988,0.0
2024-07-23 19:13:54.0930,-0.247,0.292,-0.462,2.1,-8.62,-3.5,49.2794953847534,-122.90342829850638,337.7775947730988,0.0
2024-07-23 19:13:54.1030,-0.331,0.345,-0.517,2.62,-8.75,-3.32,49.2794953847534,-122.90342829850638,337.7775947730988,0.0
2024-07-23 19:13:54.1130,-0.391,0.402,-0.572,3.37,-9.03,-2.96,49.2794953847534,-122.90342829850638,337.7775947730988,0.0
2024-07-23 19:13:54.1230,-0.423,0.457,-0.692,3.91,-9.31,-2.61,49.2794953847534,-122.90342829850638,337.7775947730988,0.0
2024-07-23 19:13:54.1330,-0.435,0.492,-0.819,4.28,-9.53,-0.59,49.2794953847534,-122.90342829850638,337.7775947730988,0.0
2024-07-23 19:13:54.1430,-0.395,0.441,-0.906,3.84,-8.68,0.09,49.2794953847534,-122.90342829850638,337.7775947730988,0.0
2024-07-23 19:13:54.1540,-0.385,0.432,-1.034,3.65,-8.25,1.18,49.2794953847534,-122.90342829850638,337.7775947730988,0.0
2024-07-23 19:13:54.1640,-0.377,0.412,-1.142,3.65,-8.25,1.18,49.2794953847534,-122.90342829850638,337.7775947730988,0.0
2024-07-23 19:13:54.1750,-0.427,0.42,-1.194,3.43,-7.73,2.11,49.27951113979691,-122.90343001678741,339.450110594742,0.7935060085604101
2024-07-23 19:13:54.1830,-0.519,0.454,-1.212,3.73,-7.52,2.52,49.27951113979691,-122.90343001678741,339.450110594742,0.7935060085604101
2024-07-23 19:13:54.1940,-0.592,0.447,-1.205,4.43,-7.57,2.6,49.27951113979691,-122.90343001678741,339.450110594742,0.7935060085604101
2024-07-23 19:13:54.2040,-0.686,0.499,-1.249,4.93,-7.21,2.46,49.27951113979691,-122.90343001678741,339.450110594742,0.7935060085604101
2024-07-23 19:13:54.2140,-0.698,0.546,-1.227,5.63,-7.45,2.52,49.27951113979691,-122.90343001678741,339.450110594742,0.7935060085604101
2024-07-23 19:13:54.2240,-0.631,0.479,-1.237,5.63,-7.45,2.52,49.27951113979691,-122.90343001678741,339.450110594742,0.7935060085604101
2024-07-23 19:13:54.2340,-0.58,0.537,-1.336,4.87,-6.35,2.54,49.27951113979691,-122.90343001678741,339.450110594742,0.7935060085604101
2024-07-23 19:13:54.2440,-0.524,0.634,-1.468,3.67,-6.91,4.72,49.27951113979691,-122.90343001678741,339.450110594742,0.7935060085604101
2024-07-23 19:13:54.2540,-0.484,0.652,-1.626,3.67,-6.91,4.72,49.27951113979691,-122.90343001678741,339.450110594742,0.7935060085604101
2024-07-23 19:13:54.2640,-0.47,0.618,-1.801,3.16,-6.63,6.27,49.27951113979691,-122.90343001678741,339.450110594742,0.7935060085604101
2024-07-23 19:13:54.2740,-0.49,0.535,-1.949,2.81,-5.87,8.02,49.27951113979691,-122.90343001678741,339.450110594742,0.7935060085604101
2024-07-23 19:13:54.2840,-0.55,0.475,-1.96,3.0000332736968995,-3.758476493060589,9.76,49.27951113979691,-122.90343001678741,339.450110594742,0.7935060085604101
2024-07-23 19:13:54.2950,-0.621,0.486,-1.883,3.0,-3.76,9.76,49.27951113979691,-122.90343001678741,339.450110594742,0.7935060085604101
2024-07-23 19:13:54.3050,-0.684,0.51,-1.816,3.39,-3.55,9.12,49.27951113979691,-122.90343001678741,339.450110594742,0.7935060085604101
2024-07-23 19:13:54.3150,-0.729,0.541,-1.77,3.76,-3.46,8.58,49.27951113979691,-122.90343001678741,339.450110594742,0.7935060085604101
2024-07-23 19:13:54.3250,-0.725,0.529,-1.776,3.88,-3.01,8.41,49.27951113979691,-122.90343001678741,339.450110594742,0.7935060085604101
2024-07-23 19:13:54.3350,-0.704,0.543,-1.827,3.88,-3.01,8.41,49.27951113979691,-122.90343001678741,339.450110594742,0.7935060085604101
2024-07-23 19:13:54.3450,-0.66,0.505,-1.878,3.58,-2.85,9.02,49.27951113979691,-122.90343001678741,339.450110594742,0.7935060085604101
2024-07-23 19:13:54.3550,-0.636,0.451,-1.948,2.74,-1.42,10.45,49.27951113979691,-122.90343001678741,339.450110594742,0.7935060085604101
2024-07-23 19:13:54.3650,-0.626,0.41,-1.984,2.54,-0.79,10.93,49.27951113979691,-122.90343001678741,339.450110594742,0.7935060085604101
2024-07-23 19:13:54.3760,-0.622,0.372,-2.007,2.54,-0.79,10.93,49.27951113979691,-122.90343001678741,339.450110594742,0.7935060085604101
2024-07-23 19:13:54.3860,-0.636,0.355,-2.029,2.41,-0.21,11.27,49.27951113979691,-122.90343001678741,339.450110594742,0.7935060085604101
2024-07-23 19:13:54.3990,-0.631,0.358,-2.042,2.49,0.17,11.6,49.27951113979691,-122.90343001678741,339.450110594742,0.7935060085604101
2024-07-23 19:13:54.4090,-0.595,0.368,-1.998,2.43,0.33,11.82,49.27951113979691,-122.90343001678741,339.450110594742,0.7935060085604101
2024-07-23 19:13:54.4190,-0.512,0.379,-1.932,2.15,0.41,11.44,49.27951113979691,-122.90343001678741,339.450110594742,0.7935060085604101
2024-07-23 19:13:54.4250,-0.376,0.351,-1.884,1.47,0.45,10.81,49.27951113979691,-122.90343001678741,339.450110594742,0.7935060085604101
2024-07-23 19:13:54.4350,-0.229,0.316,-1.832,-0.95,1.33,9.83,49.27951113979691,-122.90343001678741,339.450110594742,0.7935060085604101
2024-07-23 19:13:54.4450,-0.094,0.276,-1.782,-0.95,1.33,9.83,49.27951113979691,-122.90343001678741,339.450110594742,0.7935060085604101
2024-07-23 19:13:54.4550,-0.036,0.348,-1.782,-2.11,1.83,9.33,49.27951113979691,-122.90343001678741,339.450110594742,0.7935060085604101
2024-07-23 19:13:54.4660,0.034,0.28,-1.712,-2.55,1.2,9.32,49.27951113979691,-122.90343001678741,339.450110594742,0.7935060085604101
2024-07-23 19:13:54.4750,0.041,0.285,-1.672,-3.14,1.93,8.64,49.27951113979691,-122.90343001678741,339.450110594742,0.7935060085604101
2024-07-23 19:13:54.4850,0.031,0.288,-1.616,-3.15,1.92,8.25,49.27951113979691,-122.90343001678741,339.450110594742,0.7935060085604101
2024-07-23 19:13:54.4960,-0.003,0.292,-1.559,-2.69,1.87,7.14,49.27951113979691,-122.90343001678741,339.450110594742,0.7935060085604101
2024-07-23 19:13:54.5060,-0.054,0.331,-1.508,-2.69,1.87,7.14,49.27951113979691,-122.90343001678741,339.450110594742,0.7935060085604101
2024-07-23 19:13:54.5160,-0.113,0.361,-1.469,-1.62,1.17,6.25,49.27951113979691,-122.90343001678741,339.450110594742,0.7935060085604101
2024-07-23 19:13:54.5260,-0.164,0.365,-1.431,-1.15,1.11,5.87,49.27951113979691,-122.90343001678741,339.450110594742,0.7935060085604101
2024-07-23 19:13:54.5360,-0.215,0.382,-1.401,-1.15,1.11,5.87,49.27951113979691,-122.90343001678741,339.450110594742,0.7935060085604101
2024-07-23 19:13:54.5460,-0.266,0.369,-1.356,-0.68,0.91,5.57,49.27951113979691,-122.90343001678741,339.450110594742,0.7935060085604101
2024-07-23 19:13:54.5560,-0.353,0.479,-1.347,-0.22,1.01,5.13,49.27951113979691,-122.90343001678741,339.450110594742,0.7935060085604101
2024-07-23 19:13:54.5670,-0.385,0.557,-1.324,0.59,-0.09,5.04,49.27951113979691,-122.90343001678741,339.450110594742,0.7935060085604101
2024-07-23 19:13:54.5770,-0.375,0.452,-1.313,0.72,0.16,4.73,49.27951113979691,-122.90343001678741,339.450110594742,0.7935060085604101
2024-07-23 19:13:54.5870,-0.399,0.535,-1.353,0.72,0.16,4.73,49.27951113979691,-122.90343001678741,339.450110594742,0.7935060085604101
2024-07-23 19:13:54.5960,-0.398,0.556,-1.359,0.94,-0.67,5.12,49.27951113979691,-122.90343001678741,339.450110594742,0.7935060085604101
2024-07-23 19:13:54.6070,-0.364,0.55,-1.38,0.62,-0.85,5.35,49.27951113979691,-122.90343001678741,339.450110594742,0.7935060085604101
2024-07-23 19:13:54.6170,-0.313,0.531,-1.37,0.13823665648698807,-0.71,5.23,49.27951113979691,-122.90343001678741,339.450110594742,0.7935060085604101
2024-07-23 19:13:54.6270,-0.262,0.49,-1.339,0.13,-0.71,5.23,49.27951113979691,-122.90343001678741,339.450110594742,0.7935060085604101
2024-07-23 19:13:54.6370,-0.222,0.448,-1.284,-0.68,0.02,4.32,49.27951113979691,-122.90343001678741,339.450110594742,0.7935060085604101
2024-07-23 19:13:54.6470,-0.191,0.413,-1.223,-0.68,0.02,4.32,49.27951113979691,-122.90343001678741,339.450110594742,0.7935060085604101
2024-07-23 19:13:54.6570,-0.169,0.383,-1.169,-0.93,0.32,3.67,49.27951113979691,-122.90343001678741,339.450110594742,0.7935060085604101
2024-07-23 19:13:54.6670,-0.158,0.364,-1.129,-1.1,0.56,3.1,49.27951113979691,-122.90343001678741,339.450110594742,0.7935060085604101
2024-07-23 19:13:54.6770,-0.164,0.358,-1.105,-1.14,0.69,2.66,49.27951113979691,-122.90343001678741,339.450110594742,0.7935060085604101
2024-07-23 19:13:54.6880,-0.169,0.357,-1.078,-1.01,0.69,2.37,49.27951113979691,-122.90343001678741,339.450110594742,0.7935060085604101
2024-07-23 19:13:54.6970,-0.179,0.355,-1.053,-0.74,0.56,1.75,49.27951113979691,-122.90343001678741,339.450110594742,0.7935060085604101
2024-07-23 19:13:54.7080,-0.203,0.366,-1.022,-0.74,0.56,1.75,49.27951113979691,-122.90343001678741,339.450110594742,0.7935060085604101
2024-07-23 19:13:54.7170,-0.223,0.376,-0.969,-0.44,0.37,1.38,49.27951113979691,-122.90343001678741,339.450110594742,0.7935060085604101
2024-07-23 19:13:54.7280,-0.251,0.392,-0.936,-0.2,0.17,0.8,49.27951113979691,-122.90343001678741,339.450110594742,0.7935060085604101
2024-07-23 19:13:54.7380,-0.3,0.417,-0.91,0.12,-0.08,0.42,49.27951113979691,-122.90343001678741,339.450110594742,0.7935060085604101
2024-07-23 19:13:54.7480,-0.34,0.44,-0.861,0.63,-0.42,0.13,49.27951113979691,-122.90343001678741,339.450110594742,0.7935060085604101
2024-07-23 19:13:54.7580,-0.377,0.437,-0.825,1.03,-0.74,-0.4,49.27951113979691,-122.90343001678741,339.450110594742,0.7935060085604101
2024-07-23 19:13:54.7680,-0.422,0.445,-0.807,1.85,-0.97,-1.0,49.27951113979691,-122.90343001678741,339.450110594742,0.7935060085604101
2024-07-23 19:13:54.7780,-0.43,0.454,-0.785,1.85,-0.97,-1.0,49.27951113979691,-122.90343001678741,339.450110594742,0.7935060085604101
2024-07-23 19:13:54.7880,-0.417,0.437,-0.783,1.95,-1.13,-1.25,49.27951113979691,-122.90343001678741,339.450110594742,0.7935060085604101
2024-07-23 19:13:54.7980,-0.4,0.427,-0.793,1.84,-1.03,-1.3,49.27951113979691,-122.90343001678741,339.450110594742,0.7935060085604101
2024-07-23 19:13:54.8080,-0.374,0.417,-0.806,1.69,-1.0,-1.23,49.27951113979691,-122.90343001678741,339.450110594742,0.7935060085604101
2024-07-23 19:13:54.8190,-0.357,0.399,-0.838,1.46,-0.94,-1.12,49.27951113979691,-122.90343001678741,339.450110594742,0.7935060085604101
2024-07-23 19:13:54.8280,-0.342,0.383,-0.845,1.1474719253182413,-0.68,-0.77,49.27951113979691,-122.90343001678741,339.450110594742,0.7935060085604101
2024-07-23 19:13:54.8390,-0.329,0.376,-0.88,1.14,-0.68,-0.77,49.27951113979691,-122.90343001678741,339.450110594742,0.7935060085604101
2024-07-23 19:13:54.8490,-0.308,0.361,-0.924,1.01,-0.64,-0.43,49.27951113979691,-122.90343001678741,339.450110594742,0.7935060085604101
2024-07-23 19:13:54.8590,-0.3,0.34,-0.947,0.82,-0.54,-0.01,49.27951113979691,-122.90343001678741,339.450110594742,0.7935060085604101
2024-07-23 19:13:54.8690,-0.276,0.332,-0.983,0.76,-0.37,0.2,49.27951113979691,-122.90343001678741,339.450110594742,0.7935060085604101
2024-07-23 19:13:54.8790,-0.244,0.302,-1.017,0.54,-0.32,0.53,49.27951113979691,-122.90343001678741,339.450110594742,0.7935060085604101
2024-07-23 19:13:54.8890,-0.234,0.289,-1.037,0.26,-0.06,0.84,49.27951113979691,-122.90343001678741,339.450110594742,0.7935060085604101
2024-07-23 19:13:54.9000,-0.193,0.235,-1.059,0.19,0.04,1.03,49.27951113979691,-122.90343001678741,339.450110594742,0.7935060085604101
2024-07-23 19:13:54.9090,-0.185,0.24,-1.132,-0.18,0.57,1.23,49.27951113979691,-122.90343001678741,339.450110594742,0.7935060085604101
2024-07-23 19:13:54.9190,-0.201,0.311,-1.232,-0.23,0.51,1.95,49.27951113979691,-122.90343001678741,339.450110594742,0.7935060085604101
2024-07-23 19:13:54.9290,-0.16,0.108,-1.221,-0.05,-0.17,2.92,49.27951113979691,-122.90343001678741,339.450110594742,0.7935060085604101
2024-07-23 19:13:54.9400,-0.161,0.167,-1.262,-0.3507770982384682,1.2056713092327118,3.195532005429268,49.27951113979691,-122.90343001678741,339.450110594742,0.7935060085604101
2024-07-23 19:13:54.9500,-0.193,0.29,-1.344,0.0,-0.06,3.97,49.27951113979691,-122.90343001678741,339.450110594742,0.7935060085604101
2024-07-23 19:13:54.9600,-0.153,0.206,-1.368,0.0,-0.06,3.97,49.27951113979691,-122.90343001678741,339.450110594742,0.7935060085604101
2024-07-23 19:13:54.9690,-0.144,0.21,-1.389,-0.41,0.52,4.33,49.27951113979691,-122.90343001678741,339.450110594742,0.7935060085604101
2024-07-23 19:13:54.9790,-0.138,0.182,-1.369,-0.44,0.67,4.1,49.27951113979691,-122.90343001678741,339.450110594742,0.7935060085604101
2024-07-23 19:13:54.9900,-0.168,0.213,-1.345,-0.13,0.23,3.82,49.27951113979691,-122.90343001678741,339.450110594742,0.7935060085604101
2024-07-23 19:13:55.0010,-0.163,0.191,-1.34,-0.13,0.23,3.82,49.27951113979691,-122.90343001678741,339.450110594742,0.7935060085604101
2024-07-23 19:13:55.0100,-0.174,0.246,-1.367,-0.16,0.3,3.74,49.27951113979691,-122.90343001678741,339.450110594742,0.7935060085604101
2024-07-23 19:13:55.0200,-0.154,0.079,-1.311,-0.04,-0.38,3.97,49.27951113979691,-122.90343001678741,339.450110594742,0.7935060085604101
2024-07-23 19:13:55.0300,-0.162,0.085,-1.269,-0.21,1.12,3.38,49.27951113979691,-122.90343001678741,339.450110594742,0.7935060085604101
2024-07-23 19:13:55.0400,-0.234,0.232,-1.36,0.65,-0.72,3.79,49.27951113979691,-122.90343001678741,339.450110594742,0.7935060085604101
2024-07-23 19:13:55.0510,-0.223,0.107,-1.39,0.65,-0.72,3.79,49.27951113979691,-122.90343001678741,339.450110594742,0.7935060085604101
2024-07-23 19:13:55.0600,-0.211,0.059,-1.335,0.59,0.32,4.05,49.27951113979691,-122.90343001678741,339.450110594742,0.7935060085604101
2024-07-23 19:13:55.0700,-0.257,0.138,-1.368,1.03,-0.42,3.76,49.27951113979691,-122.90343001678741,339.450110594742,0.7935060085604101
2024-07-23 19:13:55.0800,-0.227,0.058,-1.398,1.03,-0.42,3.76,49.27951113979691,-122.90343001678741,339.450110594742,0.7935060085604101
2024-07-23 19:13:55.0900,-0.215,0.029,-1.359,0.73,0.17,3.63,49.27951113979691,-122.90343001678741,339.450110594742,0.7935060085604101
2024-07-23 19:13:55.1000,-0.25,0.085,-1.387,0.73,0.17,3.63,49.27951113979691,-122.90343001678741,339.450110594742,0.7935060085604101
2024-07-23 19:13:55.1100,-0.222,0.015,-1.378,1.13,-0.63,3.88,49.27951113979691,-122.90343001678741,339.450110594742,0.7935060085604101
2024-07-23 19:13:55.1210,-0.253,0.074,-1.371,0.91,-0.19,3.78,49.27951113979691,-122.90343001678741,339.450110594742,0.7935060085604101
2024-07-23 19:13:55.1310,-0.253,0.035,-1.382,1.28,-1.01,3.71,49.27951113979691,-122.90343001678741,339.450110594742,0.7935060085604101
2024-07-23 19:13:55.1410,-0.291,0.099,-1.38,1.34,-0.87,3.83,49.27951113979691,-122.90343001678741,339.450110594742,0.7935060085604101
2024-07-23 19:13:55.1510,-0.275,0.035,-1.345,1.718568162471056,-1.34,3.47,49.27951113979691,-122.90343001678741,339.450110594742,0.7935060085604101
2024-07-23 19:13:55.1610,-0.286,0.053,-1.299,1.71,-1.34,3.47,49.27951113979691,-122.90343001678741,339.450110594742,0.7935060085604101
2024-07-23 19:13:55.1710,-0.278,0.056,-1.3,1.92,-1.74,3.04,49.27951113979691,-122.90343001678741,339.450110594742,0.7935060085604101
2024-07-23 19:13:55.1810,-0.241,-0.001,-1.254,1.95,-1.98,3.08,49.279515573498855,-122.90342591458042,337.2805497441441,0.5143118037677555
2024-07-23 19:13:55.1900,-0.241,0.029,-1.223,1.71,-1.63,2.64,49.279515573498855,-122.90342591458042,337.2805497441441,0.5143118037677555
2024-07-23 19:13:55.2010,-0.224,-0.008,-1.229,1.84,-2.12,2.37,49.279515573498855,-122.90342591458042,337.2805497441441,0.5143118037677555
2024-07-23 19:13:55.2110,-0.216,-0.007,-1.206,1.84,-2.17,2.28,49.279515573498855,-122.90342591458042,337.2805497441441,0.5143118037677555
2024-07-23 19:13:55.2220,-0.222,-0.015,-1.174,2.01,-2.29,2.01,49.279515573498855,-122.90342591458042,337.2805497441441,0.5143118037677555
2024-07-23 19:13:55.2320,-0.2,-0.029,-1.145,1.93,-2.34,1.77,49.279515573498855,-122.90342591458042,337.2805497441441,0.5143118037677555
2024-07-23 19:13:55.2420,-0.176,-0.016,-1.148,1.93,-2.34,1.77,49.279515573498855,-122.90342591458042,337.2805497441441,0.5143118037677555
2024-07-23 19:13:55.2510,-0.172,0.0,-1.133,1.82,-2.65,1.86,49.279515573498855,-122.90342591458042,337.2805497441441,0.5143118037677555
2024-07-23 19:13:55.2620,-0.167,-0.022,-1.085,1.92,-2.98,1.76,49.279515573498855,-122.90342591458042,337.2805497441441,0.5143118037677555
2024-07-23 19:13:55.2720,-0.16,0.015,-1.069,2.03,-2.92,1.35,49.279515573498855,-122.90342591458042,337.2805497441441,0.5143118037677555
2024-07-23 19:13:55.2820,-0.119,0.005,-1.094,1.92,-3.5,1.57,49.279515573498855,-122.90342591458042,337.2805497441441,0.5143118037677555
2024-07-23 19:13:55.2920,-0.08,-0.043,-1.087,1.92,-3.5,1.57,49.279515573498855,-122.90342591458042,337.2805497441441,0.5143118037677555
2024-07-23 19:13:55.3020,-0.03,-0.076,-1.083,1.71,-3.16,1.58,49.279515573498855,-122.90342591458042,337.2805497441441,0.5143118037677555
2024-07-23 19:13:55.3140,0.034,-0.103,-1.088,1.4,-2.96,1.6,49.279515573498855,-122.90342591458042,337.2805497441441,0.5143118037677555
2024-07-23 19:13:55.3220,0.078,-0.145,-1.077,0.63,-2.54,1.69,49.279515573498855,-122.90342591458042,337.2805497441441,0.5143118037677555
2024-07-23 19:13:55.3330,0.07,-0.136,-1.05,0.63,-2.54,1.69,49.279515573498855,-122.90342591458042,337.2805497441441,0.5143118037677555
2024-07-23 19:13:55.3420,0.046,-0.081,-0.987,0.82,-2.78,1.52,49.279515573498855,-122.90342591458042,337.2805497441441,0.5143118037677555
2024-07-23 19:13:55.3520,0.056,-0.133,-0.926,1.16,-3.47,0.99,49.279515573498855,-122.90342591458042,337.2805497441441,0.5143118037677555
2024-07-23 19:13:55.3630,0.059,-0.166,-0.826,1.13,-3.13,0.49,49.279515573498855,-122.90342591458042,337.2805497441441,0.5143118037677555
2024-07-23 19:13:55.3730,0.051,-0.159,-0.753,1.31,-3.22,-1.0,49.279515573498855,-122.90342591458042,337.2805497441441,0.5143118037677555
2024-07-23 19:13:55.3830,0.067,-0.205,-0.685,1.31,-3.22,-1.0,49.279515573498855,-122.90342591458042,337.2805497441441,0.5143118037677555
2024-07-23 19:13:55.3930,0.072,-0.23,-0.595,1.19,-2.94,-1.56,49.279515573498855,-122.90342591458042,337.2805497441441,0.5143118037677555
2024-07-23 19:13:55.4020,0.062,-0.247,-0.522,1.18,-2.85,-2.33,49.279515573498855,-122.90342591458042,337.2805497441441,0.5143118037677555
2024-07-23 19:13:55.4130,0.054,-0.256,-0.463,1.32,-2.82,-2.95,49.279515573498855,-122.90342591458042,337.2805497441441,0.5143118037677555
2024-07-23 19:13:55.4230,0.06,-0.263,-0.427,1.42,-2.85,-3.44,49.279515573498855,-122.90342591458042,337.2805497441441,0.5143118037677555
2024-07-23 19:13:55.4330,0.076,-0.274,-0.416,1.4,-2.87,-3.73,49.279515573498855,-122.90342591458042,337.2805497441441,0.5143118037677555
2024-07-23 19:13:55.4440,0.101,-0.292,-0.42,1.28,-2.85,-3.77,49.279515573498855,-122.90342591458042,337.2805497441441,0.5143118037677555
2024-07-23 19:13:55.4530,0.124,-0.312,-0.419,1.05,-2.73,-3.69,49.279515573498855,-122.90342591458042,337.2805497441441,0.5143118037677555
2024-07-23 19:13:55.4630,0.148,-0.334,-0.42,0.85,-2.57,-3.65,49.279515573498855,-122.90342591458042,337.2805497441441,0.5143118037677555
2024-07-23 19:13:55.4730,0.168,-0.341,-0.435,0.48,-2.33,-3.45,49.279515573498855,-122.90342591458042,337.2805497441441,0.5143118037677555
2024-07-23 19:13:55.4840,0.168,-0.332,-0.461,0.51,-2.44,-3.17,49.279515573498855,-122.90342591458042,337.2805497441441,0.5143118037677555
2024-07-23 19:13:55.4940,0.169,-0.34,-0.463,0.51,-2.44,-3.17,49.279515573498855,-122.90342591458042,337.2805497441441,0.5143118037677555
2024-07-23 19:13:55.5040,0.17,-0.349,-0.463,0.54,-2.39,-3.13,49.279515573498855,-122.90342591458042,337.2805497441441,0.5143118037677555
2024-07-23 19:13:55.5140,0.171,-0.349,-0.458,0.57,-2.32,-3.1,49.279515573498855,-122.90342591458042,337.2805497441441,0.5143118037677555
2024-07-23 19:13:55.5230,0.174,-0.361,-0.446,0.61,-2.35,-3.11,49.279515573498855,-122.90342591458042,337.2805497441441,0.5143118037677555
2024-07-23 19:13:55.5340,0.173,-0.381,-0.42,0.61,-2.25,-3.2,49.279515573498855,-122.90342591458042,337.2805497441441,0.5143118037677555
2024-07-23 19:13:55.5440,0.166,-0.387,-0.368,0.66,-2.1,-3.41,49.279515573498855,-122.90342591458042,337.2805497441441,0.5143118037677555
2024-07-23 19:13:55.5540,0.154,-0.364,-0.33,0.78,-2.05,-3.9,49.279515573498855,-122.90342591458042,337.2805497441441,0.5143118037677555
2024-07-23 19:13:55.5640,0.148,-0.345,-0.313,0.93,-2.29,-4.24,49.279515573498855,-122.90342591458042,337.2805497441441,0.5143118037677555
2024-07-23 19:13:55.5740,0.162,-0.327,-0.31,1.03,-2.48,-4.4,49.279515573498855,-122.90342591458042,337.2805497441441,0.5143118037677555
2024-07-23 19:13:55.5830,0.193,-0.311,-0.334,0.66,-2.75,-4.22,49.279515573498855,-122.90342591458042,337.2805497441441,0.5143118037677555
2024-07-23 19:13:55.5940,0.216,-0.305,-0.378,0.66,-2.75,-4.22,49.279515573498855,-122.90342591458042,337.2805497441441,0.5143118037677555
2024-07-23 19:13:55.6040,0.226,-0.298,-0.419,0.47,-2.76,-3.81,49.279515573498855,-122.90342591458042,337.2805497441441,0.5143118037677555
2024-07-23 19:13:55.6140,0.237,-0.304,-0.456,0.39,-2.79,-3.44,49.279515573498855,-122.90342591458042,337.2805497441441,0.5143118037677555
2024-07-23 19:13:55.6240,0.228,-0.307,-0.486,0.39,-2.66,-2.8,49.279515573498855,-122.90342591458042,337.2805497441441,0.5143118037677555
2024-07-23 19:13:55.6340,0.199,-0.309,-0.487,0.66,-2.65,-2.79,49.279515573498855,-122.90342591458042,337.2805497441441,0.5143118037677555
2024-07-23 19:13:55.6450,0.161,-0.314,-0.459,0.66,-2.65,-2.79,49.279515573498855,-122.90342591458042,337.2805497441441,0.5143118037677555
2024-07-23 19:13:55.6550,0.121,-0.314,-0.429,1.04,-2.63,-3.04,49.279515573498855,-122.90342591458042,337.2805497441441,0.5143118037677555
2024-07-23 19:13:55.6650,0.092,-0.312,-0.381,1.42,-2.66,-3.32,49.279515573498855,-122.90342591458042,337.2805497441441,0.5143118037677555
2024-07-23 19:13:55.6750,0.075,-0.319,-0.328,1.71,-2.71,-3.76,49.279515573498855,-122.90342591458042,337.2805497441441,0.5143118037677555
2024-07-23 19:13:55.6850,0.072,-0.323,-0.313,1.88,-2.67,-4.26,49.279515573498855,-122.90342591458042,337.2805497441441,0.5143118037677555
2024-07-23 19:13:55.6950,0.094,-0.328,-0.301,1.92,-2.66,-4.38,49.279515573498855,-122.90342591458042,337.2805497441441,0.5143118037677555
2024-07-23 19:13:55.7050,0.128,-0.339,-0.293,1.71,-2.62,-4.48,49.279515573498855,-122.90342591458042,337.2805497441441,0.5143118037677555
2024-07-23 19:13:55.7150,0.161,-0.361,-0.29,1.4,-2.52,-4.55,49.279515573498855,-122.90342591458042,337.2805497441441,0.5143118037677555
2024-07-23 19:13:55.7250,0.187,-0.383,-0.289,1.09,-2.31,-4.57,49.279515573498855,-122.90342591458042,337.2805497441441,0.5143118037677555
2024-07-23 19:13:55.7350,0.193,-0.384,-0.292,0.85,-2.09,-4.58,49.279515573498855,-122.90342591458042,337.2805497441441,0.5143118037677555
2024-07-23 19:13:55.7450,0.194,-0.378,-0.289,0.81,-2.07,-4.55,49.279515573498855,-122.90342591458042,337.2805497441441,0.5143118037677555
2024-07-23 19:13:55.7550,0.199,-0.364,-0.289,0.82,-2.12,-4.583959794044495,49.279515573498855,-122.90342591458042,337.2805497441441,0.5143118037677555
2024-07-23 19:13:55.7660,0.214,-0.351,-0.302,0.78,-2.24,-4.59,49.279515573498855,-122.90342591458042,337.2805497441441,0.5143118037677555
2024-07-23 19:13:55.7760,0.228,-0.358,-0.336,0.65,-2.35,-4.47,49.279515573498855,-122.90342591458042,337.2805497441441,0.5143118037677555
2024-07-23 19:13:55.7860,0.244,-0.365,-0.355,0.51,-2.25,-4.16,49.279515573498855,-122.90342591458042,337.2805497441441,0.5143118037677555
2024-07-23 19:13:55.7960,0.248,-0.368,-0.374,0.34,-2.16,-3.99,49.279515573498855,-122.90342591458042,337.2805497441441,0.5143118037677555
2024-07-23 19:13:55.8060,0.244,-0.375,-0.395,0.28,-2.11,-3.83,49.279515573498855,-122.90342591458042,337.2805497441441,0.5143118037677555
2024-07-23 19:13:55.8160,0.241,-0.388,-0.407,0.27,-2.02,-3.66,49.279515573498855,-122.90342591458042,337.2805497441441,0.5143118037677555
2024-07-23 19:13:55.8270,0.237,-0.411,-0.424,0.26,-1.87,-3.58,49.279515573498855,-122.90342591458042,337.2805497441441,0.5143118037677555
2024-07-23 19:13:55.8360,0.231,-0.432,-0.442,0.25,-1.4,-3.29,49.279515573498855,-122.90342591458042,337.2805497441441,0.5143118037677555
2024-07-23 19:13:55.8460,0.221,-0.445,-0.463,0.25,-1.4,-3.29,49.279515573498855,-122.90342591458042,337.2805497441441,0.5143118037677555
2024-07-23 19:13:55.8560,0.218,-0.467,-0.494,0.29,-1.25,-3.12,49.279515573498855,-122.90342591458042,337.2805497441441,0.5143118037677555
2024-07-23 19:13:55.8660,0.212,-0.483,-0.507,0.26,-1.01,-2.86,49.279515573498855,-122.90342591458042,337.2805497441441,0.5143118037677555
2024-07-23 19:13:55.8760,0.182,-0.473,-0.507,0.25,-0.83,-2.76,49.279515573498855,-122.90342591458042,337.2805497441441,0.5143118037677555
2024-07-23 19:13:55.8860,0.15,-0.449,-0.507,0.48,-0.9,-2.8,49.279515573498855,-122.90342591458042,337.2805497441441,0.5143118037677555
2024-07-23 19:13:55.8960,0.125,-0.432,-0.503,0.93,-1.26,-2.91,49.279515573498855,-122.90342591458042,337.2805497441441,0.5143118037677555
2024-07-23 19:13:55.9070,0.101,-0.404,-0.494,0.93,-1.26,-2.91,49.279515573498855,-122.90342591458042,337.2805497441441,0.5143118037677555
2024-07-23 19:13:55.9170,0.098,-0.384,-0.5,1.1,-1.52,-3.02,49.279515573498855,-122.90342591458042,337.2805497441441,0.5143118037677555
2024-07-23 19:13:55.9270,0.102,-0.365,-0.506,1.09,-1.69,-3.0,49.279515573498855,-122.90342591458042,337.2805497441441,0.5143118037677555
2024-07-23 19:13:55.9370,0.102,-0.34,-0.496,1.0,-1.86,-2.96,49.279515573498855,-122.90342591458042,337.2805497441441,0.5143118037677555
2024-07-23 19:13:55.9470,0.116,-0.342,-0.488,0.96,-2.09,-3.07,49.279515573498855,-122.90342591458042,337.2805497441441,0.5143118037677555
2024-07-23 19:13:55.9570,0.143,-0.355,-0.483,0.78,-2.07,-3.17,49.279515573498855,-122.90342591458042,337.2805497441441,0.5143118037677555
2024-07-23 19:13:55.9670,0.167,-0.377,-0.491,0.45,-1.93,-3.24,49.279515573498855,-122.90342591458042,337.2805497441441,0.5143118037677555
2024-07-23 19:13:55.9770,0.174,-0.402,-0.495,0.15,-1.7,-3.18,49.279515573498855,-122.90342591458042,337.2805497441441,0.5143118037677555
2024-07-23 19:13:55.9870,0.151,-0.405,-0.504,0.02,-1.45,-3.17,49.279515573498855,-122.90342591458042,337.2805497441441,0.5143118037677555
2024-07-23 19:13:55.9970,0.098,-0.382,-0.518,0.62,-1.6,-3.0,49.279515573498855,-122.90342591458042,337.2805497441441,0.5143118037677555
2024-07-23 19:13:56.0100,0.03,-0.336,-0.527,0.62,-1.6,-3.0,49.279515573498855,-122.90342591458042,337.2805497441441,0.5143118037677555
2024-07-23 19:13:56.0170,-0.04,-0.281,-0.541,1.22,-2.02,-2.95,49.279515573498855,-122.90342591458042,337.2805497441441,0.5143118037677555
2024-07-23 19:13:56.0270,-0.1,-0.227,-0.552,1.83,-2.52,-2.84,49.279515573498855,-122.90342591458042,337.2805497441441,0.5143118037677555
2024-07-23 19:13:56.0380,-0.133,-0.21,-0.582,2.36,-3.02,-2.77,49.279515573498855,-122.90342591458042,337.2805497441441,0.5143118037677555
2024-07-23 19:13:56.0480,-0.125,-0.258,-0.624,2.46,-2.6,-2.16,49.279515573498855,-122.90342591458042,337.2805497441441,0.5143118037677555
2024-07-23 19:13:56.0580,-0.089,-0.314,-0.649,2.46,-2.6,-2.16,49.279515573498855,-122.90342591458042,337.2805497441441,0.5143118037677555
2024-07-23 19:13:56.0680,-0.071,-0.322,-0.688,2.04,-1.98,-1.96,49.279515573498855,-122.90342591458042,337.2805497441441,0.5143118037677555
2024-07-23 19:13:56.0780,-0.066,-0.292,-0.7,1.79,-1.81,-1.64,49.279515573498855,-122.90342591458042,337.2805497441441,0.5143118037677555
2024-07-23 19:13:56.0880,-0.063,-0.265,-0.708,1.68,-2.02,-1.59,49.279515573498855,-122.90342591458042,337.2805497441441,0.5143118037677555
2024-07-23 19:13:56.0980,-0.072,-0.227,-0.734,1.58,-2.21,-1.56,49.279515573498855,-122.90342591458042,337.2805497441441,0.5143118037677555
2024-07-23 19:13:56.1080,-0.079,-0.207,-0.734,1.6,-2.5,-1.35,49.279515573498855,-122.90342591458042,337.2805497441441,0.5143118037677555
2024-07-23 19:13:56.1180,-0.067,-0.242,-0.743,1.59,-2.62,-1.4,49.279515573498855,-122.90342591458042,337.2805497441441,0.5143118037677555
2024-07-23 19:13:56.1280,-0.041,-0.308,-0.785,1.38,-2.19,-1.37,49.279515573498855,-122.90342591458042,337.2805497441441,0.5143118037677555
2024-07-23 19:13:56.1390,-0.029,-0.333,-0.807,0.81,-1.12,-0.85,49.279515573498855,-122.90342591458042,337.2805497441441,0.5143118037677555
2024-07-23 19:13:56.1490,-0.05,-0.315,-0.827,0.89,-1.2,-0.71,49.279515573498855,-122.90342591458042,337.2805497441441,0.5143118037677555
2024-07-23 19:13:56.1580,-0.085,-0.298,-0.842,0.89,-1.2,-0.71,49.279515573498855,-122.90342591458042,337.2805497441441,0.5143118037677555
2024-07-23 19:13:56.1680,-0.122,-0.277,-0.845,1.12,-1.27,-0.62,49.2795248454314,-122.90343955671,338.16818357259035,0.8422866149803561
2024-07-23 19:13:56.1780,-0.15,-0.267,-0.847,1.35,-1.38,-0.63,49.2795248454314,-122.90343955671,338.16818357259035,0.8422866149803561
2024-07-23 19:13:56.1880,-0.181,-0.269,-0.875,1.5,-1.38,-0.66,49.2795248454314,-122.90343955671,338.16818357259035,0.8422866149803561
2024-07-23 19:13:56.1980,-0.218,-0.235,-0.883,1.68,-1.25,-0.43,49.2795248454314,-122.90343955671,338.16818357259035,0.8422866149803561
2024-07-23 19:13:56.2090,-0.242,-0.208,-0.856,1.94,-1.48,-0.4,49.2795248454314,-122.90343955671,338.16818357259035,0.8422866149803561
2024-07-23 19:13:56.2210,-0.222,-0.213,-0.851,2.09,-1.64,-0.7,49.2795248454314,-122.90343955671,338.16818357259035,0.8422866149803561
2024-07-23 19:13:56.2290,-0.185,-0.215,-0.871,1.82,-1.48,-0.79,49.2795248454314,-122.90343955671,338.16818357259035,0.8422866149803561
2024-07-23 19:13:56.2390,-0.164,-0.223,-0.894,1.4,-1.34,-0.63,49.2795248454314,-122.90343955671,338.16818357259035,0.8422866149803561
2024-07-23 19:13:56.2490,-0.151,-0.207,-0.953,1.13,-1.13,-0.45,49.2795248454314,-122.90343955671,338.16818357259035,0.8422866149803561
2024-07-23 19:13:56.2590,-0.163,-0.196,-1.016,0.94,-1.14,0.07,49.2795248454314,-122.90343955671,338.16818357259035,0.8422866149803561
2024-07-23 19:13:56.2700,-0.169,-0.235,-1.005,0.99,-1.09,0.65,49.2795248454314,-122.90343955671,338.16818357259035,0.8422866149803561
2024-07-23 19:13:56.2790,-0.197,-0.226,-0.995,0.99,-0.55,0.49,49.2795248454314,-122.90343955671,338.16818357259035,0.8422866149803561
2024-07-23 19:13:56.2890,-0.195,-0.225,-0.995,1.23,-0.5,0.36,49.2795248454314,-122.90343955671,338.16818357259035,0.8422866149803561
2024-07-23 19:13:56.2990,-0.193,-0.187,-0.99,1.21,-0.64,0.24,49.2795248454314,-122.90343955671,338.16818357259035,0.8422866149803561
2024-07-23 19:13:56.3100,-0.178,-0.126,-0.987,1.21,-0.64,0.24,49.2795248454314,-122.90343955671,338.16818357259035,0.8422866149803561
2024-07-23 19:13:56.3200,-0.135,-0.187,-1.001,1.07,-1.12,0.17,49.2795248454314,-122.90343955671,338.16818357259035,0.8422866149803561
2024-07-23 19:13:56.3300,-0.108,-0.235,-1.003,0.67,-0.41,0.29,49.2795248454314,-122.90343955671,338.16818357259035,0.8422866149803561
2024-07-23 19:13:56.3400,-0.117,-0.21,-0.971,0.41,0.17,0.28,49.2795248454314,-122.90343955671,338.16818357259035,0.8422866149803561
2024-07-23 19:13:56.3500,-0.158,-0.178,-0.957,0.48,0.03,-0.05,49.2795248454314,-122.90343955671,338.16818357259035,0.8422866149803561
2024-07-23 19:13:56.3600,-0.204,-0.178,-0.923,0.86,-0.18,-0.21,49.2795248454314,-122.90343955671,338.16818357259035,0.8422866149803561
2024-07-23 19:13:56.3710,-0.258,-0.152,-0.885,1.27,-0.07,-0.56,49.2795248454314,-122.90343955671,338.16818357259035,0.8422866149803561
2024-07-23 19:13:56.3800,-0.268,-0.133,-0.876,1.76,-0.19,-0.95,49.2795248454314,-122.90343955671,338.16818357259035,0.8422866149803561
2024-07-23 19:13:56.3900,-0.248,-0.178,-0.914,1.83,-0.25,-1.07,49.2795248454314,-122.90343955671,338.16818357259035,0.8422866149803561
2024-07-23 19:13:56.4000,-0.214,-0.211,-0.949,1.6,0.35,-0.71,49.2795248454314,-122.90343955671,338.16818357259035,0.8422866149803561
2024-07-23 19:13:56.4100,-0.172,-0.199,-0.954,0.83,0.91,-0.36,49.2795248454314,-122.90343955671,338.16818357259035,0.8422866149803561
2024-07-23 19:13:56.4210,-0.181,-0.145,-1.025,0.83,0.91,-0.36,49.2795248454314,-122.90343955671,338.16818357259035,0.8422866149803561
2024-07-23 19:13:56.4300,-0.193,-0.119,-1.132,0.97,0.54,1.35,49.2795248454314,-122.90343955671,338.16818357259035,0.8422866149803561
2024-07-23 19:13:56.4410,-0.245,-0.082,-1.21,1.43,0.39,2.11,49.2795248454314,-122.90343955671,338.16818357259035,0.8422866149803561
2024-07-23 19:13:56.4510,-0.267,-0.067,-1.279,1.43,0.39,2.11,49.2795248454314,-122.90343955671,338.16818357259035,0.8422866149803561
2024-07-23 19:13:56.4600,-0.27,-0.109,-1.369,1.57,0.46,2.79,49.2795248454314,-122.90343955671,338.16818357259035,0.8422866149803561
2024-07-23 19:13:56.4710,-0.261,-0.138,-1.461,1.52,1.09,3.68,49.2795248454314,-122.90343955671,338.16818357259035,0.8422866149803561
2024-07-23 19:13:56.4810,-0.285,-0.097,-1.554,1.36,1.56,4.59,49.2795248454314,-122.90343955671,338.16818357259035,0.8422866149803561
2024-07-23 19:13:56.4910,-0.323,0.167,-1.652,1.52,1.32,5.52,49.2795248454314,-122.90343955671,338.16818357259035,0.8422866149803561
2024-07-23 19:13:56.5020,-0.235,0.062,-1.621,0.91,0.1,6.21,49.2795248454314,-122.90343955671,338.16818357259035,0.8422866149803561
2024-07-23 19:13:56.5110,-0.184,-0.027,-1.617,0.91,0.1,6.21,49.2795248454314,-122.90343955671,338.16818357259035,0.8422866149803561
2024-07-23 19:13:56.5220,-0.114,-0.01,-1.714,-0.29,1.14,7.15,49.2795248454314,-122.90343955671,338.16818357259035,0.8422866149803561
2024-07-23 19:13:56.5310,-0.163,0.088,-1.81,0.16,0.32,8.12,49.2795248454314,-122.90343955671,338.16818357259035,0.8422866149803561
2024-07-23 19:13:56.5410,-0.202,0.323,-1.886,0.16,0.32,8.12,49.2795248454314,-122.90343955671,338.16818357259035,0.8422866149803561
2024-07-23 19:13:56.5520,-0.155,0.111,-1.827,-0.01,0.32,8.34,49.2795248454314,-122.90343955671,338.16818357259035,0.8422866149803561
2024-07-23 19:13:56.5620,-0.19,0.168,-1.816,0.28,-0.15,8.25,49.2795248454314,-122.90343955671,338.16818357259035,0.8422866149803561
2024-07-23 19:13:56.5710,-0.204,0.248,-1.748,0.28,-0.15,8.25,49.2795248454314,-122.90343955671,338.16818357259035,0.8422866149803561
2024-07-23 19:13:56.5810,-0.179,0.108,-1.684,0.1,0.57,6.98,49.2795248454314,-122.90343955671,338.16818357259035,0.8422866149803561
2024-07-23 19:13:56.5910,-0.269,0.263,-1.705,0.1,0.57,6.98,49.2795248454314,-122.90343955671,338.16818357259035,0.8422866149803561
2024-07-23 19:13:56.6020,-0.338,0.474,-1.724,0.93,-0.89,7.21,49.2795248454314,-122.90343955671,338.16818357259035,0.8422866149803561
2024-07-23 19:13:56.6120,-0.323,0.183,-1.625,1.53,-2.89,7.42,49.2795248454314,-122.90343955671,338.16818357259035,0.8422866149803561
2024-07-23 19:13:56.6220,-0.415,0.193,-1.611,2.150709120333195,0.01,6.37,49.2795248454314,-122.90343955671,338.16818357259035,0.8422866149803561
2024-07-23 19:13:56.6320,-0.479,0.262,-1.544,2.15,0.01,6.37,49.2795248454314,-122.90343955671,338.16818357259035,0.8422866149803561
2024-07-23 19:13:56.6420,-0.497,0.178,-1.444,2.91,0.29,4.76,49.2795248454314,-122.90343955671,338.16818357259035,0.8422866149803561
2024-07-23 19:13:56.6520,-0.48,0.142,-1.394,2.91,0.29,4.76,49.2795248454314,-122.90343955671,338.16818357259035,0.8422866149803561
2024-07-23 19:13:56.6620,-0.436,0.105,-1.316,2.44,1.13,3.51,49.2795248454314,-122.90343955671,338.16818357259035,0.8422866149803561
2024-07-23 19:13:56.6720,-0.385,0.099,-1.249,2.05,1.25,2.85,49.2795248454314,-122.90343955671,338.16818357259035,0.8422866149803561
2024-07-23 19:13:56.6820,-0.331,0.116,-1.209,2.05,1.25,2.85,49.2795248454314,-122.90343955671,338.16818357259035,0.8422866149803561
2024-07-23 19:13:56.6920,-0.27,0.141,-1.16,1.21,0.97,1.96,49.2795248454314,-122.90343955671,338.16818357259035,0.8422866149803561
2024-07-23 19:13:56.7030,-0.212,0.156,-1.106,1.21,0.97,1.96,49.2795248454314,-122.90343955671,338.16818357259035,0.8422866149803561
2024-07-23 19:13:56.7130,-0.158,0.157,-1.057,0.38,0.93,0.95,49.2795248454314,-122.90343955671,338.16818357259035,0.8422866149803561
2024-07-23 19:13:56.7230,-0.104,0.152,-1.016,0.38,0.93,0.95,49.2795248454314,-122.90343955671,338.16818357259035,0.8422866149803561
2024-07-23 19:13:56.7330,-0.058,0.142,-0.988,-0.4,1.18,0.27,49.2795248454314,-122.90343955671,338.16818357259035,0.8422866149803561
2024-07-23 19:13:56.7430,-0.039,0.143,-0.989,-0.53,1.21,0.29,49.2795248454314,-122.90343955671,338.16818357259035,0.8422866149803561
2024-07-23 19:13:56.7530,-0.038,0.165,-0.983,-0.53,1.21,0.29,49.2795248454314,-122.90343955671,338.16818357259035,0.8422866149803561
2024-07-23 19:13:56.7630,-0.049,0.196,-0.966,-0.38,0.75,0.08,49.2795248454314,-122.90343955671,338.16818357259035,0.8422866149803561
2024-07-23 19:13:56.7730,-0.056,0.224,-0.948,-0.31,0.5,-0.09,49.2795248454314,-122.90343955671,338.16818357259035,0.8422866149803561
2024-07-23 19:13:56.7840,-0.053,0.244,-0.941,-0.34,0.33,-0.16,49.2795248454314,-122.90343955671,338.16818357259035,0.8422866149803561
2024-07-23 19:13:56.7930,-0.052,0.259,-0.942,-0.34,0.33,-0.16,49.2795248454314,-122.90343955671,338.16818357259035,0.8422866149803561
2024-07-23 19:13:56.8030,-0.052,0.284,-0.945,-0.36,0.21,-0.14,49.2795248454314,-122.90343955671,338.16818357259035,0.8422866149803561
2024-07-23 19:13:56.8130,-0.056,0.311,-0.963,-0.36,0.0,-0.1,49.2795248454314,-122.90343955671,338.16818357259035,0.8422866149803561
2024-07-23 19:13:56.8230,-0.058,0.328,-0.972,-0.33,-0.37,0.18,49.2795248454314,-122.90343955671,338.16818357259035,0.8422866149803561
2024-07-23 19:13:56.8340,-0.058,0.347,-0.987,-0.33,-0.37,0.18,49.2795248454314,-122.90343955671,338.16818357259035,0.8422866149803561
2024-07-23 19:13:56.8440,-0.064,0.357,-1.001,-0.28,-0.6,0.49,49.2795248454314,-122.90343955671,338.16818357259035,0.8422866149803561
2024-07-23 19:13:56.8540,-0.065,0.359,-1.005,-0.27,-0.6,0.54,49.2795248454314,-122.90343955671,338.16818357259035,0.8422866149803561
2024-07-23 19:13:56.8640,-0.06,0.36,-1.001,-0.27,-0.6,0.54,49.2795248454314,-122.90343955671,338.16818357259035,0.8422866149803561
2024-07-23 19:13:56.8740,-0.057,0.352,-0.99,-0.34,-0.52,0.4,49.2795248454314,-122.90343955671,338.16818357259035,0.8422866149803561
2024-07-23 19:13:56.8840,-0.055,0.342,-0.972,-0.34,-0.52,0.4,49.2795248454314,-122.90343955671,338.16818357259035,0.8422866149803561
2024-07-23 19:13:56.8940,-0.055,0.325,-0.95,-0.36,-0.41,0.22,49.2795248454314,-122.90343955671,338.16818357259035,0.8422866149803561
2024-07-23 19:13:56.9040,-0.051,0.301,-0.939,-0.37,0.0,-0.1,49.2795248454314,-122.90343955671,338.16818357259035,0.8422866149803561
2024-07-23 19:13:56.9140,-0.05,0.283,-0.931,-0.37,0.0,-0.1,49.2795248454314,-122.90343955671,338.16818357259035,0.8422866149803561
2024-07-23 19:13:56.9240,-0.054,0.277,-0.921,-0.38,0.24880282670259476,-0.2741092836856842,49.2795248454314,-122.90343955671,338.16818357259035,0.8422866149803561
2024-07-23 19:13:56.9340,-0.064,0.28,-0.914,-0.35,0.24,-0.28,49.2795248454314,-122.90343955671,338.16818357259035,0.8422866149803561
2024-07-23 19:13:56.9480,-0.07,0.277,-0.901,-0.22,0.24,-0.48,49.2795248454314,-122.90343955671,338.16818357259035,0.8422866149803561
2024-07-23 19:13:56.9540,-0.078,0.279,-0.901,-0.14,0.23,-0.47,49.2795248454314,-122.90343955671,338.16818357259035,0.8422866149803561
2024-07-23 19:13:56.9640,-0.085,0.28,-0.904,-0.14,0.23,-0.47,49.2795248454314,-122.90343955671,338.16818357259035,0.8422866149803561
2024-07-23 19:13:56.9740,-0.085,0.273,-0.905,-0.07,0.22,-0.45,49.2795248454314,-122.90343955671,338.16818357259035,0.8422866149803561
2024-07-23 19:13:56.9840,-0.081,0.262,-0.919,-0.06,0.3,-0.43,49.2795248454314,-122.90343955671,338.16818357259035,0.8422866149803561
2024-07-23 19:13:56.9940,-0.068,0.244,-0.945,-0.09,0.41,-0.29,49.2795248454314,-122.90343955671,338.16818357259035,0.8422866149803561
2024-07-23 19:13:57.0040,-0.048,0.221,-0.983,-0.4,0.83,0.34,49.2795248454314,-122.90343955671,338.16818357259035,0.8422866149803561
2024-07-23 19:13:57.0150,-0.036,0.22,-1.033,-0.4,0.83,0.34,49.2795248454314,-122.90343955671,338.16818357259035,0.8422866149803561
2024-07-23 19:13:57.0250,-0.029,0.23,-1.066,-0.5620867741853,0.75,1.16,49.2795248454314,-122.90343955671,338.16818357259035,0.8422866149803561
2024-07-23 19:13:57.0350,-0.025,0.217,-1.097,-0.6,0.88,1.46,49.2795248454314,-122.90343955671,338.16818357259035,0.8422866149803561
2024-07-23 19:13:57.0460,-0.036,0.21,-1.119,-0.48,0.94,1.67,49.2795248454314,-122.90343955671,338.16818357259035,0.8422866149803561
2024-07-23 19:13:57.0550,-0.048,0.203,-1.144,-0.48,0.94,1.67,49.2795248454314,-122.90343955671,338.16818357259035,0.8422866149803561
2024-07-23 19:13:57.0650,-0.055,0.194,-1.154,-0.25,1.09,2.01,49.2795248454314,-122.90343955671,338.16818357259035,0.8422866149803561
2024-07-23 19:13:57.0750,-0.067,0.173,-1.155,-0.25,1.09,2.01,49.2795248454314,-122.90343955671,338.16818357259035,0.8422866149803561
2024-07-23 19:13:57.0850,-0.069,0.138,-1.193,-0.1,1.3,2.02,49.2795248454314,-122.90343955671,338.16818357259035,0.8422866149803561
2024-07-23 19:13:57.0950,-0.056,0.126,-1.237,-0.08,1.84,2.84,49.2795248454314,-122.90343955671,338.16818357259035,0.8422866149803561
2024-07-23 19:13:57.1050,-0.05,0.136,-1.3,-0.08,1.84,2.84,49.2795248454314,-122.90343955671,338.16818357259035,0.8422866149803561
2024-07-23 19:13:57.1160,-0.027,0.142,-1.407,-0.22,1.79,4.53,49.2795248454314,-122.90343955671,338.16818357259035,0.8422866149803561
2024-07-23 19:13:57.1250,0.017,0.123,-1.503,-0.22,1.79,4.53,49.2795248454314,-122.90343955671,338.16818357259035,0.8422866149803561
2024-07-23 19:13:57.1350,0.118,-0.188,-1.668,-0.59,2.03,5.49,49.2795248454314,-122.90343955671,338.16818357259035,0.8422866149803561
2024-07-23 19:13:57.1460,0.079,0.128,-1.619,-1.09,1.97,6.62,49.2795248454314,-122.90343955671,338.16818357259035,0.8422866149803561
2024-07-23 19:13:57.1560,0.018,0.42,-1.634,-1.09,1.97,6.62,49.2795248454314,-122.90343955671,338.16818357259035,0.8422866149803561
2024-07-23 19:13:57.1660,0.007,0.371,-1.68,-0.46,-0.93,6.75,49.2795248454314,-122.90343955671,338.16818357259035,0.8422866149803561
2024-07-23 19:13:57.1800,0.046,0.313,-1.718,-0.31,-0.53,7.18,49.2795286885725,-122.90344502445103,336.75608935952187,0.6395670451771598
2024-07-23 19:13:57.1850,0.043,0.349,-1.731,-0.65,-0.07,7.51,49.2795286885725,-122.90344502445103,336.75608935952187,0.6395670451771598
2024-07-23 19:13:57.1980,0.014,0.395,-1.695,-0.58,-0.56,7.6,49.2795286885725,-122.90344502445103,336.75608935952187,0.6395670451771598
2024-07-23 19:13:57.2060,-0.026,0.408,-1.686,-0.24,-1.16,7.19,49.2795286885725,-122.90344502445103,336.75608935952187,0.6395670451771598
2024-07-23 19:13:57.2160,-0.046,0.395,-1.689,0.21,-1.45,7.06,49.2795286885725,-122.90344502445103,336.75608935952187,0.6395670451771598
2024-07-23 19:13:57.2260,-0.03,0.361,-1.655,0.45,-1.48,7.05,49.2795286885725,-122.90344502445103,336.75608935952187,0.6395670451771598
2024-07-23 19:13:57.2360,-0.022,0.418,-1.655,0.34,-1.3,6.68,49.2795286885725,-122.90344502445103,336.75608935952187,0.6395670451771598
2024-07-23 19:13:57.2460,-0.004,0.423,-1.651,0.32,-2.01,6.65,49.2795286885725,-122.90344502445103,336.75608935952187,0.6395670451771598
2024-07-23 19:13:57.2560,0.004,0.427,-1.644,0.22,-2.19,6.58,49.2795286885725,-122.90344502445103,336.75608935952187,0.6395670451771598
2024-07-23 19:13:57.2670,0.041,0.418,-1.613,0.23,-2.36,6.49,49.2795286885725,-122.90344502445103,336.75608935952187,0.6395670451771598
2024-07-23 19:13:57.2770,0.089,0.354,-1.595,-0.39,-1.91,5.96,49.2795286885725,-122.90344502445103,336.75608935952187,0.6395670451771598
2024-07-23 19:13:57.2870,0.126,0.367,-1.601,-0.39,-1.91,5.96,49.2795286885725,-122.90344502445103,336.75608935952187,0.6395670451771598
2024-07-23 19:13:57.2960,0.186,0.317,-1.579,-0.65,-2.18,6.01,49.2795286885725,-122.90344502445103,336.75608935952187,0.6395670451771598
2024-07-23 19:13:57.3070,0.237,0.221,-1.548,-1.16,-1.83,5.79,49.2795286885725,-122.90344502445103,336.75608935952187,0.6395670451771598
2024-07-23 19:13:57.3170,0.258,0.169,-1.507,-1.59,-1.05,5.46,49.2795286885725,-122.90344502445103,336.75608935952187,0.6395670451771598
2024-07-23 19:13:57.3270,0.242,0.154,-1.447,-1.77,-0.69,5.04,49.2795286885725,-122.90344502445103,336.75608935952187,0.6395670451771598
2024-07-23 19:13:57.3370,0.199,0.163,-1.394,-1.62,-0.71,4.44,49.2795286885725,-122.90344502445103,336.75608935952187,0.6395670451771598
2024-07-23 19:13:57.3470,0.122,0.172,-1.331,-0.54,-1.24,3.27,49.2795286885725,-122.90344502445103,336.75608935952187,0.6395670451771598
2024-07-23 19:13:57.3570,0.044,0.21,-1.245,-0.54,-1.24,3.27,49.2795286885725,-122.90344502445103,336.75608935952187,0.6395670451771598
2024-07-23 19:13:57.3670,-0.008,0.266,-1.163,0.14,-1.79,2.42,49.2795286885725,-122.90344502445103,336.75608935952187,0.6395670451771598
2024-07-23 19:13:57.3770,-0.063,0.282,-1.086,1.07,-2.84,0.85,49.2795286885725,-122.90344502445103,336.75608935952187,0.6395670451771598
2024-07-23 19:13:57.3870,-0.105,0.338,-1.035,1.07,-2.84,0.85,49.2795286885725,-122.90344502445103,336.75608935952187,0.6395670451771598
2024-07-23 19:13:57.3970,-0.136,0.321,-1.029,1.47,-3.54,0.35,49.2795286885725,-122.90344502445103,336.75608935952187,0.6395670451771598
2024-07-23 19:13:57.4080,-0.135,0.294,-1.016,1.77,-3.52,0.29,49.2795286885725,-122.90344502445103,336.75608935952187,0.6395670451771598
2024-07-23 19:13:57.4170,-0.144,0.296,-1.003,1.8,-3.39,0.18,49.2795286885725,-122.90344502445103,336.75608935952187,0.6395670451771598
2024-07-23 19:13:57.4270,-0.136,0.311,-0.982,1.96,-3.56,-0.1265103578567505,49.2795286885725,-122.90344502445103,336.75608935952187,0.6395670451771598
2024-07-23 19:13:57.4380,-0.101,0.31,-0.989,1.96,-3.86,-0.13,49.2795286885725,-122.90344502445103,336.75608935952187,0.6395670451771598
2024-07-23 19:13:57.4480,-0.056,0.285,-0.992,1.68,-4.02,-0.04,49.2795286885725,-122.90344502445103,336.75608935952187,0.6395670451771598
2024-07-23 19:13:57.4580,-0.038,0.273,-0.968,1.28,-3.94,0.01,49.2795286885725,-122.90344502445103,336.75608935952187,0.6395670451771598
2024-07-23 19:13:57.4680,-0.036,0.275,-0.947,1.04,-4.19,-0.38,49.2795286885725,-122.90344502445103,336.75608935952187,0.6395670451771598
2024-07-23 19:13:57.4780,-0.056,0.27,-0.913,1.04,-4.19,-0.38,49.2795286885725,-122.90344502445103,336.75608935952187,0.6395670451771598
2024-07-23 19:13:57.4880,-0.077,0.273,-0.838,1.23,-4.5,-1.41,49.2795286885725,-122.90344502445103,336.75608935952187,0.6395670451771598
2024-07-23 19:13:57.4980,-0.083,0.248,-0.782,1.23,-4.5,-1.41,49.2795286885725,-122.90344502445103,336.75608935952187,0.6395670451771598
2024-07-23 19:13:57.5080,-0.095,0.194,-0.736,1.16,-4.41,-1.94,49.2795286885725,-122.90344502445103,336.75608935952187,0.6395670451771598
2024-07-23 19:13:57.5180,-0.107,0.139,-0.697,1.17,-4.02,-2.36,49.2795286885725,-122.90344502445103,336.75608935952187,0.6395670451771598
2024-07-23 19:13:57.5280,-0.135,0.083,-0.688,1.19,-3.61,-2.72,49.2795286885725,-122.90344502445103,336.75608935952187,0.6395670451771598
2024-07-23 19:13:57.5380,-0.142,0.033,-0.674,1.43,-3.18,-2.78,49.2795286885725,-122.90344502445103,336.75608935952187,0.6395670451771598
2024-07-23 19:13:57.5480,-0.132,-0.013,-0.678,1.52,-2.81,-2.88,49.2795286885725,-122.90344502445103,336.75608935952187,0.6395670451771598
2024-07-23 19:13:57.5600,-0.113,-0.059,-0.696,1.39,-2.19,-2.59,49.2795286885725,-122.90344502445103,336.75608935952187,0.6395670451771598
2024-07-23 19:13:57.5700,-0.088,-0.1,-0.704,1.39,-2.19,-2.59,49.2795286885725,-122.90344502445103,336.75608935952187,0.6395670451771598
2024-07-23 19:13:57.5780,-0.063,-0.141,-0.708,1.26,-1.94,-2.45,49.2795286885725,-122.90344502445103,336.75608935952187,0.6395670451771598
2024-07-23 19:13:57.5880,-0.053,-0.183,-0.681,1.13,-1.71,-2.35,49.2795286885725,-122.90344502445103,336.75608935952187,0.6395670451771598
2024-07-23 19:13:57.5990,-0.043,-0.208,-0.64,1.15,-1.47,-2.55,49.2795286885725,-122.90344502445103,336.75608935952187,0.6395670451771598
2024-07-23 19:13:57.6090,-0.043,-0.204,-0.591,1.17,-1.41,-2.89,49.2795286885725,-122.90344502445103,336.75608935952187,0.6395670451771598
2024-07-23 19:13:57.6190,-0.052,-0.189,-0.543,1.27,-1.61,-3.29,49.2795286885725,-122.90344502445103,336.75608935952187,0.6395670451771598
2024-07-23 19:13:57.6290,-0.049,-0.195,-0.515,1.46,-1.9,-3.69,49.2795286885725,-122.90344502445103,336.75608935952187,0.6395670451771598
2024-07-23 19:13:57.6390,-0.046,-0.2,-0.498,1.51,-1.97,-3.9,49.2795286885725,-122.90344502445103,336.75608935952187,0.6395670451771598
2024-07-23 19:13:57.6490,-0.031,-0.193,-0.51,1.51,-2.21,-3.83,49.2795286885725,-122.90344502445103,336.75608935952187,0.6395670451771598
2024-07-23 19:13:57.6600,-0.008,-0.2,-0.533,1.51,-2.21,-3.83,49.2795286885725,-122.90344502445103,336.75608935952187,0.6395670451771598
2024-07-23 19:13:57.6690,0.019,-0.216,-0.553,1.36,-2.23,-3.55,49.2795286885725,-122.90344502445103,336.75608935952187,0.6395670451771598
2024-07-23 19:13:57.6790,0.051,-0.245,-0.575,1.17,-2.17,-3.3,49.2795286885725,-122.90344502445103,336.75608935952187,0.6395670451771598
2024-07-23 19:13:57.6900,0.07,-0.266,-0.585,0.93,-1.99,-3.02,49.2795286885725,-122.90344502445103,336.75608935952187,0.6395670451771598
2024-07-23 19:13:57.7000,0.076,-0.277,-0.586,0.8,-1.88,-2.79,49.2795286885725,-122.90344502445103,336.75608935952187,0.6395670451771598
2024-07-23 19:13:57.7100,0.068,-0.29,-0.581,0.8,-1.88,-2.79,49.2795286885725,-122.90344502445103,336.75608935952187,0.6395670451771598
2024-07-23 19:13:57.7200,0.052,-0.304,-0.54,0.92,-1.87,-2.76,49.2795286885725,-122.90344502445103,336.75608935952187,0.6395670451771598
2024-07-23 19:13:57.7300,0.054,-0.338,-0.478,1.12,-1.85,-3.1,49.2795286885725,-122.90344502445103,336.75608935952187,0.6395670451771598
2024-07-23 19:13:57.7400,0.059,-0.342,-0.448,1.16,-1.61,-3.63,49.2795286885725,-122.90344502445103,336.75608935952187,0.6395670451771598
2024-07-23 19:13:57.7500,0.071,-0.32,-0.46,1.12,-1.95,-3.69,49.2795286885725,-122.90344502445103,336.75608935952187,0.6395670451771598
2024-07-23 19:13:57.7600,0.096,-0.332,-0.495,1.12,-1.95,-3.69,49.2795286885725,-122.90344502445103,336.75608935952187,0.6395670451771598
2024-07-23 19:13:57.7710,0.125,-0.336,-0.537,0.94,-1.89,-3.29,49.2795286885725,-122.90344502445103,336.75608935952187,0.6395670451771598
2024-07-23 19:13:57.7800,0.147,-0.339,-0.597,0.72,-1.9,-2.83,49.2795286885725,-122.90344502445103,336.75608935952187,0.6395670451771598
2024-07-23 19:13:57.7900,0.172,-0.375,-0.621,0.55,-1.94,-2.19,49.2795286885725,-122.90344502445103,336.75608935952187,0.6395670451771598
2024-07-23 19:13:57.8000,0.167,-0.419,-0.621,0.34,-1.67,-1.89,49.2795286885725,-122.90344502445103,336.75608935952187,0.6395670451771598
2024-07-23 19:13:57.8100,0.119,-0.417,-0.604,0.42,-1.34,-1.82,49.2795286885725,-122.90344502445103,336.75608935952187,0.6395670451771598
2024-07-23 19:13:57.8210,0.107,-0.458,-0.568,0.91,-1.45,-1.91,49.2795286885725,-122.90344502445103,336.75608935952187,0.6395670451771598
2024-07-23 19:13:57.8310,0.095,-0.507,-0.538,1.05,-1.16,-2.18,49.2795286885725,-122.90344502445103,336.75608935952187,0.6395670451771598
2024-07-23 19:13:57.8410,0.088,-0.528,-0.522,1.18,-0.77,-2.4,49.2795286885725,-122.90344502445103,336.75608935952187,0.6395670451771598
2024-07-23 19:13:57.8510,0.1,-0.558,-0.519,1.27,-0.66,-2.426894457936287,49.2795286885725,-122.90344502445103,336.75608935952187,0.6395670451771598
2024-07-23 19:13:57.8610,0.118,-0.596,-0.511,1.19,-0.44,-2.43,49.2795286885725,-122.90344502445103,336.75608935952187,0.6395670451771598
2024-07-23 19:13:57.8710,0.13,-0.642,-0.489,1.03,-0.15,-2.44,49.2795286885725,-122.90344502445103,336.75608935952187,0.6395670451771598
2024-07-23 19:13:57.8810,0.138,-0.671,-0.46,0.95,0.22,-2.58,49.2795286885725,-122.90344502445103,336.75608935952187,0.6395670451771598
2024-07-23 19:13:57.8910,0.154,-0.691,-0.44,0.91,0.43,-2.8,49.2795286885725,-122.90344502445103,336.75608935952187,0.6395670451771598
2024-07-23 19:13:57.9010,0.166,-0.702,-0.423,0.79,0.55,-2.92,49.2795286885725,-122.90344502445103,336.75608935952187,0.6395670451771598
2024-07-23 19:13:57.9120,0.163,-0.689,-0.392,0.71,0.61,-3.02,49.2795286885725,-122.90344502445103,336.75608935952187,0.6395670451771598
2024-07-23 19:13:57.9210,0.154,-0.654,-0.356,0.92,0.02,-3.55,49.2795286885725,-122.90344502445103,336.75608935952187,0.6395670451771598
2024-07-23 19:13:57.9320,0.16,-0.628,-0.31,0.92,0.02,-3.55,49.2795286885725,-122.90344502445103,336.75608935952187,0.6395670451771598
2024-07-23 19:13:57.9410,0.175,-0.607,-0.262,0.7950356796383858,-0.5390360999107361,-4.34,49.2795286885725,-122.90344502445103,336.75608935952187,0.6395670451771598
2024-07-23 19:13:57.9510,0.208,-0.601,-0.212,0.5,-0.65,-4.78,49.2795286885725,-122.90344502445103,336.75608935952187,0.6395670451771598
2024-07-23 19:13:57.9610,0.267,-0.623,-0.169,0.5,-0.65,-4.78,49.2795286885725,-122.90344502445103,336.75608935952187,0.6395670451771598
2024-07-23 19:13:57.9710,0.318,-0.641,-0.136,-0.05,-0.48,-5.16,49.2795286885725,-122.90344502445103,336.75608935952187,0.6395670451771598
2024-07-23 19:13:57.9810,0.357,-0.647,-0.118,-0.53,-0.32,-5.44,49.2795286885725,-122.90344502445103,336.75608935952187,0.6395670451771598
2024-07-23 19:13:57.9920,0.395,-0.664,-0.129,-1.29,-0.12,-5.49,49.2795286885725,-122.90344502445103,336.75608935952187,0.6395670451771598
2024-07-23 19:13:58.0020,0.424,-0.69,-0.155,-1.29,-0.12,-5.49,49.2795286885725,-122.90344502445103,336.75608935952187,0.6395670451771598
2024-07-23 19:13:58.0120,0.415,-0.691,-0.178,-1.56,0.13,-5.03,49.2795286885725,-122.90344502445103,336.75608935952187,0.6395670451771598
2024-07-23 19:13:58.0220,0.378,-0.652,-0.188,-1.56,0.13,-5.03,49.2795286885725,-122.90344502445103,336.75608935952187,0.6395670451771598
2024-07-23 19:13:58.0320,0.33,-0.603,-0.194,-1.26,-0.27,-4.93,49.2795286885725,-122.90344502445103,336.75608935952187,0.6395670451771598
2024-07-23 19:13:58.0420,0.274,-0.544,-0.185,-0.87,-0.75,-4.89,49.2795286885725,-122.90344502445103,336.75608935952187,0.6395670451771598
2024-07-23 19:13:58.0530,0.216,-0.472,-0.167,0.09,-2.05,-5.2,49.2795286885725,-122.90344502445103,336.75608935952187,0.6395670451771598
2024-07-23 19:13:58.0630,0.185,-0.411,-0.154,0.09,-2.05,-5.2,49.2795286885725,-122.90344502445103,336.75608935952187,0.6395670451771598
2024-07-23 19:13:58.0720,0.18,-0.372,-0.157,0.31,-2.64,-5.36,49.2795286885725,-122.90344502445103,336.75608935952187,0.6395670451771598
2024-07-23 19:13:58.0820,0.192,-0.333,-0.185,0.29,-3.0,-5.38,49.2795286885725,-122.90344502445103,336.75608935952187,0.6395670451771598
2024-07-23 19:13:58.0920,0.213,-0.304,-0.219,0.1,-3.35,-5.15,49.2795286885725,-122.90344502445103,336.75608935952187,0.6395670451771598
2024-07-23 19:13:58.1020,0.217,-0.283,-0.275,-0.17,-3.6,-4.88,49.2795286885725,-122.90344502445103,336.75608935952187,0.6395670451771598
2024-07-23 19:13:58.1130,0.207,-0.23,-0.322,-0.28,-3.77,-3.9644771164655688,49.2795286885725,-122.90344502445103,336.75608935952187,0.6395670451771598
2024-07-23 19:13:58.1230,0.198,-0.193,-0.35,-0.26,-4.25,-3.97,49.2795286885725,-122.90344502445103,336.75608935952187,0.6395670451771598
2024-07-23 19:13:58.1330,0.184,-0.18,-0.366,-0.23,-4.58,-3.74,49.2795286885725,-122.90344502445103,336.75608935952187,0.6395670451771598
2024-07-23 19:13:58.1430,0.176,-0.166,-0.349,-0.17,-4.69,-3.62,49.2795286885725,-122.90344502445103,336.75608935952187,0.6395670451771598
2024-07-23 19:13:58.1560,0.182,-0.157,-0.343,-0.16,-4.81,-3.81,49.2795286885725,-122.90344502445103,336.75608935952187,0.6395670451771598
2024-07-23 19:13:58.1630,0.201,-0.179,-0.337,-0.28,-4.89,-3.9,49.2795286885725,-122.90344502445103,336.75608935952187,0.6395670451771598
2024-07-23 19:13:58.1730,0.218,-0.196,-0.339,-0.53,-4.65,-3.99,49.2795286885725,-122.90344502445103,336.75608935952187,0.6395670451771598
2024-07-23 19:13:58.1830,0.211,-0.179,-0.343,-0.76,-4.46,-4.01,49.2795286885725,-122.90344502445103,336.75608935952187,0.6395670451771598
2024-07-23 19:13:58.1930,0.196,-0.152,-0.342,-0.74,-4.58,-4.01,49.2795286885725,-122.90344502445103,336.75608935952187,0.6395670451771598
2024-07-23 19:13:58.2030,0.169,-0.117,-0.353,-0.65,-4.8,-4.07,49.2795286885725,-122.90344502445103,336.75608935952187,0.6395670451771598
2024-07-23 19:13:58.2130,0.143,-0.077,-0.383,-0.25,-5.45,-3.76,49.2795286885725,-122.90344502445103,336.75608935952187,0.6395670451771598
2024-07-23 19:13:58.2230,0.136,-0.069,-0.411,-0.23,-5.49,-3.53,49.2795286885725,-122.90344502445103,336.75608935952187,0.6395670451771598
2024-07-23 19:13:58.2350,0.138,-0.077,-0.425,-0.31,-5.37,-3.43,49.2795286885725,-122.90344502445103,336.75608935952187,0.6395670451771598
2024-07-23 19:13:58.2440,0.139,-0.092,-0.43,-0.31,-5.37,-3.43,49.2795286885725,-122.90344502445103,336.75608935952187,0.6395670451771598
2024-07-23 19:13:58.2540,0.134,-0.1,-0.425,-0.37,-5.18,-3.42,49.2795286885725,-122.90344502445103,336.75608935952187,0.6395670451771598
2024-07-23 19:13:58.2640,0.12,-0.091,-0.441,-0.38,-5.05,-3.52,49.2795286885725,-122.90344502445103,336.75608935952187,0.6395670451771598
2024-07-23 19:13:58.2740,0.104,-0.079,-0.47,-0.33,-5.08,-3.41,49.2795286885725,-122.90344502445103,336.75608935952187,0.6395670451771598
2024-07-23 19:13:58.2840,0.066,-0.057,-0.47,-0.27,-5.13,-3.19,49.2795286885725,-122.90344502445103,336.75608935952187,0.6395670451771598
2024-07-23 19:13:58.2940,0.016,-0.02,-0.462,0.0,-5.26,-3.27,49.2795286885725,-122.90344502445103,336.75608935952187,0.6395670451771598
2024-07-23 19:13:58.3040,-0.015,0.007,-0.48,0.56,-5.71,-3.31,49.2795286885725,-122.90344502445103,336.75608935952187,0.6395670451771598
2024-07-23 19:13:58.3150,-0.039,0.018,-0.517,0.68,-5.71,-3.03,49.2795286885725,-122.90344502445103,336.75608935952187,0.6395670451771598
2024-07-23 19:13:58.3270,-0.046,0.02,-0.544,0.68,-5.71,-3.03,49.2795286885725,-122.90344502445103,336.75608935952187,0.6395670451771598
2024-07-23 19:13:58.3350,-0.038,-0.011,-0.573,0.65,-5.61,-2.85,49.279535364274345,-122.90345553260819,336.1382807055488,0.7266311580114286
2024-07-23 19:13:58.3440,-0.044,-0.012,-0.607,0.47,-5.19,-2.64,49.279535364274345,-122.90345553260819,336.1382807055488,0.7266311580114286
2024-07-23 19:13:58.3540,-0.056,0.012,-0.639,0.44,-5.05,-2.4,49.279535364274345,-122.90345553260819,336.1382807055488,0.7266311580114286
2024-07-23 19:13:58.3650,-0.082,0.038,-0.688,0.47,-5.13,-2.17,49.279535364274345,-122.90345553260819,336.1382807055488,0.7266311580114286
2024-07-23 19:13:58.3750,-0.117,0.062,-0.734,0.85,-5.26,-1.44,49.279535364274345,-122.90345553260819,336.1382807055488,0.7266311580114286
2024-07-23 19:13:58.3850,-0.145,0.095,-0.764,0.85,-5.26,-1.44,49.279535364274345,-122.90345553260819,336.1382807055488,0.7266311580114286
2024-07-23 19:13:58.3950,-0.174,0.099,-0.812,1.01,-5.36,-1.25,49.279535364274345,-122.90345553260819,336.1382807055488,0.7266311580114286
2024-07-23 19:13:58.4050,-0.192,0.079,-0.878,1.18,-5.15,-0.9,49.279535364274345,-122.90345553260819,336.1382807055488,0.7266311580114286
2024-07-23 19:13:58.4160,-0.197,0.046,-0.951,1.25,-4.69,-0.37,49.279535364274345,-122.90345553260819,336.1382807055488,0.7266311580114286
2024-07-23 19:13:58.4250,-0.188,0.034,-1.046,1.23,-4.08,0.24,49.279535364274345,-122.90345553260819,336.1382807055488,0.7266311580114286
2024-07-23 19:13:58.4350,-0.174,0.058,-1.171,1.09,-3.68,1.06,49.279535364274345,-122.90345553260819,336.1382807055488,0.7266311580114286
2024-07-23 19:13:58.4450,-0.161,0.08,-1.276,0.89,-3.62,2.19,49.279535364274345,-122.90345553260819,336.1382807055488,0.7266311580114286
2024-07-23 19:13:58.4550,-0.164,0.107,-1.364,0.69,-3.54,3.14,49.279535364274345,-122.90345553260819,336.1382807055488,0.7266311580114286
2024-07-23 19:13:58.4660,-0.172,0.143,-1.44,0.63,-3.52,3.93,49.279535364274345,-122.90345553260819,336.1382807055488,0.7266311580114286
2024-07-23 19:13:58.4750,-0.174,0.152,-1.509,0.61,-3.57,4.61,49.279535364274345,-122.90345553260819,336.1382807055488,0.7266311580114286
2024-07-23 19:13:58.4850,-0.17,0.094,-1.584,0.53,-3.37,5.24,49.279535364274345,-122.90345553260819,336.1382807055488,0.7266311580114286
2024-07-23 19:13:58.4960,-0.183,0.065,-1.678,0.39,-2.51,5.94,49.279535364274345,-122.90345553260819,336.1382807055488,0.7266311580114286
2024-07-23 19:13:58.5060,-0.212,0.091,-1.798,0.44,-1.94,6.82,49.279535364274345,-122.90345553260819,336.1382807055488,0.7266311580114286
2024-07-23 19:13:58.5160,-0.213,0.078,-1.885,0.66,-1.91,7.98,49.279535364274345,-122.90345553260819,336.1382807055488,0.7266311580114286
2024-07-23 19:13:58.5260,-0.2,0.067,-1.957,0.63,-1.52,8.81,49.279535364274345,-122.90345553260819,336.1382807055488,0.7266311580114286
2024-07-23 19:13:58.5360,-0.201,0.067,-2.034,0.47,-1.16,9.51,49.279535364274345,-122.90345553260819,336.1382807055488,0.7266311580114286
2024-07-23 19:13:58.5480,-0.196,0.043,-2.08,0.44,-0.93,10.26,49.279535364274345,-122.90345553260819,336.1382807055488,0.7266311580114286
2024-07-23 19:13:58.5570,-0.191,0.013,-2.153,0.36,-0.47,10.72,49.279535364274345,-122.90345553260819,336.1382807055488,0.7266311580114286
2024-07-23 19:13:58.5660,-0.217,-0.008,-2.231,0.5,0.43,12.22,49.279535364274345,-122.90345553260819,336.1382807055488,0.7266311580114286
2024-07-23 19:13:58.5770,-0.266,-0.014,-2.277,0.5,0.43,12.22,49.279535364274345,-122.90345553260819,336.1382807055488,0.7266311580114286
2024-07-23 19:13:58.5860,-0.315,-0.003,-2.298,0.94,0.63,12.68,49.279535364274345,-122.90345553260819,336.1382807055488,0.7266311580114286
2024-07-23 19:13:58.5980,-0.359,-0.0,-2.289,1.41,0.64,12.9,49.279535364274345,-122.90345553260819,336.1382807055488,0.7266311580114286
2024-07-23 19:13:58.6080,-0.399,0.004,-2.244,1.84,0.69,12.81,49.279535364274345,-122.90345553260819,336.1382807055488,0.7266311580114286
2024-07-23 19:13:58.6180,-0.42,0.024,-2.173,2.26,0.71,12.37,49.279535364274345,-122.90345553260819,336.1382807055488,0.7266311580114286
2024-07-23 19:13:58.6270,-0.379,-0.026,-2.097,2.53,0.57,11.67,49.279535364274345,-122.90345553260819,336.1382807055488,0.7266311580114286
2024-07-23 19:13:58.6370,-0.331,-0.089,-2.084,2.24,1.13,10.91,49.279535364274345,-122.90345553260819,336.1382807055488,0.7266311580114286
2024-07-23 19:13:58.6470,-0.31,-0.105,-2.048,1.92,1.81,10.76,49.279535364274345,-122.90345553260819,336.1382807055488,0.7266311580114286
2024-07-23 19:13:58.6570,-0.301,-0.079,-1.997,1.89,2.02,10.4,49.279535364274345,-122.90345553260819,336.1382807055488,0.7266311580114286
2024-07-23 19:13:58.6670,-0.291,-0.02,-1.955,1.98,1.8,9.88,49.279535364274345,-122.90345553260819,336.1382807055488,0.7266311580114286
2024-07-23 19:13:58.6770,-0.246,-0.029,-1.882,2.07,1.23,9.45,49.279535364274345,-122.90345553260819,336.1382807055488,0.7266311580114286
2024-07-23 19:13:58.6870,-0.201,0.007,-1.781,1.81,1.31,8.72,49.279535364274345,-122.90345553260819,336.1382807055488,0.7266311580114286
2024-07-23 19:13:58.6970,-0.118,-0.028,-1.703,1.53,0.93,7.72,49.279535364274345,-122.90345553260819,336.1382807055488,0.7266311580114286
2024-07-23 19:13:58.7070,-0.084,-0.019,-1.656,0.86,1.26,6.94,49.279535364274345,-122.90345553260819,336.1382807055488,0.7266311580114286
2024-07-23 19:13:58.7170,-0.03,-0.034,-1.583,0.67,1.15,6.48,49.279535364274345,-122.90345553260819,336.1382807055488,0.7266311580114286
2024-07-23 19:13:58.7270,0.004,-0.083,-1.539,0.29,1.26,5.76,49.279535364274345,-122.90345553260819,336.1382807055488,0.7266311580114286
2024-07-23 19:13:58.7370,0.023,-0.077,-1.513,0.1,1.7,5.32,49.279535364274345,-122.90345553260819,336.1382807055488,0.7266311580114286
2024-07-23 19:13:58.7470,0.002,0.017,-1.454,0.05,1.56,5.07,49.279535364274345,-122.90345553260819,336.1382807055488,0.7266311580114286
2024-07-23 19:13:58.7580,0.018,-0.019,-1.359,0.36,0.77,3.55,49.279535364274345,-122.90345553260819,336.1382807055488,0.7266311580114286
2024-07-23 19:13:58.7680,0.012,-0.025,-1.262,0.36,0.77,3.55,49.279535364274345,-122.90345553260819,336.1382807055488,0.7266311580114286
2024-07-23 19:13:58.7780,0.001,-0.0,-1.162,0.53,0.67,2.6,49.279535364274345,-122.90345553260819,336.1382807055488,0.7266311580114286
2024-07-23 19:13:58.7880,-0.044,0.066,-1.066,0.73,0.26,1.62,49.279535364274345,-122.90345553260819,336.1382807055488,0.7266311580114286
2024-07-23 19:13:58.7980,-0.042,0.07,-0.966,1.24,-0.58,0.68,49.279535364274345,-122.90345553260819,336.1382807055488,0.7266311580114286
2024-07-23 19:13:58.8080,-0.051,-0.001,-0.887,1.26,-0.8,-0.31,49.279535364274345,-122.90345553260819,336.1382807055488,0.7266311580114286
2024-07-23 19:13:58.8180,-0.037,0.012,-0.769,1.39,-0.28,-1.07,49.279535364274345,-122.90345553260819,336.1382807055488,0.7266311580114286
2024-07-23 19:13:58.8280,-0.051,0.041,-0.693,1.29,-0.56,-2.22,49.279535364274345,-122.90345553260819,336.1382807055488,0.7266311580114286
2024-07-23 19:13:58.8380,-0.124,0.032,-0.663,1.49,-0.99,-2.95,49.279535364274345,-122.90345553260819,336.1382807055488,0.7266311580114286
2024-07-23 19:13:58.8480,-0.194,-0.008,-0.683,2.26,-1.03,-3.23,49.279535364274345,-122.90345553260819,336.1382807055488,0.7266311580114286
2024-07-23 19:13:58.8580,-0.212,-0.02,-0.674,3.2,-0.73,-3.09,49.279535364274345,-122.90345553260819,336.1382807055488,0.7266311580114286
2024-07-23 19:13:58.8690,-0.188,-0.003,-0.653,3.2,-0.73,-3.09,49.279535364274345,-122.90345553260819,336.1382807055488,0.7266311580114286
2024-07-23 19:13:58.8780,-0.17,0.011,-0.645,2.99,-0.98,-3.29,49.279535364274345,-122.90345553260819,336.1382807055488,0.7266311580114286
2024-07-23 19:13:58.8890,-0.154,0.012,-0.628,2.82,-1.19,-3.36,49.279535364274345,-122.90345553260819,336.1382807055488,0.7266311580114286
2024-07-23 19:13:58.8990,-0.137,0.005,-0.61,2.67,-1.23,-3.52,49.279535364274345,-122.90345553260819,336.1382807055488,0.7266311580114286
2024-07-23 19:13:58.9090,-0.116,-0.003,-0.6,2.51,-1.18,-3.7,49.279535364274345,-122.90345553260819,336.1382807055488,0.7266311580114286
2024-07-23 19:13:58.9190,-0.108,-0.006,-0.589,2.29,-1.09,-3.8,49.279535364274345,-122.90345553260819,336.1382807055488,0.7266311580114286
2024-07-23 19:13:58.9290,-0.108,-0.013,-0.595,2.2,-1.05,-3.91,49.279535364274345,-122.90345553260819,336.1382807055488,0.7266311580114286
2024-07-23 19:13:58.9390,-0.119,-0.011,-0.606,2.18,-0.95,-3.85,49.279535364274345,-122.90345553260819,336.1382807055488,0.7266311580114286
2024-07-23 19:13:58.9490,-0.164,0.007,-0.668,2.25,-0.93,-3.76,49.279535364274345,-122.90345553260819,336.1382807055488,0.7266311580114286
2024-07-23 19:13:58.9590,-0.338,0.067,-1.189,2.59,-1.07,-3.16,49.279535364274345,-122.90345553260819,336.1382807055488,0.7266311580114286
2024-07-23 19:13:58.9690,-0.273,-0.047,-0.838,4.12,-1.68,1.94,49.279535364274345,-122.90345553260819,336.1382807055488,0.7266311580114286
2024-07-23 19:13:58.9790,-0.188,-0.058,-1.206,3.29,-0.63,-1.52,49.279535364274345,-122.90345553260819,336.1382807055488,0.7266311580114286
2024-07-23 19:13:58.9890,-0.24,-0.094,-0.533,2.31,-0.61,2.1,49.279535364274345,-122.90345553260819,336.1382807055488,0.7266311580114286
2024-07-23 19:13:58.9990,-0.149,-0.142,-0.537,1.92,0.06,-4.45,49.279535364274345,-122.90345553260819,336.1382807055488,0.7266311580114286
2024-07-23 19:13:59.0100,0.032,-0.176,-0.821,1.92,0.06,-4.45,49.279535364274345,-122.90345553260819,336.1382807055488,0.7266311580114286
2024-07-23 19:13:59.0190,0.117,-0.222,-0.824,0.13,0.4,-1.66,49.279535364274345,-122.90345553260819,336.1382807055488,0.7266311580114286
2024-07-23 19:13:59.0300,0.007,-0.131,-0.739,-0.75,0.91,-1.65,49.279535364274345,-122.90345553260819,336.1382807055488,0.7266311580114286
2024-07-23 19:13:59.0400,-0.018,-0.092,-0.682,0.25,0.1,-2.49,49.279535364274345,-122.90345553260819,336.1382807055488,0.7266311580114286
2024-07-23 19:13:59.0500,-0.014,-0.113,-0.679,0.4,-0.17,-3.06,49.279535364274345,-122.90345553260819,336.1382807055488,0.7266311580114286
2024-07-23 19:13:59.0600,-0.062,-0.127,-0.731,0.66,0.41,-2.61,49.279535364274345,-122.90345553260819,336.1382807055488,0.7266311580114286
2024-07-23 19:13:59.0700,-0.077,-0.126,-0.8,0.66,0.41,-2.61,49.279535364274345,-122.90345553260819,336.1382807055488,0.7266311580114286
2024-07-23 19:13:59.0800,-0.065,-0.123,-0.854,0.75,0.54,-1.94,49.279535364274345,-122.90345553260819,336.1382807055488,0.7266311580114286
2024-07-23 19:13:59.0900,-0.06,-0.136,-0.88,0.58,0.65,-1.42,49.279535364274345,-122.90345553260819,336.1382807055488,0.7266311580114286
2024-07-23 19:13:59.1000,-0.038,-0.186,-0.9,0.5,0.9,-1.17,49.279535364274345,-122.90345553260819,336.1382807055488,0.7266311580114286
2024-07-23 19:13:59.1100,-0.052,-0.232,-0.84,0.24,1.52,-0.99,49.279535364274345,-122.90345553260819,336.1382807055488,0.7266311580114286
2024-07-23 19:13:59.1200,-0.065,-0.233,-0.91,0.34,2.09,-1.57,49.279535364274345,-122.90345553260819,336.1382807055488,0.7266311580114286
2024-07-23 19:13:59.1300,-0.039,-0.178,-0.986,0.43,2.22,-0.89,49.279535364274345,-122.90345553260819,336.1382807055488,0.7266311580114286
2024-07-23 19:13:59.1400,-0.043,-0.097,-0.993,0.12,1.8,-0.14,49.279535364274345,-122.90345553260819,336.1382807055488,0.7266311580114286
2024-07-23 19:13:59.1510,-0.058,-0.017,-0.98,0.21,0.41,-0.19,49.279535364274345,-122.90345553260819,336.1382807055488,0.7266311580114286
2024-07-23 19:13:59.1610,-0.062,-0.275,-0.844,0.24,2.99,-1.53,49.279535364274345,-122.90345553260819,336.1382807055488,0.7266311580114286
2024-07-23 19:13:59.1710,-0.068,-0.373,-0.876,0.24,2.99,-1.53,49.279535364274345,-122.90345553260819,336.1382807055488,0.7266311580114286
2024-07-23 19:13:59.1810,-0.049,-0.217,-1.003,0.07,2.41,0.04,49.279539844070435,-122.90345547292328,339.04187140986323,0.5864479443834701
2024-07-23 19:13:59.1910,-0.024,-0.132,-1.017,0.07,2.41,0.04,49.279539844070435,-122.90345547292328,339.04187140986323,0.5864479443834701
2024-07-23 19:13:59.2000,-0.034,-0.097,-1.017,-0.21,1.54,0.18,49.279539844070435,-122.90345547292328,339.04187140986323,0.5864479443834701
2024-07-23 19:13:59.2110,-0.032,-0.09,-0.983,-0.15,1.17,0.17,49.279539844070435,-122.90345547292328,339.04187140986323,0.5864479443834701
2024-07-23 19:13:59.2210,-0.005,-0.09,-0.93,-0.19,1.05,-0.15,49.279539844070435,-122.90345547292328,339.04187140986323,0.5864479443834701
2024-07-23 19:13:59.2310,0.018,-0.097,-0.967,-0.48,0.99,-0.68,49.279539844070435,-122.90345547292328,339.04187140986323,0.5864479443834701
2024-07-23 19:13:59.2420,-0.014,-0.068,-1.025,-0.73,0.98,-0.31,49.279539844070435,-122.90345547292328,339.04187140986323,0.5864479443834701
2024-07-23 19:13:59.2510,-0.048,-0.016,-1.111,-0.44,0.6,0.25,49.279539844070435,-122.90345547292328,339.04187140986323,0.5864479443834701
2024-07-23 19:13:59.2610,-0.076,0.026,-1.163,-0.14,-0.03,1.11,49.279539844070435,-122.90345547292328,339.04187140986323,0.5864479443834701
2024-07-23 19:13:59.2720,-0.108,0.054,-1.148,0.11,-0.59,1.62,49.279539844070435,-122.90345547292328,339.04187140986323,0.5864479443834701
2024-07-23 19:13:59.2810,-0.139,0.056,-1.141,0.39,-1.01,1.48,49.279539844070435,-122.90345547292328,339.04187140986323,0.5864479443834701
2024-07-23 19:13:59.2920,-0.187,0.042,-1.176,0.67,-1.18,1.42,49.279539844070435,-122.90345547292328,339.04187140986323,0.5864479443834701
2024-07-23 19:13:59.3020,-0.232,0.02,-1.174,1.13,-1.17,1.78,49.279539844070435,-122.90345547292328,339.04187140986323,0.5864479443834701
2024-07-23 19:13:59.3120,-0.245,-0.004,-1.149,1.57,-1.06,1.76,49.279539844070435,-122.90345547292328,339.04187140986323,0.5864479443834701
2024-07-23 19:13:59.3220,-0.211,-0.022,-1.127,1.71,-0.89,1.53,49.279539844070435,-122.90345547292328,339.04187140986323,0.5864479443834701
2024-07-23 19:13:59.3320,-0.18,-0.035,-1.099,1.39,-0.75,1.31,49.279539844070435,-122.90345547292328,339.04187140986323,0.5864479443834701
2024-07-23 19:13:59.3420,-0.147,-0.051,-1.053,1.11,-0.63,1.04,49.279539844070435,-122.90345547292328,339.04187140986323,0.5864479443834701
2024-07-23 19:13:59.3520,-0.129,-0.072,-1.048,0.82,-0.49,0.58,49.279539844070435,-122.90345547292328,339.04187140986323,0.5864479443834701
2024-07-23 19:13:59.3620,-0.117,-0.106,-1.072,0.69,-0.28,0.53,49.279539844070435,-122.90345547292328,339.04187140986323,0.5864479443834701
2024-07-23 19:13:59.3730,-0.088,-0.15,-1.083,0.61,0.06,0.77,49.279539844070435,-122.90345547292328,339.04187140986323,0.5864479443834701
2024-07-23 19:13:59.3820,-0.042,-0.179,-1.104,0.37,0.47,0.87,49.279539844070435,-122.90345547292328,339.04187140986323,0.5864479443834701
2024-07-23 19:13:59.3920,-0.011,-0.178,-1.132,-0.06,0.75,1.08,49.279539844070435,-122.90345547292328,339.04187140986323,0.5864479443834701
2024-07-23 19:13:59.4020,0.003,-0.138,-1.142,-0.33,0.73,1.35,49.279539844070435,-122.90345547292328,339.04187140986323,0.5864479443834701
2024-07-23 19:13:59.4130,0.015,-0.066,-1.173,-0.49,-0.37,1.75,49.279539844070435,-122.90345547292328,339.04187140986323,0.5864479443834701
2024-07-23 19:13:59.4230,0.018,-0.008,-1.228,-0.49,-0.37,1.75,49.279539844070435,-122.90345547292328,339.04187140986323,0.5864479443834701
2024-07-23 19:13:59.4330,0.013,0.012,-1.259,-0.38,-1.1,2.59,49.279539844070435,-122.90345547292328,339.04187140986323,0.5864479443834701
2024-07-23 19:13:59.4430,0.017,0.006,-1.239,-0.38,-1.1,2.59,49.279539844070435,-122.90345547292328,339.04187140986323,0.5864479443834701
2024-07-23 19:13:59.4530,0.025,-0.011,-1.201,-0.38,-1.04,2.39,49.279539844070435,-122.90345547292328,339.04187140986323,0.5864479443834701
2024-07-23 19:13:59.4630,0.024,-0.028,-1.119,-0.43,-0.88,2.02,49.279539844070435,-122.90345547292328,339.04187140986323,0.5864479443834701
2024-07-23 19:13:59.4790,0.036,-0.02,-0.85,-0.39,-0.75,1.22,49.279539844070435,-122.90345547292328,339.04187140986323,0.5864479443834701
2024-07-23 19:13:59.4830,0.071,-0.014,-0.931,-0.79,-1.12,-0.6,49.279539844070435,-122.90345547292328,339.04187140986323,0.5864479443834701
2024-07-23 19:13:59.4930,0.103,-0.045,-1.034,-0.79,-1.12,-0.6,49.279539844070435,-122.90345547292328,339.04187140986323,0.5864479443834701
2024-07-23 19:13:59.5030,0.097,-0.073,-1.036,-1.09,-0.93,0.42,49.279539844070435,-122.90345547292328,339.04187140986323,0.5864479443834701
2024-07-23 19:13:59.5130,0.087,-0.054,-1.027,-0.93,-0.98,0.38,49.279539844070435,-122.90345547292328,339.04187140986323,0.5864479443834701
2024-07-23 19:13:59.5240,0.069,-0.035,-0.992,-0.93,-0.98,0.38,49.279539844070435,-122.90345547292328,339.04187140986323,0.5864479443834701
2024-07-23 19:13:59.5330,0.053,-0.029,-0.957,-0.57,-1.25,-0.31,49.279539844070435,-122.90345547292328,339.04187140986323,0.5864479443834701
2024-07-23 19:13:59.5440,0.044,-0.029,-0.92,-0.57,-1.25,-0.31,49.279539844070435,-122.90345547292328,339.04187140986323,0.5864479443834701
2024-07-23 19:13:59.5540,0.033,-0.034,-0.889,-0.46,-1.25,-0.67,49.279539844070435,-122.90345547292328,339.04187140986323,0.5864479443834701

