time,gFx,gFy,gFz,ax,ay,az,latitude,longitude,altitude,speed
2024-07-23 19:13:00.8850,0.029,-0.394,-0.8,0.18,0.61,-0.63,49.27931750283138,-122.90328278946144,337.4062257874757,0.4359413164747016
2024-07-23 19:13:00.8850,-0.011,-0.4,-0.762,0.4,0.49,-1.35,49.27931750283138,-122.90328278946144,337.4062257874757,0.4359413164747016
2024-07-23 19:13:26.7600,-0.026,-0.393,-0.754,0.8,0.58,-1.73,49.27931750283138,-122.90328278946144,337.4062257874757,0.4359413164747016
2024-07-23 19:13:26.7680,-0.02,-0.382,-0.767,0.96,0.55,-1.82,49.27931750283138,-122.90328278946144,337.4062257874757,0.4359413164747016
2024-07-23 19:13:26.7780,-0.016,-0.389,-0.787,0.92,0.47,-1.7,49.27931750283138,-122.90328278946144,337.4062257874757,0.4359413164747016
2024-07-23 19:13:26.7880,-0.014,-0.392,-0.799,0.91,0.57,-1.51,49.27931750283138,-122.90328278946144,337.4062257874757,0.4359413164747016
2024-07-23 19:13:26.7980,-0.011,-0.392,-0.799,0.92,0.65,-1.41,49.27931750283138,-122.90328278946144,337.4062257874757,0.4359413164747016
2024-07-23 19:13:26.8090,-0.004,-0.387,-0.785,0.88,0.62,-1.55,49.27931750283138,-122.90328278946144,337.4062257874757,0.4359413164747016
2024-07-23 19:13:26.8190,0.01,-0.386,-0.751,0.79,0.62,-1.88,49.27931750283138,-122.90328278946144,337.4062257874757,0.4359413164747016
2024-07-23 19:13:26.8300,0.011,-0.412,-0.698,0.79,0.62,-1.88,49.27931750283138,-122.90328278946144,337.4062257874757,0.4359413164747016
2024-07-23 19:13:26.8390,0.008,-0.4,-0.715,0.93,0.77,-2.22,49.27931750283138,-122.90328278946144,337.4062257874757,0.4359413164747016
2024-07-23 19:13:26.8500,0.024,-0.383,-0.72,0.93,0.77,-2.22,49.27931750283138,-122.90328278946144,337.4062257874757,0.4359413164747016
2024-07-23 19:13:26.8590,0.035,-0.371,-0.746,0.83,0.6,-2.17,49.27931750283138,-122.90328278946144,337.4062257874757,0.4359413164747016
2024-07-23 19:13:26.8690,0.048,-0.373,-0.791,0.77,0.48,-1.91,49.27931750283138,-122.90328278946144,337.4062257874757,0.4359413164747016
2024-07-23 19:13:26.8790,0.078,-0.389,-0.863,0.4,0.67,-0.76,49.27931750283138,-122.90328278946144,337.4062257874757,0.4359413164747016
2024-07-23 19:13:26.8900,0.108,-0.402,-0.933,0.4,0.67,-0.76,49.27931750283138,-122.90328278946144,337.4062257874757,0.4359413164747016
2024-07-23 19:13:26.9000,0.129,-0.373,-0.973,0.06,0.82,-0.09,49.27931750283138,-122.90328278946144,337.4062257874757,0.4359413164747016
2024-07-23 19:13:26.9100,0.125,-0.278,-0.977,-0.36,-0.31,0.29,49.27931750283138,-122.90328278946144,337.4062257874757,0.4359413164747016
2024-07-23 19:13:26.9200,0.092,-0.152,-0.923,-0.23,-1.44,-0.29,49.27931750283138,-122.90328278946144,337.4062257874757,0.4359413164747016
2024-07-23 19:13:26.9310,0.041,-0.06,-0.807,-0.23,-1.44,-0.29,49.27931750283138,-122.90328278946144,337.4062257874757,0.4359413164747016
2024-07-23 19:13:26.9400,-0.007,-0.057,-0.664,0.34,-2.03,-2.95,49.27931750283138,-122.90328278946144,337.4062257874757,0.4359413164747016
2024-07-23 19:13:26.9500,-0.011,-0.122,-0.596,0.34,-2.03,-2.95,49.27931750283138,-122.90328278946144,337.4062257874757,0.4359413164747016
2024-07-23 19:13:26.9600,0.017,-0.2,-0.605,0.2,-1.18,-3.68,49.27931750283138,-122.90328278946144,337.4062257874757,0.4359413164747016
2024-07-23 19:13:26.9710,0.077,-0.267,-0.612,-1.01,0.71,-3.62,49.27931750283138,-122.90328278946144,337.4062257874757,0.4359413164747016
2024-07-23 19:13:26.9800,0.164,-0.324,-0.604,-2.0229071125388147,1.4946250654757023,-3.73324254155159,49.27931750283138,-122.90328278946144,337.4062257874757,0.4359413164747016
2024-07-23 19:13:26.9900,0.175,-0.337,-0.627,-2.03,1.49,-3.74,49.27931750283138,-122.90328278946144,337.4062257874757,0.4359413164747016
2024-07-23 19:13:27.0000,0.195,-0.298,-0.572,-2.68,1.64,-4.09,49.27931750283138,-122.90328278946144,337.4062257874757,0.4359413164747016
2024-07-23 19:13:27.0110,0.231,-0.235,-0.457,-2.68,1.64,-4.09,49.27931750283138,-122.90328278946144,337.4062257874757,0.4359413164747016
2024-07-23 19:13:27.0210,0.26,-0.169,-0.326,-3.18,1.21,-5.23,49.27931750283138,-122.90328278946144,337.4062257874757,0.4359413164747016
2024-07-23 19:13:27.0310,0.279,-0.084,-0.239,-3.57,0.75,-6.52,49.27931750283138,-122.90328278946144,337.4062257874757,0.4359413164747016
2024-07-23 19:13:27.0410,0.27,0.014,-0.182,-3.79,0.08,-7.39,49.27931750283138,-122.90328278946144,337.4062257874757,0.4359413164747016
2024-07-23 19:13:27.0500,0.308,0.123,-0.273,-3.65,-0.75,-7.96,49.27931750283138,-122.90328278946144,337.4062257874757,0.4359413164747016
2024-07-23 19:13:27.0620,0.342,0.209,-0.342,-3.9,-1.72,-7.08,49.27931750283138,-122.90328278946144,337.4062257874757,0.4359413164747016
2024-07-23 19:13:27.0710,0.319,0.248,-0.238,-4.02,-2.51,-6.43,49.27931750283138,-122.90328278946144,337.4062257874757,0.4359413164747016
2024-07-23 19:13:27.0810,0.304,0.211,-0.15,-3.51,-2.92,-7.47,49.27931750283138,-122.90328278946144,337.4062257874757,0.4359413164747016
2024-07-23 19:13:27.0910,0.41,0.212,-0.106,-2.97,-2.65,-8.33,49.27931750283138,-122.90328278946144,337.4062257874757,0.4359413164747016
2024-07-23 19:13:27.1010,0.607,0.273,-0.083,-3.5,-2.81,-8.74,49.27931750283138,-122.90328278946144,337.4062257874757,0.4359413164747016
2024-07-23 19:13:27.1110,0.768,0.297,-0.125,-5.81,-4.01,-8.38,49.27931750283138,-122.90328278946144,337.4062257874757,0.4359413164747016
2024-07-23 19:13:27.1220,0.869,0.299,-0.186,-5.81,-4.01,-8.38,49.27931750283138,-122.90328278946144,337.4062257874757,0.4359413164747016
2024-07-23 19:13:27.1310,0.917,0.287,-0.198,-6.15,-4.21,-7.62,49.27931750283138,-122.90328278946144,337.4062257874757,0.4359413164747016
2024-07-23 19:13:27.1410,0.967,0.307,-0.117,-5.98,-4.24,-7.29,49.27931750283138,-122.90328278946144,337.4062257874757,0.4359413164747016
2024-07-23 19:13:27.1570,1.005,0.406,-0.011,-5.54,-5.58,-8.56,49.27931750283138,-122.90328278946144,337.4062257874757,0.4359413164747016
2024-07-23 19:13:27.1610,1.059,0.545,0.068,-5.54,-5.58,-8.56,49.27931750283138,-122.90328278946144,337.4062257874757,0.4359413164747016
2024-07-23 19:13:27.1710,1.142,0.693,0.096,-5.4,-6.97,-8.96,49.27931604255725,-122.90328200101324,337.6036192588508,0.0
2024-07-23 19:13:27.1810,1.199,0.823,0.086,-5.42,-9.64,-8.16,49.27931604255725,-122.90328200101324,337.6036192588508,0.0
2024-07-23 19:13:27.1910,1.24,0.892,0.109,-5.42,-9.64,-8.16,49.27931604255725,-122.90328200101324,337.6036192588508,0.0
2024-07-23 19:13:27.2020,1.307,0.928,0.134,-5.17,-10.43,-7.31,49.27931604255725,-122.90328200101324,337.6036192588508,0.0
2024-07-23 19:13:27.2110,1.415,0.988,0.104,-5.17,-10.43,-7.31,49.27931604255725,-122.90328200101324,337.6036192588508,0.0
2024-07-23 19:13:27.2220,1.543,1.054,0.004,-6.39,-11.22,-4.39,49.27931604255725,-122.90328200101324,337.6036192588508,0.0
2024-07-23 19:13:27.2320,1.691,1.132,-0.155,-6.39,-11.22,-4.39,49.27931604255725,-122.90328200101324,337.6036192588508,0.0
2024-07-23 19:13:27.2420,1.77,1.219,-0.355,-7.94,-12.12,0.79,49.27931604255725,-122.90328200101324,337.6036192588508,0.0
2024-07-23 19:13:27.2530,1.809,1.314,-0.493,-7.94,-12.12,0.79,49.27931604255725,-122.90328200101324,337.6036192588508,0.0
2024-07-23 19:13:27.2620,1.795,1.387,-0.598,-8.14,-12.59,2.89,49.27931604255725,-122.90328200101324,337.6036192588508,0.0
2024-07-23 19:13:27.2720,1.799,1.427,-0.639,-7.93,-12.76,4.56,49.27931604255725,-122.90328200101324,337.6036192588508,0.0
2024-07-23 19:13:27.2820,1.823,1.488,-0.692,-7.98,-12.55,5.52,49.27931604255725,-122.90328200101324,337.6036192588508,0.0
2024-07-23 19:13:27.2930,1.854,1.553,-0.737,-8.79,-12.45,7.34,49.27931604255725,-122.90328200101324,337.6036192588508,0.0
2024-07-23 19:13:27.3030,1.924,1.631,-0.734,-8.79,-12.45,7.34,49.27931604255725,-122.90328200101324,337.6036192588508,0.0
2024-07-23 19:13:27.3130,2.027,1.705,-0.731,-11.04,-12.56,7.9,49.27931604255725,-122.90328200101324,337.6036192588508,0.0
2024-07-23 19:13:27.3240,2.107,1.755,-0.768,-12.19,-12.39,8.51,49.27931604255725,-122.90328200101324,337.6036192588508,0.0
2024-07-23 19:13:27.3340,2.154,1.776,-0.797,-13.06,-11.99,9.0,49.27931604255725,-122.90328200101324,337.6036192588508,0.0
2024-07-23 19:13:27.3440,2.187,1.822,-0.811,-13.06,-11.99,9.0,49.27931604255725,-122.90328200101324,337.6036192588508,0.0
2024-07-23 19:13:27.3540,2.131,1.876,-0.779,-13.83,-11.86,9.32,49.27931604255725,-122.90328200101324,337.6036192588508,0.0
2024-07-23 19:13:27.3640,2.055,1.865,-0.684,-13.76,-11.87,9.16,49.27931604255725,-122.90328200101324,337.6036192588508,0.0
2024-07-23 19:13:27.3740,2.04,1.914,-0.6,-13.53,-11.28,8.36,49.27931604255725,-122.90328200101324,337.6036192588508,0.0
2024-07-23 19:13:27.3850,2.056,1.996,-0.561,-13.91,-11.3,7.62,49.27931604255725,-122.90328200101324,337.6036192588508,0.0
2024-07-23 19:13:27.3960,2.049,2.02,-0.585,-14.62,-11.7,7.28,49.27931604255725,-122.90328200101324,337.6036192588508,0.0
2024-07-23 19:13:27.4040,1.984,1.998,-0.645,-15.11,-11.57,7.51,49.27931604255725,-122.90328200101324,337.6036192588508,0.0
2024-07-23 19:13:27.4140,1.882,1.941,-0.695,-15.03,-11.04,8.07,49.27931604255725,-122.90328200101324,337.6036192588508,0.0
2024-07-23 19:13:27.4240,1.811,1.921,-0.668,-14.45,-9.77,8.21,49.27931604255725,-122.90328200101324,337.6036192588508,0.0
2024-07-23 19:13:27.4360,1.732,1.908,-0.609,-14.23,-9.45,7.6,49.27931604255725,-122.90328200101324,337.6036192588508,0.0
2024-07-23 19:13:27.4440,1.682,1.848,-0.526,-14.23,-9.45,7.6,49.27931604255725,-122.90328200101324,337.6036192588508,0.0
2024-07-23 19:13:27.4540,1.715,1.94,-0.392,-14.31,-8.71,6.75,49.27931604255725,-122.90328200101324,337.6036192588508,0.0
2024-07-23 19:13:27.4640,1.751,2.031,-0.297,-15.21,-9.49,5.4,49.27931604255725,-122.90328200101324,337.6036192588508,0.0
2024-07-23 19:13:27.4740,1.688,1.938,-0.202,-16.14,-9.33,3.48,49.27931604255725,-122.90328200101324,337.6036192588508,0.0
2024-07-23 19:13:27.4840,1.626,1.815,-0.106,-16.1,-8.12,2.54,49.27931604255725,-122.90328200101324,337.6036192588508,0.0
2024-07-23 19:13:27.4940,1.574,1.765,-0.041,-16.1,-8.12,2.54,49.27931604255725,-122.90328200101324,337.6036192588508,0.0
2024-07-23 19:13:27.5040,1.533,1.772,0.05,-16.18,-7.66,1.9,49.27931604255725,-122.90328200101324,337.6036192588508,0.0
2024-07-23 19:13:27.5150,1.487,1.713,0.173,-16.36,-7.79,1.05,49.27931604255725,-122.90328200101324,337.6036192588508,0.0
2024-07-23 19:13:27.5250,1.459,1.559,0.281,-16.9,-5.97,-1.14,49.27931604255725,-122.90328200101324,337.6036192588508,0.0
2024-07-23 19:13:27.5340,1.532,1.345,0.349,-18.28,-4.08,-1.8,49.27931604255725,-122.90328200101324,337.6036192588508,0.0
2024-07-23 19:13:27.5440,1.726,1.039,0.312,-18.28,-4.08,-1.8,49.27931604255725,-122.90328200101324,337.6036192588508,0.0
2024-07-23 19:13:27.5540,1.889,0.656,0.174,-20.82,-1.33,-1.49,49.27931604255725,-122.90328200101324,337.6036192588508,0.0
2024-07-23 19:13:27.5640,1.984,0.271,0.057,-22.99,2.17,-0.21,49.27931604255725,-122.90328200101324,337.6036192588508,0.0
2024-07-23 19:13:27.5750,1.97,-0.01,-0.025,-24.38,5.71,0.88,49.27931604255725,-122.90328200101324,337.6036192588508,0.0
2024-07-23 19:13:27.5860,1.838,-0.157,-0.021,-23.61,9.48,1.63,49.27931604255725,-122.90328200101324,337.6036192588508,0.0
2024-07-23 19:13:27.5950,1.674,-0.207,0.125,-22.27,9.77,0.22,49.27931604255725,-122.90328200101324,337.6036192588508,0.0
2024-07-23 19:13:27.6050,1.495,-0.284,0.302,-20.74,10.35,-1.51,49.27931604255725,-122.90328200101324,337.6036192588508,0.0
2024-07-23 19:13:27.6160,1.336,-0.441,0.52,-20.74,10.35,-1.51,49.27931604255725,-122.90328200101324,337.6036192588508,0.0
2024-07-23 19:13:27.6250,1.199,-0.65,0.67,-19.4,11.71,-3.66,49.27931604255725,-122.90328200101324,337.6036192588508,0.0
2024-07-23 19:13:27.6350,1.038,-0.917,0.751,-16.79,16.12,-6.05,49.27931604255725,-122.90328200101324,337.6036192588508,0.0
2024-07-23 19:13:27.6450,0.907,-1.123,0.867,-16.79,16.12,-6.05,49.27931604255725,-122.90328200101324,337.6036192588508,0.0
2024-07-23 19:13:27.6550,0.775,-1.196,0.986,-15.58,18.1,-7.31,49.27931604255725,-122.90328200101324,337.6036192588508,0.0
2024-07-23 19:13:27.6650,0.654,-1.117,1.117,-13.11,18.08,-10.14,49.27931604255725,-122.90328200101324,337.6036192588508,0.0
2024-07-23 19:13:27.6750,0.518,-0.92,1.226,-13.11,18.08,-10.14,49.27931604255725,-122.90328200101324,337.6036192588508,0.0
2024-07-23 19:13:27.6850,0.378,-0.812,1.309,-11.74,16.2,-11.44,49.27931604255725,-122.90328200101324,337.6036192588508,0.0
2024-07-23 19:13:27.6950,0.261,-0.866,1.288,-10.32,15.2,-12.51,49.27931604255725,-122.90328200101324,337.6036192588508,0.0
2024-07-23 19:13:27.7060,0.249,-0.901,1.203,-8.87,16.25,-11.98,49.27931604255725,-122.90328200101324,337.6036192588508,0.0
2024-07-23 19:13:27.7160,0.352,-0.842,1.15,-8.87,16.25,-11.98,49.27931604255725,-122.90328200101324,337.6036192588508,0.0
2024-07-23 19:13:27.7260,0.521,-0.74,1.131,-9.71,15.8,-11.69,49.27931604255725,-122.90328200101324,337.6036192588508,0.0
2024-07-23 19:13:27.7360,0.786,-0.561,1.11,-13.49,13.38,-11.78,49.27931604255725,-122.90328200101324,337.6036192588508,0.0
2024-07-23 19:13:27.7460,1.151,-0.199,1.105,-16.75,10.02,-12.01,49.27931604255725,-122.90328200101324,337.6036192588508,0.0
2024-07-23 19:13:27.7560,1.484,0.225,1.016,-16.75,10.02,-12.01,49.27931604255725,-122.90328200101324,337.6036192588508,0.0
2024-07-23 19:13:27.7660,1.724,0.514,0.853,-21.62,3.37,-10.2,49.27931604255725,-122.90328200101324,337.6036192588508,0.0
2024-07-23 19:13:27.7760,1.898,0.634,0.623,-21.62,3.37,-10.2,49.27931604255725,-122.90328200101324,337.6036192588508,0.0
2024-07-23 19:13:27.7860,2.096,0.697,0.362,-22.86,2.35,-8.32,49.27931604255725,-122.90328200101324,337.6036192588508,0.0
2024-07-23 19:13:27.7960,2.391,0.833,0.097,-24.27,1.87,-6.12,49.27931604255725,-122.90328200101324,337.6036192588508,0.0
2024-07-23 19:13:27.8070,2.767,1.005,-0.046,-26.59,0.67,-3.83,49.27931604255725,-122.90328200101324,337.6036192588508,0.0
2024-07-23 19:13:27.8170,3.459,1.288,0.025,-29.64,-0.9,-2.67,49.27931604255725,-122.90328200101324,337.6036192588508,0.0
2024-07-23 19:13:27.8280,4.248,1.637,-0.029,-35.71,-3.56,-3.51,49.27931604255725,-122.90328200101324,337.6036192588508,0.0
2024-07-23 19:13:27.8380,4.827,1.946,-0.239,-42.65,-6.86,-2.99,49.27931604255725,-122.90328200101324,337.6036192588508,0.0
2024-07-23 19:13:27.8480,5.14,2.549,-0.665,-47.44,-9.78,-0.73,49.27931604255725,-122.90328200101324,337.6036192588508,0.0
2024-07-23 19:13:27.8580,4.926,3.194,-1.31,-49.61,-15.58,3.93,49.27931604255725,-122.90328200101324,337.6036192588508,0.0
2024-07-23 19:13:27.8680,4.562,3.394,-1.687,-42.36,-23.87,15.32,49.27931604255725,-122.90328200101324,337.6036192588508,0.0
2024-07-23 19:13:27.8790,4.587,3.745,-1.668,-41.95,-27.45,15.66,49.27931604255725,-122.90328200101324,337.6036192588508,0.0
2024-07-23 19:13:27.8880,4.781,3.94,-1.363,-41.95,-27.45,15.66,49.27931604255725,-122.90328200101324,337.6036192588508,0.0
2024-07-23 19:13:27.8980,5.09,3.666,-0.873,-43.25,-29.56,12.97,49.27931604255725,-122.90328200101324,337.6036192588508,0.0
2024-07-23 19:13:27.9080,5.372,3.253,-0.538,-45.67,-27.14,8.32,49.27931604255725,-122.90328200101324,337.6036192588508,0.0
2024-07-23 19:13:27.9180,5.491,3.081,-0.455,-48.15,-22.26,4.5,49.27931604255725,-122.90328200101324,337.6036192588508,0.0
2024-07-23 19:13:27.9290,5.42,3.423,-0.592,-48.15,-22.26,4.5,49.27931604255725,-122.90328200101324,337.6036192588508,0.0
2024-07-23 19:13:27.9380,5.411,4.091,-0.737,-46.74,-26.19,6.11,49.27931604255725,-122.90328200101324,337.6036192588508,0.0
2024-07-23 19:13:27.9480,5.386,4.46,-0.818,-46.03,-33.35,7.85,49.27931604255725,-122.90328200101324,337.6036192588508,0.0
2024-07-23 19:13:27.9580,5.255,4.303,-0.832,-45.24,-37.61,8.95,49.27931604255725,-122.90328200101324,337.6036192588508,0.0
2024-07-23 19:13:27.9680,5.13,4.179,-0.74,-41.79,-36.37,8.62,49.27931604255725,-122.90328200101324,337.6036192588508,0.0
2024-07-23 19:13:27.9790,4.842,4.128,-0.536,-38.56,-36.74,6.74,49.27931604255725,-122.90328200101324,337.6036192588508,0.0
2024-07-23 19:13:27.9890,4.359,4.05,-0.352,-33.51,-36.88,5.0,49.27931604255725,-122.90328200101324,337.6036192588508,0.0
2024-07-23 19:13:27.9980,3.786,4.129,-0.286,-33.51,-36.88,5.0,49.27931604255725,-122.90328200101324,337.6036192588508,0.0
2024-07-23 19:13:28.0110,3.34,4.354,-0.154,-27.66,-38.57,4.39,49.27931604255725,-122.90328200101324,337.6036192588508,0.0
2024-07-23 19:13:28.0180,3.165,4.752,0.036,-23.17,-41.62,3.2,49.27931604255725,-122.90328200101324,337.6036192588508,0.0
2024-07-23 19:13:28.0290,2.883,4.874,-0.018,-21.43,-46.25,1.51,49.27931604255725,-122.90328200101324,337.6036192588508,0.0
2024-07-23 19:13:28.0400,2.355,4.367,-0.258,-18.71,-48.06,2.28,49.27931604255725,-122.90328200101324,337.6036192588508,0.0
2024-07-23 19:13:28.0490,1.949,3.784,-0.602,-13.61,-43.63,4.87,49.27931604255725,-122.90328200101324,337.6036192588508,0.0
2024-07-23 19:13:28.0600,1.398,3.216,-0.993,-9.72,-38.41,8.38,49.27931604255725,-122.90328200101324,337.6036192588508,0.0
2024-07-23 19:13:28.0690,0.421,2.599,-1.083,-4.39,-33.38,12.18,49.27931604255725,-122.90328200101324,337.6036192588508,0.0
2024-07-23 19:13:28.0790,-0.564,2.596,-0.529,14.7,-28.4,7.09,49.27931604255725,-122.90328200101324,337.6036192588508,0.0
2024-07-23 19:13:28.0900,-1.414,2.87,0.277,14.7,-28.4,7.09,49.27931604255725,-122.90328200101324,337.6036192588508,0.0
2024-07-23 19:13:28.0990,-1.794,3.129,1.097,22.93,-31.47,-0.98,49.27931604255725,-122.90328200101324,337.6036192588508,0.0
2024-07-23 19:13:28.1100,-1.757,3.065,1.242,26.56,-34.25,-8.93,49.27931604255725,-122.90328200101324,337.6036192588508,0.0
2024-07-23 19:13:28.1190,-1.573,2.571,0.405,24.09,-29.0,-1.34,49.27931604255725,-122.90328200101324,337.6036192588508,0.0
2024-07-23 19:13:28.1300,-1.402,2.164,-0.695,24.09,-29.0,-1.34,49.27931604255725,-122.90328200101324,337.6036192588508,0.0
2024-07-23 19:13:28.1400,-1.369,1.949,-1.612,22.26,-25.07,9.83,49.27931604255725,-122.90328200101324,337.6036192588508,0.0
2024-07-23 19:13:28.1490,-1.511,1.802,-2.029,21.83,-23.06,18.99,49.27931604255725,-122.90328200101324,337.6036192588508,0.0
2024-07-23 19:13:28.1590,-1.649,1.771,-1.865,23.19,-21.74,23.01,49.27931604255725,-122.90328200101324,337.6036192588508,0.0
2024-07-23 19:13:28.1690,-1.785,1.76,-1.408,24.59,-21.53,21.15,49.27931604255725,-122.90328200101324,337.6036192588508,0.0
2024-07-23 19:13:28.1800,-1.863,1.682,-0.877,26.0,-21.5,16.29,49.27932053537935,-122.90328189031976,337.52179464511573,0.0
2024-07-23 19:13:28.1890,-1.816,1.701,-0.24,26.88,-20.76,10.62,49.27932053537935,-122.90328189031976,337.52179464511573,0.0
2024-07-23 19:13:28.1990,-1.614,1.798,0.413,26.54,-20.89,3.94,49.27932053537935,-122.90328189031976,337.52179464511573,0.0
2024-07-23 19:13:28.2090,-1.366,1.864,0.798,24.69,-21.67,-2.8,49.27932053537935,-122.90328189031976,337.52179464511573,0.0
2024-07-23 19:13:28.2200,-1.053,1.685,0.703,22.39,-22.07,-6.75,49.27932053537935,-122.90328189031976,337.52179464511573,0.0
2024-07-23 19:13:28.2300,-0.66,1.53,0.284,15.71,-18.1,-1.66,49.27932053537935,-122.90328189031976,337.52179464511573,0.0
2024-07-23 19:13:28.2400,-0.325,1.409,-0.142,15.71,-18.1,-1.66,49.27932053537935,-122.90328189031976,337.52179464511573,0.0
2024-07-23 19:13:28.2500,-0.121,1.298,-0.471,12.53,-16.53,2.66,49.27932053537935,-122.90328189031976,337.52179464511573,0.0
2024-07-23 19:13:28.2600,-0.001,1.164,-0.709,10.61,-15.02,6.05,49.27932053537935,-122.90328189031976,337.52179464511573,0.0
2024-07-23 19:13:28.2700,0.102,1.04,-0.847,9.51,-13.25,8.53,49.27932053537935,-122.90328189031976,337.52179464511573,0.0
2024-07-23 19:13:28.2800,0.226,0.904,-0.882,7.38,-9.71,10.46,49.27932053537935,-122.90328189031976,337.52179464511573,0.0
2024-07-23 19:13:28.2910,0.375,0.767,-0.81,7.38,-9.71,10.46,49.27932053537935,-122.90328189031976,337.52179464511573,0.0
2024-07-23 19:13:28.3000,0.521,0.672,-0.663,5.94,-7.86,9.82,49.27932053537935,-122.90328189031976,337.52179464511573,0.0
2024-07-23 19:13:28.3100,0.669,0.646,-0.542,4.5,-6.42,8.41,49.27932053537935,-122.90328189031976,337.52179464511573,0.0
2024-07-23 19:13:28.3200,0.798,0.697,-0.433,3.03,-5.68,7.22,49.27932053537935,-122.90328189031976,337.52179464511573,0.0
2024-07-23 19:13:28.3300,0.873,0.733,-0.33,1.73,-5.71,6.13,49.27932053537935,-122.90328189031976,337.52179464511573,0.0
2024-07-23 19:13:28.3410,0.957,0.796,-0.259,0.93,-5.58,5.09,49.27932053537935,-122.90328189031976,337.52179464511573,0.0
2024-07-23 19:13:28.3500,0.997,0.836,-0.282,0.02,-5.7,4.34,49.27932053537935,-122.90328189031976,337.52179464511573,0.0
2024-07-23 19:13:28.3610,1.025,0.806,-0.295,-0.9038240039348603,-4.78,4.5,49.27932053537935,-122.90328189031976,337.52179464511573,0.0
2024-07-23 19:13:28.3710,1.07,0.698,-0.265,-1.51,-3.2,4.06,49.27932053537935,-122.90328189031976,337.52179464511573,0.0
2024-07-23 19:13:28.3810,1.129,0.548,-0.235,-1.51,-3.2,4.06,49.27932053537935,-122.90328189031976,337.52179464511573,0.0
2024-07-23 19:13:28.3920,1.188,0.425,-0.198,-2.28,-1.25,3.61,49.27932053537935,-122.90328189031976,337.52179464511573,0.0
2024-07-23 19:13:28.4000,1.181,0.356,-0.119,-3.05,0.4,3.05,49.27932053537935,-122.90328189031976,337.52179464511573,0.0
2024-07-23 19:13:28.4110,1.178,0.358,0.02,-3.19,1.49,2.08,49.27932053537935,-122.90328189031976,337.52179464511573,0.0
2024-07-23 19:13:28.4220,1.15,0.418,0.123,-3.38,1.84,0.53,49.27932053537935,-122.90328189031976,337.52179464511573,0.0
2024-07-23 19:13:28.4310,1.104,0.358,0.176,-3.34,1.62,-0.68,49.27932053537935,-122.90328189031976,337.52179464511573,0.0
2024-07-23 19:13:28.4420,1.11,0.301,0.151,-3.14,2.57,-1.39,49.27932053537935,-122.90328189031976,337.52179464511573,0.0
2024-07-23 19:13:28.4510,1.107,0.255,0.087,-3.74,4.24,-0.99,49.27932053537935,-122.90328189031976,337.52179464511573,0.0
2024-07-23 19:13:28.4610,1.124,0.082,0.111,-4.197048364877701,6.22,-1.53,49.27932053537935,-122.90328189031976,337.52179464511573,0.0
2024-07-23 19:13:28.4720,1.167,-0.093,0.159,-4.2,6.22,-1.53,49.27932053537935,-122.90328189031976,337.52179464511573,0.0
2024-07-23 19:13:28.4820,1.205,-0.187,0.246,-4.9,8.17,-2.31,49.27932053537935,-122.90328189031976,337.52179464511573,0.0
2024-07-23 19:13:28.4910,1.213,-0.2,0.355,-5.52,9.27,-3.49,49.27932053537935,-122.90328189031976,337.52179464511573,0.0
2024-07-23 19:13:28.5010,1.201,-0.138,0.504,-5.82,9.52,-4.92,49.27932053537935,-122.90328189031976,337.52179464511573,0.0
2024-07-23 19:13:28.5110,1.217,-0.026,0.721,-5.92,9.0,-6.76,49.27932053537935,-122.90328189031976,337.52179464511573,0.0
2024-07-23 19:13:28.5220,1.235,0.096,0.907,-6.68,6.79,-11.53,49.27932053537935,-122.90328189031976,337.52179464511573,0.0
2024-07-23 19:13:28.5310,1.24,0.117,1.05,-6.96,6.58,-13.35,49.27932053537935,-122.90328189031976,337.52179464511573,0.0
2024-07-23 19:13:28.5410,1.31,-0.025,1.133,-6.96,6.58,-13.35,49.27932053537935,-122.90328189031976,337.52179464511573,0.0
2024-07-23 19:13:28.5510,1.401,-0.213,1.116,-8.87,9.65,-14.84,49.27932053537935,-122.90328189031976,337.52179464511573,0.0
2024-07-23 19:13:28.5610,1.464,-0.342,1.106,-8.87,9.65,-14.84,49.27932053537935,-122.90328189031976,337.52179464511573,0.0
2024-07-23 19:13:28.5730,1.566,-0.314,1.194,-10.590786892175675,10.282922801971436,-16.36,49.27932053537935,-122.90328189031976,337.52179464511573,0.0
2024-07-23 19:13:28.5820,1.702,0.021,1.306,-10.6,10.28,-16.36,49.27932053537935,-122.90328189031976,337.52179464511573,0.0
2024-07-23 19:13:28.5920,1.628,0.438,1.166,-11.24,2.6,-16.55,49.27932053537935,-122.90328189031976,337.52179464511573,0.0
2024-07-23 19:13:28.6020,1.144,0.507,0.819,-6.54,1.93,-13.19,49.27932053537935,-122.90328189031976,337.52179464511573,0.0
2024-07-23 19:13:28.6120,0.465,0.765,0.671,-6.54,1.93,-13.19,49.27932053537935,-122.90328189031976,337.52179464511573,0.0
2024-07-23 19:13:28.6230,0.112,1.272,0.839,0.02,-0.45,-11.64,49.27932053537935,-122.90328189031976,337.52179464511573,0.0
2024-07-23 19:13:28.6320,0.367,1.82,0.948,0.83,-10.36,-13.8,49.27932053537935,-122.90328189031976,337.52179464511573,0.0
2024-07-23 19:13:28.6430,0.874,1.999,0.594,0.83,-10.36,-13.8,49.27932053537935,-122.90328189031976,337.52179464511573,0.0
2024-07-23 19:13:28.6530,1.566,1.698,-0.276,-4.07,-11.94,-9.96,49.27932053537935,-122.90328189031976,337.52179464511573,0.0
2024-07-23 19:13:28.6630,1.974,1.358,-1.735,-10.65,-8.91,-1.04,49.27932053537935,-122.90328189031976,337.52179464511573,0.0
2024-07-23 19:13:28.6730,1.589,1.324,-3.237,-14.4,-5.56,13.66,49.27932053537935,-122.90328189031976,337.52179464511573,0.0
2024-07-23 19:13:28.6840,0.948,1.648,-4.115,-3.96,-8.37,37.78,49.27932053537935,-122.90328189031976,337.52179464511573,0.0
2024-07-23 19:13:28.6940,0.336,2.046,-4.424,2.09,-12.24,40.98,49.27932053537935,-122.90328189031976,337.52179464511573,0.0
2024-07-23 19:13:28.7050,-0.13,2.555,-3.978,6.58,-17.2,36.57,49.27932053537935,-122.90328189031976,337.52179464511573,0.0
2024-07-23 19:13:28.7140,-0.415,2.811,-2.815,6.58,-17.2,36.57,49.27932053537935,-122.90328189031976,337.52179464511573,0.0
2024-07-23 19:13:28.7240,-0.461,2.72,-1.503,9.23,-19.67,24.99,49.27932053537935,-122.90328189031976,337.52179464511573,0.0
2024-07-23 19:13:28.7350,-0.536,2.422,-0.701,9.54,-18.75,11.93,49.27932053537935,-122.90328189031976,337.52179464511573,0.0
2024-07-23 19:13:28.7450,-0.668,2.169,-0.55,10.21,-15.83,3.93,49.27932053537935,-122.90328189031976,337.52179464511573,0.0
2024-07-23 19:13:28.7560,-0.624,2.387,-1.049,11.02,-15.45,7.35,49.27932053537935,-122.90328189031976,337.52179464511573,0.0
2024-07-23 19:13:28.7640,-0.465,2.922,-1.714,11.02,-15.45,7.35,49.27932053537935,-122.90328189031976,337.52179464511573,0.0
2024-07-23 19:13:28.7750,-0.388,3.101,-2.178,8.29,-22.15,18.59,49.27932053537935,-122.90328189031976,337.52179464511573,0.0
2024-07-23 19:13:28.7850,-0.275,3.041,-2.308,8.29,-22.15,18.59,49.27932053537935,-122.90328189031976,337.52179464511573,0.0
2024-07-23 19:13:28.7940,-0.117,2.995,-2.261,4.85,-20.71,19.48,49.27932053537935,-122.90328189031976,337.52179464511573,0.0
2024-07-23 19:13:28.8060,0.065,2.917,-2.078,4.85,-20.71,19.48,49.27932053537935,-122.90328189031976,337.52179464511573,0.0
2024-07-23 19:13:28.8150,0.295,2.757,-1.629,2.58,-19.78,17.62,49.27932053537935,-122.90328189031976,337.52179464511573,0.0
2024-07-23 19:13:28.8240,0.657,2.598,-0.973,-0.2,-18.08,13.06,49.27932053537935,-122.90328189031976,337.52179464511573,0.0
2024-07-23 19:13:28.8350,1.147,2.391,-0.429,-4.27,-16.45,6.4,49.27932053537935,-122.90328189031976,337.52179464511573,0.0
2024-07-23 19:13:28.8450,1.709,1.999,-0.211,-15.61,-10.64,-1.73,49.27932053537935,-122.90328189031976,337.52179464511573,0.0
2024-07-23 19:13:28.8540,2.162,1.446,-0.212,-15.61,-10.64,-1.73,49.27932053537935,-122.90328189031976,337.52179464511573,0.0
2024-07-23 19:13:28.8640,2.378,1.106,-0.002,-20.52,-5.32,-2.06,49.27932053537935,-122.90328189031976,337.52179464511573,0.0
2024-07-23 19:13:28.8760,2.35,0.978,0.489,-23.08,-2.08,-4.36,49.27932053537935,-122.90328189031976,337.52179464511573,0.0
2024-07-23 19:13:28.8850,2.166,0.863,1.041,-23.22,-0.84,-9.23,49.27932053537935,-122.90328189031976,337.52179464511573,0.0
2024-07-23 19:13:28.8950,1.93,0.531,1.382,-21.8,0.33,-14.51,49.27932053537935,-122.90328189031976,337.52179464511573,0.0
2024-07-23 19:13:28.9040,1.887,0.143,1.502,-19.78,3.69,-17.6,49.27932053537935,-122.90328189031976,337.52179464511573,0.0
2024-07-23 19:13:28.9140,1.991,-0.004,1.401,-20.6,9.14,-17.24,49.27932053537935,-122.90328189031976,337.52179464511573,0.0
2024-07-23 19:13:28.9250,2.062,0.047,1.22,-20.6,9.14,-17.24,49.27932053537935,-122.90328189031976,337.52179464511573,0.0
2024-07-23 19:13:28.9360,2.048,0.139,0.995,-21.26,8.74,-15.2,49.27932053537935,-122.90328189031976,337.52179464511573,0.0
2024-07-23 19:13:28.9460,1.992,0.137,0.874,-21.05,7.93,-12.74,49.27932053537935,-122.90328189031976,337.52179464511573,0.0
2024-07-23 19:13:28.9560,1.96,0.128,0.971,-20.4,8.03,-11.3,49.27932053537935,-122.90328189031976,337.52179464511573,0.0
2024-07-23 19:13:28.9660,1.966,0.069,1.217,-19.97,8.19,-12.04,49.27932053537935,-122.90328189031976,337.52179464511573,0.0
2024-07-23 19:13:28.9760,2.062,-0.042,1.453,-19.88,8.82,-14.28,49.27932053537935,-122.90328189031976,337.52179464511573,0.0
2024-07-23 19:13:28.9860,2.385,-0.101,1.6,-20.61,9.96,-16.46,49.27932053537935,-122.90328189031976,337.52179464511573,0.0
2024-07-23 19:13:28.9960,2.773,0.033,1.489,-23.45,10.57,-17.8,49.27932053537935,-122.90328189031976,337.52179464511573,0.0
2024-07-23 19:13:29.0080,3.107,0.226,1.223,-26.85,9.27,-16.61,49.27932053537935,-122.90328189031976,337.52179464511573,0.0
2024-07-23 19:13:29.0160,3.36,0.523,0.815,-29.62,7.37,-13.88,49.27932053537935,-122.90328189031976,337.52179464511573,0.0
2024-07-23 19:13:29.0270,3.563,0.795,0.453,-31.56,4.42,-9.69,49.27932053537935,-122.90328189031976,337.52179464511573,0.0
2024-07-23 19:13:29.0360,3.726,1.049,0.239,-32.97,1.69,-5.9,49.27932053537935,-122.90328189031976,337.52179464511573,0.0
2024-07-23 19:13:29.0470,3.91,1.294,0.303,-33.95,-0.91,-3.55,49.27932053537935,-122.90328189031976,337.52179464511573,0.0
2024-07-23 19:13:29.0570,4.178,1.666,0.436,-35.08,-3.51,-3.93,49.27932053537935,-122.90328189031976,337.52179464511573,0.0
2024-07-23 19:13:29.0670,4.35,2.242,0.432,-36.98,-7.42,-5.0,49.27932053537935,-122.90328189031976,337.52179464511573,0.0
2024-07-23 19:13:29.0770,4.464,2.776,0.436,-37.93,-13.42,-4.74,49.27932053537935,-122.90328189031976,337.52179464511573,0.0
2024-07-23 19:13:29.0870,4.707,3.3,0.208,-38.33,-19.1,-4.54,49.27932053537935,-122.90328189031976,337.52179464511573,0.0
2024-07-23 19:13:29.0980,4.764,3.622,-0.175,-40.01,-24.75,-2.05,49.27932053537935,-122.90328189031976,337.52179464511573,0.0
2024-07-23 19:13:29.1070,4.312,3.754,-0.501,-39.88,-28.52,1.98,49.27932053537935,-122.90328189031976,337.52179464511573,0.0
2024-07-23 19:13:29.1170,3.531,4.28,-0.459,-34.8,-30.54,5.44,49.27932053537935,-122.90328189031976,337.52179464511573,0.0
2024-07-23 19:13:29.1270,2.529,4.569,-0.221,-26.58,-36.46,5.27,49.27932053537935,-122.90328189031976,337.52179464511573,0.0
2024-07-23 19:13:29.1370,1.909,4.638,-0.048,-16.33,-40.0,3.18,49.27932053537935,-122.90328189031976,337.52179464511573,0.0
2024-07-23 19:13:29.1480,1.909,4.499,-0.18,-9.97,-41.29,1.77,49.27932053537935,-122.90328189031976,337.52179464511573,0.0
2024-07-23 19:13:29.1590,2.036,3.903,-0.564,-9.8,-40.43,3.42,49.27932053537935,-122.90328189031976,337.52179464511573,0.0
2024-07-23 19:13:29.1670,2.035,3.055,-0.995,-10.96,-35.05,7.61,49.27932053537935,-122.90328189031976,337.52179464511573,0.0
2024-07-23 19:13:29.1790,1.497,2.272,-1.642,-10.89,-27.27,12.29,49.279322072485435,-122.90327906883547,338.3594723753631,0.7121996755167251
2024-07-23 19:13:29.1860,0.193,2.131,-2.058,-5.52,-20.29,18.96,49.279322072485435,-122.90327906883547,338.3594723753631,0.7121996755167251
2024-07-23 19:13:29.1990,-1.256,2.584,-1.748,7.39,-19.76,23.15,49.279322072485435,-122.90327906883547,338.3594723753631,0.7121996755167251
2024-07-23 19:13:29.2080,-2.544,3.125,-1.052,21.69,-25.02,20.01,49.279322072485435,-122.90327906883547,338.3594723753631,0.7121996755167251
2024-07-23 19:13:29.2170,-3.434,3.27,-0.198,34.39,-30.92,12.96,49.279322072485435,-122.90327906883547,338.3594723753631,0.7121996755167251
2024-07-23 19:13:29.2270,-3.38,3.165,0.236,43.15,-32.6,4.44,49.279322072485435,-122.90327906883547,338.3594723753631,0.7121996755167251
2024-07-23 19:13:29.2380,-2.422,2.889,0.107,42.63,-31.52,0.18,49.279322072485435,-122.90327906883547,338.3594723753631,0.7121996755167251
2024-07-23 19:13:29.2480,-1.582,2.17,-0.03,33.2,-28.57,1.58,49.279322072485435,-122.90327906883547,338.3594723753631,0.7121996755167251
2024-07-23 19:13:29.2570,-1.299,1.256,-0.083,24.91,-21.26,3.13,49.279322072485435,-122.90327906883547,338.3594723753631,0.7121996755167251
2024-07-23 19:13:29.2670,-1.228,0.691,-0.133,22.05,-12.12,3.9,49.279322072485435,-122.90327906883547,338.3594723753631,0.7121996755167251
2024-07-23 19:13:29.2770,-1.137,0.675,-0.383,21.25,-6.53,4.65,49.279322072485435,-122.90327906883547,338.3594723753631,0.7121996755167251
2024-07-23 19:13:29.2870,-1.007,0.96,-0.741,20.28,-6.41,7.34,49.279322072485435,-122.90327906883547,338.3594723753631,0.7121996755167251
2024-07-23 19:13:29.2980,-0.957,1.325,-1.071,18.94,-9.29,11.0,49.279322072485435,-122.90327906883547,338.3594723753631,0.7121996755167251
2024-07-23 19:13:29.3070,-0.888,1.622,-1.242,18.43,-12.95,14.29,49.279322072485435,-122.90327906883547,338.3594723753631,0.7121996755167251
2024-07-23 19:13:29.3180,-0.729,1.783,-1.33,17.78,-15.88,15.92,49.279322072485435,-122.90327906883547,338.3594723753631,0.7121996755167251
2024-07-23 19:13:29.3280,-0.477,1.849,-1.335,16.26,-17.39,16.68,49.279322072485435,-122.90327906883547,338.3594723753631,0.7121996755167251
2024-07-23 19:13:29.3380,-0.265,1.8,-1.305,13.82,-17.88,16.62,49.279322072485435,-122.90327906883547,338.3594723753631,0.7121996755167251
2024-07-23 19:13:29.3480,-0.139,1.652,-1.259,11.77,-17.18,16.24,49.279322072485435,-122.90327906883547,338.3594723753631,0.7121996755167251
2024-07-23 19:13:29.3580,-0.056,1.466,-1.276,10.54,-15.46,15.73,49.279322072485435,-122.90327906883547,338.3594723753631,0.7121996755167251
2024-07-23 19:13:29.3680,0.02,1.264,-1.28,9.7,-13.31,15.86,49.279322072485435,-122.90327906883547,338.3594723753631,0.7121996755167251
2024-07-23 19:13:29.3780,0.098,1.132,-1.183,8.93,-10.98,15.86,49.279322072485435,-122.90327906883547,338.3594723753631,0.7121996755167251
2024-07-23 19:13:29.3880,0.192,1.164,-1.0,8.11,-9.3,14.83,49.279322072485435,-122.90327906883547,338.3594723753631,0.7121996755167251
2024-07-23 19:13:29.3980,0.281,1.307,-0.795,7.15,-9.2,12.91,49.279322072485435,-122.90327906883547,338.3594723753631,0.7121996755167251
2024-07-23 19:13:29.4080,0.365,1.39,-0.59,6.2,-10.14,10.72,49.279322072485435,-122.90327906883547,338.3594723753631,0.7121996755167251
2024-07-23 19:13:29.4180,0.475,1.381,-0.402,5.28,-10.44,8.5,49.279322072485435,-122.90327906883547,338.3594723753631,0.7121996755167251
2024-07-23 19:13:29.4280,0.615,1.229,-0.228,4.06,-9.79,6.4,49.279322072485435,-122.90327906883547,338.3594723753631,0.7121996755167251
2024-07-23 19:13:29.4380,0.793,1.009,-0.102,2.5,-7.75,4.42,49.279322072485435,-122.90327906883547,338.3594723753631,0.7121996755167251
2024-07-23 19:13:29.4490,0.953,0.782,-0.004,0.53,-5.05,2.89,49.279322072485435,-122.90327906883547,338.3594723753631,0.7121996755167251
2024-07-23 19:13:29.4590,1.036,0.679,0.058,-1.29,-2.33,1.64,49.279322072485435,-122.90327906883547,338.3594723753631,0.7121996755167251
2024-07-23 19:13:29.4690,1.013,0.605,0.122,-2.36,-0.88,0.73,49.279322072485435,-122.90327906883547,338.3594723753631,0.7121996755167251
2024-07-23 19:13:29.4790,0.988,0.555,0.157,-2.39,0.24,-0.21,49.279322072485435,-122.90327906883547,338.3594723753631,0.7121996755167251
2024-07-23 19:13:29.4890,0.993,0.558,0.129,-2.42,1.1,-0.87,49.279322072485435,-122.90327906883547,338.3594723753631,0.7121996755167251
2024-07-23 19:13:29.4990,1.012,0.505,0.109,-2.77,1.41,-0.93,49.279322072485435,-122.90327906883547,338.3594723753631,0.7121996755167251
2024-07-23 19:13:29.5090,1.038,0.449,0.156,-3.26,2.24,-1.12,49.279322072485435,-122.90327906883547,338.3594723753631,0.7121996755167251
2024-07-23 19:13:29.5190,1.095,0.374,0.29,-3.85,3.07,-1.98,49.279322072485435,-122.90327906883547,338.3594723753631,0.7121996755167251
2024-07-23 19:13:29.5290,1.169,0.281,0.483,-4.76,4.05,-3.71,49.279322072485435,-122.90327906883547,338.3594723753631,0.7121996755167251
2024-07-23 19:13:29.5390,1.226,0.154,0.707,-5.84,5.17,-6.0,49.279322072485435,-122.90327906883547,338.3594723753631,0.7121996755167251
2024-07-23 19:13:29.5490,1.228,0.015,0.832,-7.09,8.1,-10.04,49.279322072485435,-122.90327906883547,338.3594723753631,0.7121996755167251
2024-07-23 19:13:29.5590,1.212,-0.081,0.807,-7.09,8.1,-10.04,49.279322072485435,-122.90327906883547,338.3594723753631,0.7121996755167251
2024-07-23 19:13:29.5690,1.199,-0.057,0.658,-7.23,9.16,-10.02,49.279322072485435,-122.90327906883547,338.3594723753631,0.7121996755167251
2024-07-23 19:13:29.5790,1.151,0.049,0.509,-7.37,9.02,-8.76,49.279322072485435,-122.90327906883547,338.3594723753631,0.7121996755167251
2024-07-23 19:13:29.5890,1.117,0.184,0.452,-7.19,8.07,-7.5,49.279322072485435,-122.90327906883547,338.3594723753631,0.7121996755167251
2024-07-23 19:13:29.6000,1.091,0.226,0.607,-7.18,6.82,-7.17,49.279322072485435,-122.90327906883547,338.3594723753631,0.7121996755167251
2024-07-23 19:13:29.6100,1.21,0.123,0.9,-7.25,6.45,-8.97,49.279322072485435,-122.90327906883547,338.3594723753631,0.7121996755167251
2024-07-23 19:13:29.6200,1.309,-0.11,1.176,-8.72,7.46,-12.14,49.279322072485435,-122.90327906883547,338.3594723753631,0.7121996755167251
2024-07-23 19:13:29.6300,1.405,-0.309,1.449,-9.91,9.69,-15.18,49.279322072485435,-122.90327906883547,338.3594723753631,0.7121996755167251
2024-07-23 19:13:29.6400,1.576,-0.271,1.531,-10.97,11.54,-18.19,49.279322072485435,-122.90327906883547,338.3594723753631,0.7121996755167251
2024-07-23 19:13:29.6500,1.601,-0.147,1.361,-12.67,11.04,-19.28,49.279322072485435,-122.90327906883547,338.3594723753631,0.7121996755167251
2024-07-23 19:13:29.6600,1.352,-0.029,0.998,-12.88,9.71,-17.82,49.279322072485435,-122.90327906883547,338.3594723753631,0.7121996755167251
2024-07-23 19:13:29.6700,0.891,0.055,0.596,-10.42,8.48,-14.36,49.279322072485435,-122.90327906883547,338.3594723753631,0.7121996755167251
2024-07-23 19:13:29.6800,0.728,0.217,0.495,-5.92,7.65,-10.45,49.279322072485435,-122.90327906883547,338.3594723753631,0.7121996755167251
2024-07-23 19:13:29.6900,0.913,0.514,0.573,-4.38,6.07,-9.46,49.279322072485435,-122.90327906883547,338.3594723753631,0.7121996755167251
2024-07-23 19:13:29.7010,1.459,1.045,0.869,-6.22,3.17,-10.22,49.279322072485435,-122.90327906883547,338.3594723753631,0.7121996755167251
2024-07-23 19:13:29.7110,1.896,1.399,0.719,-11.52,-2.02,-13.07,49.279322072485435,-122.90327906883547,338.3594723753631,0.7121996755167251
2024-07-23 19:13:29.7210,1.948,1.277,0.013,-15.82,-4.22,-4.19,49.279322072485435,-122.90327906883547,338.3594723753631,0.7121996755167251
2024-07-23 19:13:29.7310,1.744,1.193,-0.968,-15.82,-4.22,-4.19,49.279322072485435,-122.90327906883547,338.3594723753631,0.7121996755167251
2024-07-23 19:13:29.7400,1.411,1.416,-1.889,-13.46,-3.33,5.91,49.279322072485435,-122.90327906883547,338.3594723753631,0.7121996755167251
2024-07-23 19:13:29.7510,1.09,1.797,-2.725,-9.84,-5.49,15.44,49.279322072485435,-122.90327906883547,338.3594723753631,0.7121996755167251
2024-07-23 19:13:29.7610,0.489,2.287,-3.123,-6.38,-9.26,23.99,49.279322072485435,-122.90327906883547,338.3594723753631,0.7121996755167251
2024-07-23 19:13:29.7720,-0.1,2.866,-2.3,-0.28,-14.15,27.98,49.279322072485435,-122.90327906883547,338.3594723753631,0.7121996755167251
2024-07-23 19:13:29.7820,-0.083,3.493,-0.821,5.58,-19.91,19.8,49.279322072485435,-122.90327906883547,338.3594723753631,0.7121996755167251
2024-07-23 19:13:29.7920,0.085,3.272,0.133,5.36,-26.08,5.13,49.279322072485435,-122.90327906883547,338.3594723753631,0.7121996755167251
2024-07-23 19:13:29.8020,0.409,2.345,0.307,3.62,-23.91,-4.34,49.279322072485435,-122.90327906883547,338.3594723753631,0.7121996755167251
2024-07-23 19:13:29.8110,0.919,1.535,-0.019,0.39,-14.8,-6.07,49.279322072485435,-122.90327906883547,338.3594723753631,0.7121996755167251
2024-07-23 19:13:29.8210,1.262,1.161,-0.428,-4.55,-6.86,-2.83,49.279322072485435,-122.90327906883547,338.3594723753631,0.7121996755167251
2024-07-23 19:13:29.8320,1.459,1.511,-0.586,-7.78,-3.24,1.25,49.279322072485435,-122.90327906883547,338.3594723753631,0.7121996755167251
2024-07-23 19:13:29.8420,1.36,2.143,-0.569,-9.59,-6.72,2.9,49.279322072485435,-122.90327906883547,338.3594723753631,0.7121996755167251
2024-07-23 19:13:29.8520,1.079,2.31,-0.349,-8.56,-12.91,2.85,49.279322072485435,-122.90327906883547,338.3594723753631,0.7121996755167251
2024-07-23 19:13:29.8630,1.106,2.168,-0.02,-5.82,-14.5,0.82,49.279322072485435,-122.90327906883547,338.3594723753631,0.7121996755167251
2024-07-23 19:13:29.8730,1.341,1.991,0.058,-6.12,-13.03,-2.25,49.279322072485435,-122.90327906883547,338.3594723753631,0.7121996755167251
2024-07-23 19:13:29.8820,1.587,1.686,0.009,-8.45,-11.22,-2.81,49.279322072485435,-122.90327906883547,338.3594723753631,0.7121996755167251
2024-07-23 19:13:29.8920,1.797,1.432,-0.061,-10.82,-8.21,-2.11,49.279322072485435,-122.90327906883547,338.3594723753631,0.7121996755167251
2024-07-23 19:13:29.9020,2.058,1.462,-0.125,-12.76,-5.73,-1.19,49.279322072485435,-122.90327906883547,338.3594723753631,0.7121996755167251
2024-07-23 19:13:29.9120,2.235,1.827,-0.339,-15.13,-6.08,-0.32,49.279322072485435,-122.90327906883547,338.3594723753631,0.7121996755167251
2024-07-23 19:13:29.9230,2.119,2.21,-0.518,-16.64,-9.76,2.03,49.279322072485435,-122.90327906883547,338.3594723753631,0.7121996755167251
2024-07-23 19:13:29.9330,1.95,2.522,-0.544,-15.28,-13.64,4.03,49.279322072485435,-122.90327906883547,338.3594723753631,0.7121996755167251
2024-07-23 19:13:29.9440,1.792,2.585,-0.585,-13.43,-16.81,4.54,49.279322072485435,-122.90327906883547,338.3594723753631,0.7121996755167251
2024-07-23 19:13:29.9540,1.756,2.491,-0.626,-11.74,-17.5,5.2,49.279322072485435,-122.90327906883547,338.3594723753631,0.7121996755167251
2024-07-23 19:13:29.9630,1.8,2.334,-0.622,-11.26,-16.66,5.82,49.279322072485435,-122.90327906883547,338.3594723753631,0.7121996755167251
2024-07-23 19:13:29.9730,1.937,2.102,-0.526,-12.76,-13.06,5.1,49.279322072485435,-122.90327906883547,338.3594723753631,0.7121996755167251
2024-07-23 19:13:29.9850,2.133,1.988,-0.439,-12.76,-13.06,5.1,49.279322072485435,-122.90327906883547,338.3594723753631,0.7121996755167251
2024-07-23 19:13:29.9930,2.175,1.904,-0.355,-14.47,-12.12,4.25,49.279322072485435,-122.90327906883547,338.3594723753631,0.7121996755167251
2024-07-23 19:13:30.0030,2.014,1.84,-0.259,-14.62,-11.53,3.41,49.279322072485435,-122.90327906883547,338.3594723753631,0.7121996755167251
2024-07-23 19:13:30.0140,1.801,1.899,-0.212,-12.76,-11.18,2.46,49.279322072485435,-122.90327906883547,338.3594723753631,0.7121996755167251
2024-07-23 19:13:30.0230,1.59,1.954,-0.353,-10.42,-12.03,2.08,49.279322072485435,-122.90327906883547,338.3594723753631,0.7121996755167251
2024-07-23 19:13:30.0330,1.431,1.929,-0.538,-8.12,-12.82,3.59,49.279322072485435,-122.90327906883547,338.3594723753631,0.7121996755167251
2024-07-23 19:13:30.0450,1.341,1.893,-0.719,-6.37,-12.82,5.56,49.279322072485435,-122.90327906883547,338.3594723753631,0.7121996755167251
2024-07-23 19:13:30.0530,1.246,1.843,-0.838,-5.32,-12.69,7.46,49.279322072485435,-122.90327906883547,338.3594723753631,0.7121996755167251
2024-07-23 19:13:30.0630,1.059,1.655,-0.764,-4.25,-12.4,8.68,49.279322072485435,-122.90327906883547,338.3594723753631,0.7121996755167251
2024-07-23 19:13:30.0730,0.758,1.269,-0.528,-2.29,-10.72,7.92,49.279322072485435,-122.90327906883547,338.3594723753631,0.7121996755167251
2024-07-23 19:13:30.0830,0.351,0.736,-0.243,0.76,-7.09,5.54,49.279322072485435,-122.90327906883547,338.3594723753631,0.7121996755167251
2024-07-23 19:13:30.0940,-0.142,0.18,-0.033,4.87,-2.03,2.67,49.279322072485435,-122.90327906883547,338.3594723753631,0.7121996755167251
2024-07-23 19:13:30.1040,-0.581,-0.292,0.15,9.83,3.24,0.58,49.279322072485435,-122.90327906883547,338.3594723753631,0.7121996755167251
2024-07-23 19:13:30.1140,-0.747,-0.457,0.302,14.24,7.67,-1.22,49.279322072485435,-122.90327906883547,338.3594723753631,0.7121996755167251
2024-07-23 19:13:30.1240,-0.675,-0.364,0.292,15.97,9.11,-2.66,49.279322072485435,-122.90327906883547,338.3594723753631,0.7121996755167251
2024-07-23 19:13:30.1340,-0.555,-0.335,0.182,15.34,8.04,-2.51,49.279322072485435,-122.90327906883547,338.3594723753631,0.7121996755167251
2024-07-23 19:13:30.1440,-0.469,-0.41,0.138,14.22,7.64,-1.41,49.279322072485435,-122.90327906883547,338.3594723753631,0.7121996755167251
2024-07-23 19:13:30.1550,-0.407,-0.576,0.154,13.43,8.27,-0.99,49.279322072485435,-122.90327906883547,338.3594723753631,0.7121996755167251
2024-07-23 19:13:30.1660,-0.35,-0.701,0.201,12.88,9.78,-1.16,49.279322072485435,-122.90327906883547,338.3594723753631,0.7121996755167251
2024-07-23 19:13:30.1740,-0.418,-0.681,0.256,13.14,10.47,-2.22,49.279322072485435,-122.90327906883547,338.3594723753631,0.7121996755167251
2024-07-23 19:13:30.1840,-0.545,-0.558,0.285,13.14,10.47,-2.22,49.27935220662312,-122.90330015255195,339.15420689433813,1.8699311489879222
2024-07-23 19:13:30.1940,-0.617,-0.348,0.231,14.46,9.06,-2.53,49.27935220662312,-122.90330015255195,339.15420689433813,1.8699311489879222
2024-07-23 19:13:30.2040,-0.668,-0.11,0.192,15.24,6.82,-2.01,49.27935220662312,-122.90330015255195,339.15420689433813,1.8699311489879222
2024-07-23 19:13:30.2140,-0.695,0.024,0.216,15.8,4.35,-1.63,49.27935220662312,-122.90330015255195,339.15420689433813,1.8699311489879222
2024-07-23 19:13:30.2240,-0.626,0.053,0.203,16.09,2.93,-1.85,49.27935220662312,-122.90330015255195,339.15420689433813,1.8699311489879222
2024-07-23 19:13:30.2340,-0.473,0.023,0.153,15.43,2.58,-1.69,49.27935220662312,-122.90330015255195,339.15420689433813,1.8699311489879222
2024-07-23 19:13:30.2450,-0.286,-0.074,0.089,13.94,2.84,-1.14,49.27935220662312,-122.90330015255195,339.15420689433813,1.8699311489879222
2024-07-23 19:13:30.2550,-0.127,-0.219,0.03,12.11,3.76,-0.44,49.27935220662312,-122.90330015255195,339.15420689433813,1.8699311489879222
2024-07-23 19:13:30.2650,0.013,-0.322,-0.013,10.56,5.14,0.22,49.27935220662312,-122.90330015255195,339.15420689433813,1.8699311489879222
2024-07-23 19:13:30.2750,0.14,-0.314,-0.046,9.21,6.1,0.73,49.27935220662312,-122.90330015255195,339.15420689433813,1.8699311489879222
2024-07-23 19:13:30.2850,0.214,-0.242,-0.109,7.97,5.95,1.14,49.27935220662312,-122.90330015255195,339.15420689433813,1.8699311489879222
2024-07-23 19:13:30.2950,0.259,-0.178,-0.203,7.26,5.18,1.85,49.27935220662312,-122.90330015255195,339.15420689433813,1.8699311489879222
2024-07-23 19:13:30.3050,0.284,-0.194,-0.288,6.83,4.5,2.84,49.27935220662312,-122.90330015255195,339.15420689433813,1.8699311489879222
2024-07-23 19:13:30.3150,0.316,-0.229,-0.346,6.6,4.61,3.71,49.27935220662312,-122.90330015255195,339.15420689433813,1.8699311489879222
2024-07-23 19:13:30.3250,0.332,-0.283,-0.338,6.29,4.91,4.27,49.27935220662312,-122.90330015255195,339.15420689433813,1.8699311489879222
2024-07-23 19:13:30.3350,0.34,-0.357,-0.275,6.16,5.4,4.15,49.27935220662312,-122.90330015255195,339.15420689433813,1.8699311489879222
2024-07-23 19:13:30.3450,0.368,-0.398,-0.234,5.86,6.35,2.98,49.27935220662312,-122.90330015255195,339.15420689433813,1.8699311489879222
2024-07-23 19:13:30.3560,0.391,-0.426,-0.21,5.86,6.35,2.98,49.27935220662312,-122.90330015255195,339.15420689433813,1.8699311489879222
2024-07-23 19:13:30.3660,0.418,-0.388,-0.192,5.46,5.95,2.3,49.27935220662312,-122.90330015255195,339.15420689433813,1.8699311489879222
2024-07-23 19:13:30.3770,0.422,-0.302,-0.163,5.46,5.95,2.3,49.27935220662312,-122.90330015255195,339.15420689433813,1.8699311489879222
2024-07-23 19:13:30.3850,0.375,-0.266,-0.137,5.47,4.93,1.86,49.27935220662312,-122.90330015255195,339.15420689433813,1.8699311489879222
2024-07-23 19:13:30.3960,0.325,-0.221,-0.1,5.97,4.38,1.42,49.27935220662312,-122.90330015255195,339.15420689433813,1.8699311489879222
2024-07-23 19:13:30.4060,0.264,-0.219,-0.059,6.48,3.76,0.87,49.27935220662312,-122.90330015255195,339.15420689433813,1.8699311489879222
2024-07-23 19:13:30.4160,0.211,-0.252,-0.013,7.11,3.57,0.27,49.27935220662312,-122.90330015255195,339.15420689433813,1.8699311489879222
2024-07-23 19:13:30.4260,0.201,-0.309,0.02,7.65,3.7,-0.39,49.27935220662312,-122.90330015255195,339.15420689433813,1.8699311489879222
2024-07-23 19:13:30.4360,0.21,-0.341,0.022,7.75,4.07,-0.91,49.27935220662312,-122.90330015255195,339.15420689433813,1.8699311489879222
2024-07-23 19:13:30.4460,0.239,-0.358,0.009,7.38,4.12,-1.2,49.27935220662312,-122.90330015255195,339.15420689433813,1.8699311489879222
2024-07-23 19:13:30.4570,0.284,-0.391,-0.027,7.38,4.12,-1.2,49.27935220662312,-122.90330015255195,339.15420689433813,1.8699311489879222
2024-07-23 19:13:30.4660,0.315,-0.406,-0.093,6.92,4.2,-1.04,49.27935220662312,-122.90330015255195,339.15420689433813,1.8699311489879222
2024-07-23 19:13:30.4760,0.33,-0.376,-0.143,6.6,4.09,-0.61,49.27935220662312,-122.90330015255195,339.15420689433813,1.8699311489879222
2024-07-23 19:13:30.4860,0.345,-0.306,-0.163,6.41,3.51,-0.34,49.27935220662312,-122.90330015255195,339.15420689433813,1.8699311489879222
2024-07-23 19:13:30.4970,0.293,-0.297,-0.196,6.21,2.56,-0.4,49.27935220662312,-122.90330015255195,339.15420689433813,1.8699311489879222
2024-07-23 19:13:30.5070,0.286,-0.314,-0.219,6.64,2.2,-0.34,49.27935220662312,-122.90330015255195,339.15420689433813,1.8699311489879222
2024-07-23 19:13:30.5170,0.357,-0.365,-0.272,5.8,2.35,-0.19,49.27935220662312,-122.90330015255195,339.15420689433813,1.8699311489879222
2024-07-23 19:13:30.5270,0.49,-0.478,-0.395,5.8,2.35,-0.19,49.27935220662312,-122.90330015255195,339.15420689433813,1.8699311489879222
2024-07-23 19:13:30.5360,0.644,-0.602,-0.569,4.35,3.2,0.7,49.27935220662312,-122.90330015255195,339.15420689433813,1.8699311489879222
2024-07-23 19:13:30.5470,0.847,-0.66,-0.774,0.44,4.4,3.66,49.27935220662312,-122.90330015255195,339.15420689433813,1.8699311489879222
2024-07-23 19:13:30.5570,1.085,-0.642,-0.994,0.44,4.4,3.66,49.27935220662312,-122.90330015255195,339.15420689433813,1.8699311489879222
2024-07-23 19:13:30.5670,1.321,-0.55,-1.18,-4.85,2.76,6.74,49.27935220662312,-122.90330015255195,339.15420689433813,1.8699311489879222
2024-07-23 19:13:30.5770,1.634,-0.42,-1.265,-4.85,2.76,6.74,49.27935220662312,-122.90330015255195,339.15420689433813,1.8699311489879222
2024-07-23 19:13:30.5870,1.993,-0.313,-1.528,-8.28,1.3,7.09,49.27935220662312,-122.90330015255195,339.15420689433813,1.8699311489879222
2024-07-23 19:13:30.5970,2.137,-0.526,-2.102,-14.02,2.2,14.35,49.27935220662312,-122.90330015255195,339.15420689433813,1.8699311489879222
2024-07-23 19:13:30.6080,2.484,-0.717,-2.449,-14.02,2.2,14.35,49.27935220662312,-122.90330015255195,339.15420689433813,1.8699311489879222
2024-07-23 19:13:30.6180,3.158,-0.295,-2.401,-17.88,4.01,17.31,49.27935220662312,-122.90330015255195,339.15420689433813,1.8699311489879222
2024-07-23 19:13:30.6280,3.313,0.104,-2.127,-24.98,-0.25,16.45,49.27935220662312,-122.90330015255195,339.15420689433813,1.8699311489879222
2024-07-23 19:13:30.6380,3.199,0.236,-1.829,-26.98,-4.34,13.46,49.27935220662312,-122.90330015255195,339.15420689433813,1.8699311489879222
2024-07-23 19:13:30.6490,2.81,0.311,-1.929,-26.33,-5.8,10.29,49.27935220662312,-122.90330015255195,339.15420689433813,1.8699311489879222
2024-07-23 19:13:30.6590,2.267,0.473,-2.042,-23.01,-6.65,11.01,49.27935220662312,-122.90330015255195,339.15420689433813,1.8699311489879222
2024-07-23 19:13:30.6690,1.689,0.61,-1.846,-18.24,-8.21,11.81,49.27935220662312,-122.90330015255195,339.15420689433813,1.8699311489879222
2024-07-23 19:13:30.6780,1.231,0.705,-1.585,-13.14,-9.37,9.56,49.27935220662312,-122.90330015255195,339.15420689433813,1.8699311489879222
2024-07-23 19:13:30.6880,1.007,0.692,-1.48,-9.16,-10.0,6.7,49.27935220662312,-122.90330015255195,339.15420689433813,1.8699311489879222
2024-07-23 19:13:30.6980,1.05,0.648,-1.352,-8.16,-8.88,4.02,49.27935220662312,-122.90330015255195,339.15420689433813,1.8699311489879222
2024-07-23 19:13:30.7080,1.285,0.704,-0.977,-8.16,-8.88,4.02,49.27935220662312,-122.90330015255195,339.15420689433813,1.8699311489879222
2024-07-23 19:13:30.7180,1.489,0.311,-0.634,-10.65,-9.33,0.28,49.27935220662312,-122.90330015255195,339.15420689433813,1.8699311489879222
2024-07-23 19:13:30.7280,1.564,-0.523,-0.504,-12.66,-5.55,-3.07,49.27935220662312,-122.90330015255195,339.15420689433813,1.8699311489879222
2024-07-23 19:13:30.7380,1.464,-1.268,-0.793,-13.29,2.41,-4.26,49.27935220662312,-122.90330015255195,339.15420689433813,1.8699311489879222
2024-07-23 19:13:30.7480,1.182,-1.546,-1.915,-9.54,12.09,9.7,49.27935220662312,-122.90330015255195,339.15420689433813,1.8699311489879222
2024-07-23 19:13:30.7590,0.657,-1.577,-2.49,-9.54,12.09,9.7,49.27935220662312,-122.90330015255195,339.15420689433813,1.8699311489879222
2024-07-23 19:13:30.7680,-0.067,-1.243,-1.895,2.14,9.55,9.26,49.27935220662312,-122.90330015255195,339.15420689433813,1.8699311489879222
2024-07-23 19:13:30.7790,-0.644,-0.658,-1.34,2.14,9.55,9.26,49.27935220662312,-122.90330015255195,339.15420689433813,1.8699311489879222
2024-07-23 19:13:30.7890,-0.769,-0.252,-1.195,7.53,4.2,3.67,49.27935220662312,-122.90330015255195,339.15420689433813,1.8699311489879222
2024-07-23 19:13:30.7990,-0.58,-0.287,-1.172,8.57,0.58,2.15,49.27935220662312,-122.90330015255195,339.15420689433813,1.8699311489879222
2024-07-23 19:13:30.8090,-0.26,-0.503,-1.053,6.63,1.16,1.86,49.27935220662312,-122.90330015255195,339.15420689433813,1.8699311489879222
2024-07-23 19:13:30.8190,0.116,-0.777,-0.984,0.02,5.75,0.09,49.27935220662312,-122.90330015255195,339.15420689433813,1.8699311489879222
2024-07-23 19:13:30.8290,0.408,-1.012,-1.026,0.02,5.75,0.09,49.27935220662312,-122.90330015255195,339.15420689433813,1.8699311489879222
2024-07-23 19:13:30.8390,0.472,-1.001,-1.185,-2.62,7.61,0.63,49.27935220662312,-122.90330015255195,339.15420689433813,1.8699311489879222
2024-07-23 19:13:30.8490,0.392,-0.782,-1.354,-2.17,4.22,4.25,49.27935220662312,-122.90330015255195,339.15420689433813,1.8699311489879222
2024-07-23 19:13:30.8600,0.266,-0.49,-1.477,-0.92,0.92,5.64,49.27935220662312,-122.90330015255195,339.15420689433813,1.8699311489879222
2024-07-23 19:13:30.8690,0.092,-0.298,-1.28,-0.92,0.92,5.64,49.27935220662312,-122.90330015255195,339.15420689433813,1.8699311489879222
2024-07-23 19:13:30.8790,-0.08,-0.255,-0.896,0.73,-1.23,3.81,49.27935220662312,-122.90330015255195,339.15420689433813,1.8699311489879222
2024-07-23 19:13:30.8890,-0.177,-0.253,-0.622,2.35,-1.74,0.07,49.27935220662312,-122.90330015255195,339.15420689433813,1.8699311489879222
2024-07-23 19:13:30.8990,-0.167,-0.313,-0.523,3.24,-1.71,-2.64,49.27935220662312,-122.90330015255195,339.15420689433813,1.8699311489879222
2024-07-23 19:13:30.9100,-0.076,-0.38,-0.52,3.1,-0.97,-3.69,49.27935220662312,-122.90330015255195,339.15420689433813,1.8699311489879222
2024-07-23 19:13:30.9190,0.06,-0.443,-0.551,2.2,-0.11,-3.82,49.27935220662312,-122.90330015255195,339.15420689433813,1.8699311489879222
2024-07-23 19:13:30.9300,0.198,-0.483,-0.645,0.87,0.7,-3.59,49.27935220662312,-122.90330015255195,339.15420689433813,1.8699311489879222
2024-07-23 19:13:30.9400,0.318,-0.464,-0.759,-0.47,1.26,-2.74,49.27935220662312,-122.90330015255195,339.15420689433813,1.8699311489879222
2024-07-23 19:13:30.9500,0.367,-0.422,-0.812,-2.18,0.8,-1.15,49.27935220662312,-122.90330015255195,339.15420689433813,1.8699311489879222
2024-07-23 19:13:30.9600,0.322,-0.376,-0.695,-2.18,0.8,-1.15,49.27935220662312,-122.90330015255195,339.15420689433813,1.8699311489879222
2024-07-23 19:13:30.9700,0.199,-0.305,-0.492,-1.8,0.31,-2.3,49.27935220662312,-122.90330015255195,339.15420689433813,1.8699311489879222
2024-07-23 19:13:30.9800,0.074,-0.212,-0.332,-0.65,-0.46,-4.27,49.27935220662312,-122.90330015255195,339.15420689433813,1.8699311489879222
2024-07-23 19:13:30.9900,-0.013,-0.107,-0.205,0.55,-1.49,-5.8,49.27935220662312,-122.90330015255195,339.15420689433813,1.8699311489879222
2024-07-23 19:13:31.0000,-0.033,-0.014,-0.167,1.62,-3.69,-7.31,49.27935220662312,-122.90330015255195,339.15420689433813,1.8699311489879222
2024-07-23 19:13:31.0110,-0.009,0.057,-0.225,1.62,-3.69,-7.31,49.27935220662312,-122.90330015255195,339.15420689433813,1.8699311489879222
2024-07-23 19:13:31.0200,0.022,0.102,-0.281,1.39,-4.5,-6.69,49.27935220662312,-122.90330015255195,339.15420689433813,1.8699311489879222
2024-07-23 19:13:31.0300,0.039,0.132,-0.284,1.06,-5.03,-6.1,49.27935220662312,-122.90330015255195,339.15420689433813,1.8699311489879222
2024-07-23 19:13:31.0400,0.03,0.158,-0.246,0.85,-5.39,-6.05,49.27935220662312,-122.90330015255195,339.15420689433813,1.8699311489879222
2024-07-23 19:13:31.0510,0.02,0.186,-0.203,0.89,-6.01,-6.82,49.27935220662312,-122.90330015255195,339.15420689433813,1.8699311489879222
2024-07-23 19:13:31.0620,0.013,0.156,-0.135,0.89,-6.01,-6.82,49.27935220662312,-122.90330015255195,339.15420689433813,1.8699311489879222
2024-07-23 19:13:31.0710,-0.011,0.175,-0.138,0.89,-5.77,-7.47,49.27935220662312,-122.90330015255195,339.15420689433813,1.8699311489879222
2024-07-23 19:13:31.0810,-0.051,0.344,-0.231,1.03,-6.0,-7.43,49.27935220662312,-122.90330015255195,339.15420689433813,1.8699311489879222
2024-07-23 19:13:31.0910,-0.071,0.304,0.012,1.31,-7.69,-6.51,49.27935220662312,-122.90330015255195,339.15420689433813,1.8699311489879222
2024-07-23 19:13:31.1010,-0.074,0.147,0.291,1.41,-7.31,-8.91,49.27935220662312,-122.90330015255195,339.15420689433813,1.8699311489879222
2024-07-23 19:13:31.1110,0.052,0.03,0.15,1.39,-5.75,-11.65,49.27935220662312,-122.90330015255195,339.15420689433813,1.8699311489879222
2024-07-23 19:13:31.1210,0.18,-0.076,-0.071,-1.14,-3.48,-8.14,49.27935220662312,-122.90330015255195,339.15420689433813,1.8699311489879222
2024-07-23 19:13:31.1310,0.284,-0.172,-0.33,-1.14,-3.48,-8.14,49.27935220662312,-122.90330015255195,339.15420689433813,1.8699311489879222
2024-07-23 19:13:31.1410,0.338,-0.203,-0.502,-2.75,-2.17,-3.94,49.27935220662312,-122.90330015255195,339.15420689433813,1.8699311489879222
2024-07-23 19:13:31.1520,0.353,-0.204,-0.66,-2.93,-2.18,-2.39,49.27935220662312,-122.90330015255195,339.15420689433813,1.8699311489879222
2024-07-23 19:13:31.1620,0.35,-0.217,-0.878,-2.93,-2.18,-2.39,49.27935220662312,-122.90330015255195,339.15420689433813,1.8699311489879222
2024-07-23 19:13:31.1710,0.326,-0.326,-1.015,-2.94,-2.08,-0.24,49.279350703462654,-122.90330534840967,337.1799158677459,1.401486661886848
2024-07-23 19:13:31.1810,0.276,-0.474,-0.936,-2.76,-1.05,1.12,49.279350703462654,-122.90330534840967,337.1799158677459,1.401486661886848
2024-07-23 19:13:31.1910,0.26,-0.595,-0.937,-2.16,1.53,0.38,49.279350703462654,-122.90330534840967,337.1799158677459,1.401486661886848
2024-07-23 19:13:31.2020,0.297,-0.547,-1.091,-2.16,1.53,0.38,49.279350703462654,-122.90330534840967,337.1799158677459,1.401486661886848
2024-07-23 19:13:31.2110,0.247,-0.47,-1.286,-2.55,1.08,1.88,49.279350703462654,-122.90330534840967,337.1799158677459,1.401486661886848
2024-07-23 19:13:31.2220,0.211,-0.418,-1.387,-1.79,-0.03,4.71,49.279350703462654,-122.90330534840967,337.1799158677459,1.401486661886848
2024-07-23 19:13:31.2320,0.185,-0.333,-1.366,-1.79,-0.03,4.71,49.279350703462654,-122.90330534840967,337.1799158677459,1.401486661886848
2024-07-23 19:13:31.2420,0.172,-0.301,-1.306,-1.59,-0.74,4.43,49.279350703462654,-122.90330534840967,337.1799158677459,1.401486661886848
2024-07-23 19:13:31.2520,0.234,-0.271,-1.358,-1.49,-0.9,3.79,49.279350703462654,-122.90330534840967,337.1799158677459,1.401486661886848
2024-07-23 19:13:31.2620,0.317,-0.193,-1.585,-2.9,-1.61,6.39,49.279350703462654,-122.90330534840967,337.1799158677459,1.401486661886848
2024-07-23 19:13:31.2720,0.332,-0.088,-1.838,-2.9,-1.61,6.39,49.279350703462654,-122.90330534840967,337.1799158677459,1.401486661886848
2024-07-23 19:13:31.2820,0.26,-0.03,-1.974,-3.03,-2.49,8.81,49.279350703462654,-122.90330534840967,337.1799158677459,1.401486661886848
2024-07-23 19:13:31.2920,0.172,-0.007,-1.996,-2.34,-2.94,10.09,49.279350703462654,-122.90330534840967,337.1799158677459,1.401486661886848
2024-07-23 19:13:31.3040,0.111,-0.016,-1.878,-1.51,-3.07,10.28,49.279350703462654,-122.90330534840967,337.1799158677459,1.401486661886848
2024-07-23 19:13:31.3120,0.095,-0.097,-1.724,-0.96,-2.91,9.1,49.279350703462654,-122.90330534840967,337.1799158677459,1.401486661886848
2024-07-23 19:13:31.3220,0.08,-0.182,-1.567,-0.84,-2.06,7.57,49.279350703462654,-122.90330534840967,337.1799158677459,1.401486661886848
2024-07-23 19:13:31.3320,0.031,-0.23,-1.399,-0.76,-1.18,6.01,49.279350703462654,-122.90330534840967,337.1799158677459,1.401486661886848
2024-07-23 19:13:31.3430,-0.03,-0.224,-1.268,-0.32,-0.69,4.36,49.279350703462654,-122.90330534840967,337.1799158677459,1.401486661886848
2024-07-23 19:13:31.3530,-0.087,-0.203,-1.139,0.81,-0.92,1.8,49.279350703462654,-122.90330534840967,337.1799158677459,1.401486661886848
2024-07-23 19:13:31.3630,-0.129,-0.2,-1.047,0.81,-0.92,1.8,49.279350703462654,-122.90330534840967,337.1799158677459,1.401486661886848
2024-07-23 19:13:31.3730,-0.138,-0.197,-1.006,1.35,-0.93,0.48,49.279350703462654,-122.90330534840967,337.1799158677459,1.401486661886848
2024-07-23 19:13:31.3840,-0.12,-0.212,-1.009,1.35,-0.93,0.48,49.279350703462654,-122.90330534840967,337.1799158677459,1.401486661886848
2024-07-23 19:13:31.3930,-0.096,-0.246,-1.001,1.2,-0.74,0.5,49.279350703462654,-122.90330534840967,337.1799158677459,1.401486661886848
2024-07-23 19:13:31.4030,-0.067,-0.268,-0.949,0.98,-0.36,0.4,49.279350703462654,-122.90330534840967,337.1799158677459,1.401486661886848
2024-07-23 19:13:31.4130,-0.031,-0.267,-0.898,0.69,-0.09,-0.12,49.279350703462654,-122.90330534840967,337.1799158677459,1.401486661886848
2024-07-23 19:13:31.4230,-0.008,-0.263,-0.839,0.33,-0.06,-0.63,49.279350703462654,-122.90330534840967,337.1799158677459,1.401486661886848
2024-07-23 19:13:31.4330,-0.01,-0.255,-0.769,0.1,-0.06,-1.22,49.279350703462654,-122.90330534840967,337.1799158677459,1.401486661886848
2024-07-23 19:13:31.4430,-0.021,-0.255,-0.691,0.11,-0.13,-1.91,49.279350703462654,-122.90330534840967,337.1799158677459,1.401486661886848
2024-07-23 19:13:31.4530,-0.038,-0.226,-0.574,0.23,-0.13,-2.68,49.279350703462654,-122.90330534840967,337.1799158677459,1.401486661886848
2024-07-23 19:13:31.4640,-0.037,-0.24,-0.607,0.42,-0.48,-3.81,49.279350703462654,-122.90330534840967,337.1799158677459,1.401486661886848
2024-07-23 19:13:31.4730,-0.02,-0.281,-0.551,0.44,-0.41,-3.46,49.279350703462654,-122.90330534840967,337.1799158677459,1.401486661886848
2024-07-23 19:13:31.4840,-0.016,-0.268,-0.563,0.29,-0.31,-3.84,49.279350703462654,-122.90330534840967,337.1799158677459,1.401486661886848
2024-07-23 19:13:31.4940,-0.028,-0.258,-0.563,0.29,-0.31,-3.84,49.279350703462654,-122.90330534840967,337.1799158677459,1.401486661886848
2024-07-23 19:13:31.5040,-0.03,-0.295,-0.56,0.41,-0.48,-3.81,49.279350703462654,-122.90330534840967,337.1799158677459,1.401486661886848
2024-07-23 19:13:31.5140,-0.025,-0.322,-0.516,0.42,-0.18,-3.83,49.279350703462654,-122.90330534840967,337.1799158677459,1.401486661886848
2024-07-23 19:13:31.5240,-0.037,-0.334,-0.417,0.34,0.04,-4.24,49.279350703462654,-122.90330534840967,337.1799158677459,1.401486661886848
2024-07-23 19:13:31.5340,-0.05,-0.314,-0.358,0.44,0.13,-5.21,49.279350703462654,-122.90330534840967,337.1799158677459,1.401486661886848
2024-07-23 19:13:31.5440,-0.059,-0.304,-0.341,0.54,-0.1,-5.78,49.279350703462654,-122.90330534840967,337.1799158677459,1.401486661886848
2024-07-23 19:13:31.5540,-0.067,-0.296,-0.35,0.62,-0.23,-5.93,49.279350703462654,-122.90330534840967,337.1799158677459,1.401486661886848
2024-07-23 19:13:31.5640,-0.076,-0.293,-0.402,0.7,-0.34,-5.83,49.279350703462654,-122.90330534840967,337.1799158677459,1.401486661886848

