time,gFx,gFy,gFz,ax,ay,az,latitude,longitude,altitude,speed
2024-07-23 19:9:48.4430,0.092,-0.345,-0.993,0.15,-0.22,0.51,49.27906864556098,-122.90309963057489,336.30904158204794,0.9943313782651719
2024-07-23 19:12:32.1430,0.095,-0.347,-1.011,0.12,-0.19,0.65,49.27906864556098,-122.90309963057489,336.30904158204794,0.9943313782651719
2024-07-23 19:12:32.1500,0.096,-0.361,-1.024,0.09,-0.11,0.81,49.27906864556098,-122.90309963057489,336.30904158204794,0.9943313782651719
2024-07-23 19:12:32.1610,0.105,-0.354,-1.032,0.07,0.09,0.92,49.27906864556098,-122.90309963057489,336.30904158204794,0.9943313782651719
2024-07-23 19:12:32.1700,0.097,-0.352,-1.018,-0.04,0.08,0.97,49.279078846457175,-122.90309601361753,336.24122810643166,0.8114940324232885
2024-07-23 19:12:32.1800,0.098,-0.337,-0.99,0.02,0.12,0.8,49.279078846457175,-122.90309601361753,336.24122810643166,0.8114940324232885
2024-07-23 19:12:32.1910,0.095,-0.312,-0.968,-0.02,0.05,0.49,49.279078846457175,-122.90309601361753,336.24122810643166,0.8114940324232885
2024-07-23 19:12:32.2010,0.09,-0.323,-0.944,-0.02,-0.12,0.26,49.279078846457175,-122.90309601361753,336.24122810643166,0.8114940324232885
2024-07-23 19:12:32.2110,0.1,-0.303,-0.927,0.0,0.06,-0.01,49.279078846457175,-122.90309601361753,336.24122810643166,0.8114940324232885
2024-07-23 19:12:32.2210,0.118,-0.293,-0.922,-0.12,-0.08,-0.19,49.279078846457175,-122.90309601361753,336.24122810643166,0.8114940324232885
2024-07-23 19:12:32.2310,0.128,-0.29,-0.93,-0.32,-0.12,-0.27,49.279078846457175,-122.90309601361753,336.24122810643166,0.8114940324232885
2024-07-23 19:12:32.2410,0.125,-0.297,-0.955,-0.43,-0.09,-0.21,49.279078846457175,-122.90309601361753,336.24122810643166,0.8114940324232885
2024-07-23 19:12:32.2510,0.13,-0.301,-0.962,-0.43,0.03,0.02,49.279078846457175,-122.90309601361753,336.24122810643166,0.8114940324232885
2024-07-23 19:12:32.2620,0.135,-0.303,-0.965,-0.51,0.11,0.08,49.279078846457175,-122.90309601361753,336.24122810643166,0.8114940324232885
2024-07-23 19:12:32.2710,0.137,-0.312,-0.966,-0.6318934658914804,0.3208846700191498,0.08,49.279078846457175,-122.90309601361753,336.24122810643166,0.8114940324232885
2024-07-23 19:12:32.2820,0.138,-0.316,-0.964,-0.64,0.32,0.08,49.279078846457175,-122.90309601361753,336.24122810643166,0.8114940324232885
2024-07-23 19:12:32.2920,0.133,-0.317,-0.954,-0.68,0.4,0.04,49.279078846457175,-122.90309601361753,336.24122810643166,0.8114940324232885
2024-07-23 19:12:32.3020,0.124,-0.317,-0.946,-0.62,0.52,-0.17,49.279078846457175,-122.90309601361753,336.24122810643166,0.8114940324232885
2024-07-23 19:12:32.3130,0.116,-0.309,-0.947,-0.62,0.52,-0.17,49.279078846457175,-122.90309601361753,336.24122810643166,0.8114940324232885
2024-07-23 19:12:32.3220,0.112,-0.293,-0.95,-0.55,0.37,-0.16,49.279078846457175,-122.90309601361753,336.24122810643166,0.8114940324232885
2024-07-23 19:12:32.3320,0.111,-0.277,-0.949,-0.55,0.37,-0.16,49.279078846457175,-122.90309601361753,336.24122810643166,0.8114940324232885
2024-07-23 19:12:32.3420,0.111,-0.265,-0.952,-0.55,0.25,-0.18,49.279078846457175,-122.90309601361753,336.24122810643166,0.8114940324232885
2024-07-23 19:12:32.3520,0.112,-0.256,-0.95,-0.56,0.05,-0.17,49.279078846457175,-122.90309601361753,336.24122810643166,0.8114940324232885
2024-07-23 19:12:32.3630,0.116,-0.252,-0.947,-0.56,0.05,-0.17,49.279078846457175,-122.90309601361753,336.24122810643166,0.8114940324232885
2024-07-23 19:12:32.3720,0.121,-0.255,-0.931,-0.59,0.0,-0.2,49.279078846457175,-122.90309601361753,336.24122810643166,0.8114940324232885
2024-07-23 19:12:32.3820,0.117,-0.267,-0.924,-0.62,0.01,-0.34,49.279078846457175,-122.90309601361753,336.24122810643166,0.8114940324232885
2024-07-23 19:12:32.3920,0.115,-0.278,-0.922,-0.56,0.11,-0.4,49.279078846457175,-122.90309601361753,336.24122810643166,0.8114940324232885
2024-07-23 19:12:32.4020,0.117,-0.281,-0.922,-0.51,0.18,-0.42,49.279078846457175,-122.90309601361753,336.24122810643166,0.8114940324232885
2024-07-23 19:12:32.4130,0.112,-0.275,-0.923,-0.5,0.19,-0.41,49.279078846457175,-122.90309601361753,336.24122810643166,0.8114940324232885
2024-07-23 19:12:32.4230,0.101,-0.265,-0.926,-0.44,0.12,-0.39,49.279078846457175,-122.90309601361753,336.24122810643166,0.8114940324232885
2024-07-23 19:12:32.4330,0.088,-0.252,-0.92,-0.31,0.02,-0.36,49.279078846457175,-122.90309601361753,336.24122810643166,0.8114940324232885
2024-07-23 19:12:32.4430,0.079,-0.235,-0.905,-0.16,-0.1,-0.42,49.279078846457175,-122.90309601361753,336.24122810643166,0.8114940324232885
2024-07-23 19:12:32.4530,0.072,-0.213,-0.878,-0.07,-0.25,-0.58,49.279078846457175,-122.90309601361753,336.24122810643166,0.8114940324232885
2024-07-23 19:12:32.4630,0.061,-0.199,-0.843,0.0,-0.45,-0.85,49.279078846457175,-122.90309601361753,336.24122810643166,0.8114940324232885
2024-07-23 19:12:32.4730,0.048,-0.199,-0.802,0.1,-0.56,-1.19,49.279078846457175,-122.90309601361753,336.24122810643166,0.8114940324232885
2024-07-23 19:12:32.4830,0.032,-0.21,-0.757,0.39,-0.43,-2.05,49.279078846457175,-122.90309601361753,336.24122810643166,0.8114940324232885
2024-07-23 19:12:32.4930,0.025,-0.219,-0.71,0.39,-0.43,-2.05,49.279078846457175,-122.90309601361753,336.24122810643166,0.8114940324232885
2024-07-23 19:12:32.5030,0.019,-0.229,-0.674,0.48,-0.33,-2.5,49.279078846457175,-122.90309601361753,336.24122810643166,0.8114940324232885
2024-07-23 19:12:32.5130,0.013,-0.239,-0.629,0.56,-0.22,-2.86,49.279078846457175,-122.90309601361753,336.24122810643166,0.8114940324232885
2024-07-23 19:12:32.5230,0.009,-0.244,-0.597,0.65,-0.12,-3.3,49.279078846457175,-122.90309601361753,336.24122810643166,0.8114940324232885
2024-07-23 19:12:32.5330,0.006,-0.24,-0.594,0.74,-0.07,-3.61,49.279078846457175,-122.90309601361753,336.24122810643166,0.8114940324232885
2024-07-23 19:12:32.5430,-0.001,-0.237,-0.595,0.83,-0.1,-3.64,49.279078846457175,-122.90309601361753,336.24122810643166,0.8114940324232885
2024-07-23 19:12:32.5530,-0.008,-0.231,-0.591,0.95,-0.12,-3.62,49.279078846457175,-122.90309601361753,336.24122810643166,0.8114940324232885
2024-07-23 19:12:32.5640,0.005,-0.234,-0.61,1.09,-0.17,-3.65,49.279078846457175,-122.90309601361753,336.24122810643166,0.8114940324232885
2024-07-23 19:12:32.5740,-0.003,-0.225,-0.614,1.03,-0.13,-3.47,49.279078846457175,-122.90309601361753,336.24122810643166,0.8114940324232885
2024-07-23 19:12:32.5840,-0.013,-0.198,-0.572,1.17,-0.19,-3.42,49.279078846457175,-122.90309601361753,336.24122810643166,0.8114940324232885
2024-07-23 19:12:32.5940,0.002,-0.186,-0.547,1.34,-0.44,-3.83,49.279078846457175,-122.90309601361753,336.24122810643166,0.8114940324232885
2024-07-23 19:12:32.6040,-0.002,-0.183,-0.562,1.25,-0.55,-4.07,49.279078846457175,-122.90309601361753,336.24122810643166,0.8114940324232885
2024-07-23 19:12:32.6140,-0.009,-0.16,-0.557,1.34,-0.57,-3.92,49.279078846457175,-122.90309601361753,336.24122810643166,0.8114940324232885
2024-07-23 19:12:32.6240,-0.009,-0.131,-0.529,1.51,-1.07,-4.23,49.279078846457175,-122.90309601361753,336.24122810643166,0.8114940324232885
2024-07-23 19:12:32.6340,-0.01,-0.122,-0.489,1.51,-1.07,-4.23,49.279078846457175,-122.90309601361753,336.24122810643166,0.8114940324232885
2024-07-23 19:12:32.6440,-0.008,-0.126,-0.454,1.56,-1.16,-4.62,49.279078846457175,-122.90309601361753,336.24122810643166,0.8114940324232885
2024-07-23 19:12:32.6540,0.001,-0.126,-0.444,1.58,-1.13,-4.95,49.279078846457175,-122.90309601361753,336.24122810643166,0.8114940324232885
2024-07-23 19:12:32.6640,0.017,-0.11,-0.45,1.54,-1.14,-5.04,49.279078846457175,-122.90309601361753,336.24122810643166,0.8114940324232885
2024-07-23 19:12:32.6740,0.035,-0.084,-0.478,1.3,-1.58,-4.68,49.279078846457175,-122.90309601361753,336.24122810643166,0.8114940324232885
2024-07-23 19:12:32.6850,0.05,-0.062,-0.513,1.3,-1.58,-4.68,49.279078846457175,-122.90309601361753,336.24122810643166,0.8114940324232885
2024-07-23 19:12:32.6940,0.057,-0.053,-0.53,1.18,-1.8,-4.34,49.279078846457175,-122.90309601361753,336.24122810643166,0.8114940324232885
2024-07-23 19:12:32.7040,0.067,-0.056,-0.531,1.14,-1.91,-4.16,49.279078846457175,-122.90309601361753,336.24122810643166,0.8114940324232885
2024-07-23 19:12:32.7150,0.076,-0.061,-0.536,1.05,-1.89,-4.14,49.279078846457175,-122.90309601361753,336.24122810643166,0.8114940324232885
2024-07-23 19:12:32.7250,0.076,-0.059,-0.52,0.96,-1.87,-4.09,49.279078846457175,-122.90309601361753,336.24122810643166,0.8114940324232885
2024-07-23 19:12:32.7350,0.076,-0.058,-0.483,0.95,-1.93,-4.6,49.279078846457175,-122.90309601361753,336.24122810643166,0.8114940324232885
2024-07-23 19:12:32.7450,0.087,-0.06,-0.449,0.95,-1.93,-4.6,49.279078846457175,-122.90309601361753,336.24122810643166,0.8114940324232885
2024-07-23 19:12:32.7550,0.109,-0.057,-0.464,0.84,-1.92,-4.93,49.279078846457175,-122.90309601361753,336.24122810643166,0.8114940324232885
2024-07-23 19:12:32.7650,0.14,-0.046,-0.537,0.33,-2.07,-4.06,49.279078846457175,-122.90309601361753,336.24122810643166,0.8114940324232885
2024-07-23 19:12:32.7750,0.186,-0.021,-0.622,-0.13,-2.3,-3.23,49.279078846457175,-122.90309601361753,336.24122810643166,0.8114940324232885
2024-07-23 19:12:32.7860,0.224,0.019,-0.696,-0.13,-2.3,-3.23,49.279078846457175,-122.90309601361753,336.24122810643166,0.8114940324232885
2024-07-23 19:12:32.7960,0.247,0.055,-0.741,-0.54,-2.68,-2.52,49.279078846457175,-122.90309601361753,336.24122810643166,0.8114940324232885
2024-07-23 19:12:32.8050,0.257,0.066,-0.736,-0.99,-3.13,-2.16,49.279078846457175,-122.90309601361753,336.24122810643166,0.8114940324232885
2024-07-23 19:12:32.8150,0.253,0.051,-0.71,-0.99,-3.13,-2.16,49.279078846457175,-122.90309601361753,336.24122810643166,0.8114940324232885
2024-07-23 19:12:32.8250,0.24,0.021,-0.681,-1.04,-2.96,-2.43,49.279078846457175,-122.90309601361753,336.24122810643166,0.8114940324232885
2024-07-23 19:12:32.8360,0.226,-0.015,-0.682,-1.01,-2.64,-2.74,49.279078846457175,-122.90309601361753,336.24122810643166,0.8114940324232885
2024-07-23 19:12:32.8460,0.222,-0.045,-0.712,-0.96,-2.24,-2.74,49.279078846457175,-122.90309601361753,336.24122810643166,0.8114940324232885
2024-07-23 19:12:32.8560,0.233,-0.05,-0.782,-1.13,-1.73,-1.82,49.279078846457175,-122.90309601361753,336.24122810643166,0.8114940324232885
2024-07-23 19:12:32.8660,0.244,-0.032,-0.907,-1.13,-1.73,-1.82,49.279078846457175,-122.90309601361753,336.24122810643166,0.8114940324232885
2024-07-23 19:12:32.8760,0.254,-0.015,-1.065,-1.27,-1.8,-0.62,49.279078846457175,-122.90309601361753,336.24122810643166,0.8114940324232885
2024-07-23 19:12:32.8860,0.269,0.007,-1.204,-1.59,-1.96,2.23,49.279078846457175,-122.90309601361753,336.24122810643166,0.8114940324232885
2024-07-23 19:12:32.8960,0.278,0.026,-1.303,-1.59,-1.96,2.23,49.279078846457175,-122.90309601361753,336.24122810643166,0.8114940324232885
2024-07-23 19:12:32.9060,0.282,0.035,-1.36,-1.84,-2.07,3.73,49.279078846457175,-122.90309601361753,336.24122810643166,0.8114940324232885
2024-07-23 19:12:32.9160,0.28,0.041,-1.372,-1.84,-2.07,3.73,49.279078846457175,-122.90309601361753,336.24122810643166,0.8114940324232885
2024-07-23 19:12:32.9260,0.253,0.033,-1.333,-1.91,-2.06,3.82,49.279078846457175,-122.90309601361753,336.24122810643166,0.8114940324232885
2024-07-23 19:12:32.9360,0.217,0.003,-1.269,-1.45,-1.62,2.79,49.279078846457175,-122.90309601361753,336.24122810643166,0.8114940324232885
2024-07-23 19:12:32.9470,0.171,-0.05,-1.204,-1.05,-1.1,2.15,49.279078846457175,-122.90309601361753,336.24122810643166,0.8114940324232885
2024-07-23 19:12:32.9570,0.12,-0.118,-1.159,-1.05,-1.1,2.15,49.279078846457175,-122.90309601361753,336.24122810643166,0.8114940324232885
2024-07-23 19:12:32.9670,0.09,-0.17,-1.161,-0.57,-0.44,1.71,49.279078846457175,-122.90309601361753,336.24122810643166,0.8114940324232885
2024-07-23 19:12:32.9770,0.081,-0.201,-1.187,-0.16,0.31,1.99,49.279078846457175,-122.90309601361753,336.24122810643166,0.8114940324232885
2024-07-23 19:12:32.9870,0.086,-0.234,-1.238,-0.16,0.31,1.99,49.279078846457175,-122.90309601361753,336.24122810643166,0.8114940324232885
2024-07-23 19:12:32.9970,0.086,-0.258,-1.302,-0.19,0.6,2.5,49.279078846457175,-122.90309601361753,336.24122810643166,0.8114940324232885
2024-07-23 19:12:33.0070,0.068,-0.294,-1.346,0.02,1.16,3.56,49.279078846457175,-122.90309601361753,336.24122810643166,0.8114940324232885
2024-07-23 19:12:33.0170,0.043,-0.346,-1.38,0.02,1.16,3.56,49.279078846457175,-122.90309601361753,336.24122810643166,0.8114940324232885
2024-07-23 19:12:33.0270,0.012,-0.39,-1.419,0.27,1.66,3.9,49.279078846457175,-122.90309601361753,336.24122810643166,0.8114940324232885
2024-07-23 19:12:33.0370,-0.013,-0.432,-1.45,0.59,2.11,4.28,49.279078846457175,-122.90309601361753,336.24122810643166,0.8114940324232885
2024-07-23 19:12:33.0470,-0.028,-0.47,-1.492,0.99,2.96,4.98,49.279078846457175,-122.90309601361753,336.24122810643166,0.8114940324232885
2024-07-23 19:12:33.0570,-0.035,-0.485,-1.542,1.07,3.16,5.47,49.279078846457175,-122.90309601361753,336.24122810643166,0.8114940324232885
2024-07-23 19:12:33.0670,-0.042,-0.489,-1.613,1.07,3.16,5.47,49.279078846457175,-122.90309601361753,336.24122810643166,0.8114940324232885
2024-07-23 19:12:33.0780,-0.049,-0.502,-1.704,1.23,3.44,7.04,49.279078846457175,-122.90309601361753,336.24122810643166,0.8114940324232885
2024-07-23 19:12:33.0880,-0.063,-0.502,-1.768,1.39,3.5,7.66,49.279078846457175,-122.90309601361753,336.24122810643166,0.8114940324232885
2024-07-23 19:12:33.0980,-0.073,-0.507,-1.829,1.51,3.58,8.26,49.279078846457175,-122.90309601361753,336.24122810643166,0.8114940324232885
2024-07-23 19:12:33.1080,-0.071,-0.524,-1.894,1.51,3.77,8.89,49.279078846457175,-122.90309601361753,336.24122810643166,0.8114940324232885
2024-07-23 19:12:33.1180,-0.065,-0.549,-1.962,1.49,4.03,9.56,49.279078846457175,-122.90309601361753,336.24122810643166,0.8114940324232885
2024-07-23 19:12:33.1300,-0.056,-0.585,-2.038,1.49,4.03,9.56,49.279078846457175,-122.90309601361753,336.24122810643166,0.8114940324232885
2024-07-23 19:12:33.1390,-0.031,-0.626,-2.151,1.27,4.84,11.42,49.279078846457175,-122.90309601361753,336.24122810643166,0.8114940324232885
2024-07-23 19:12:33.1500,0.008,-0.664,-2.321,0.96,5.27,13.09,49.279078846457175,-122.90309601361753,336.24122810643166,0.8114940324232885
2024-07-23 19:12:33.1590,0.068,-0.673,-2.539,0.96,5.27,13.09,49.279078846457175,-122.90309601361753,336.24122810643166,0.8114940324232885
2024-07-23 19:12:33.1680,0.152,-0.636,-2.739,0.45,5.42,15.23,49.279078846457175,-122.90309601361753,336.24122810643166,0.8114940324232885
2024-07-23 19:12:33.1790,0.234,-0.587,-2.91,-0.31,5.12,17.19,49.27908356020212,-122.90309423793072,336.8752323538065,0.457230544307621
2024-07-23 19:12:33.1880,0.329,-0.505,-3.064,-1.07,4.69,18.87,49.27908356020212,-122.90309423793072,336.8752323538065,0.457230544307621
2024-07-23 19:12:33.1880,0.405,-0.432,-3.14,-2.0,3.93,20.38,49.27908356020212,-122.90309423793072,336.8752323538065,0.457230544307621
2024-07-23 19:12:33.1880,0.419,-0.425,-3.038,-2.78,3.23,21.12,49.27908356020212,-122.90309423793072,336.8752323538065,0.457230544307621
2024-07-23 19:12:33.2200,0.394,-0.466,-2.825,-3.01,3.13,20.11,49.27908356020212,-122.90309423793072,336.8752323538065,0.457230544307621
2024-07-23 19:12:33.2280,0.357,-0.501,-2.57,-2.86,3.48,18.01,49.27908356020212,-122.90309423793072,336.8752323538065,0.457230544307621
2024-07-23 19:12:33.2380,0.302,-0.509,-2.347,-2.57,3.74,15.51,49.27908356020212,-122.90309423793072,336.8752323538065,0.457230544307621
2024-07-23 19:12:33.2480,0.279,-0.495,-2.201,-1.84,3.49,11.91,49.27908356020212,-122.90309423793072,336.8752323538065,0.457230544307621
2024-07-23 19:12:33.2590,0.321,-0.436,-2.145,-1.84,3.49,11.91,49.27908356020212,-122.90309423793072,336.8752323538065,0.457230544307621
2024-07-23 19:12:33.2690,0.404,-0.335,-2.232,-2.21,2.78,11.39,49.27908356020212,-122.90309423793072,336.8752323538065,0.457230544307621
2024-07-23 19:12:33.2790,0.495,-0.214,-2.338,-2.96,1.67,12.26,49.27908356020212,-122.90309423793072,336.8752323538065,0.457230544307621
2024-07-23 19:12:33.2890,0.568,-0.093,-2.361,-3.82,0.37,13.33,49.27908356020212,-122.90309423793072,336.8752323538065,0.457230544307621
2024-07-23 19:12:33.2990,0.557,-0.003,-2.302,-4.45,-1.93,13.01,49.27908356020212,-122.90309423793072,336.8752323538065,0.457230544307621
2024-07-23 19:12:33.3090,0.531,0.087,-2.086,-4.45,-1.93,13.01,49.27908356020212,-122.90309423793072,336.8752323538065,0.457230544307621
2024-07-23 19:12:33.3190,0.47,0.144,-1.827,-4.22,-2.93,10.92,49.27908356020212,-122.90309423793072,336.8752323538065,0.457230544307621
2024-07-23 19:12:33.3290,0.401,0.171,-1.631,-2.88,-4.02,6.52,49.27908356020212,-122.90309423793072,336.8752323538065,0.457230544307621
2024-07-23 19:12:33.3390,0.353,0.187,-1.538,-2.88,-4.02,6.52,49.27908356020212,-122.90309423793072,336.8752323538065,0.457230544307621
2024-07-23 19:12:33.3500,0.322,0.225,-1.558,-2.32,-4.33,5.66,49.27908356020212,-122.90309423793072,336.8752323538065,0.457230544307621
2024-07-23 19:12:33.3590,0.335,0.301,-1.557,-1.91,-4.86,5.91,49.27908356020212,-122.90309423793072,336.8752323538065,0.457230544307621
2024-07-23 19:12:33.3700,0.361,0.367,-1.463,-2.11,-6.51,5.09,49.27908356020212,-122.90309423793072,336.8752323538065,0.457230544307621
2024-07-23 19:12:33.3850,0.336,0.362,-1.319,-2.11,-6.51,5.09,49.27908356020212,-122.90309423793072,336.8752323538065,0.457230544307621
2024-07-23 19:12:33.3890,0.305,0.273,-1.096,-1.8,-6.55,3.71,49.27908356020212,-122.90309423793072,336.8752323538065,0.457230544307621
2024-07-23 19:12:33.3990,0.266,0.09,-0.835,-0.91,-3.95,-0.98,49.27908356020212,-122.90309423793072,336.8752323538065,0.457230544307621
2024-07-23 19:12:33.4100,0.258,-0.121,-0.622,-0.91,-3.95,-0.98,49.27908356020212,-122.90309423793072,336.8752323538065,0.457230544307621
2024-07-23 19:12:33.4190,0.292,-0.287,-0.542,-0.75,-0.3,-3.75,49.27908356020212,-122.90309423793072,336.8752323538065,0.457230544307621
2024-07-23 19:12:33.4300,0.324,-0.373,-0.594,-0.82,0.49,-3.16,49.27908356020212,-122.90309423793072,336.8752323538065,0.457230544307621
2024-07-23 19:12:33.4400,0.295,-0.406,-0.703,-0.33,0.76,-2.01,49.27908356020212,-122.90309423793072,336.8752323538065,0.457230544307621
2024-07-23 19:12:33.4500,0.179,-0.41,-0.826,0.94,0.73,-0.75,49.27908356020212,-122.90309423793072,336.8752323538065,0.457230544307621
2024-07-23 19:12:33.4600,-0.041,-0.383,-0.925,0.94,0.73,-0.75,49.27908356020212,-122.90309423793072,336.8752323538065,0.457230544307621
2024-07-23 19:12:33.4700,-0.275,-0.364,-0.945,5.38,0.26,0.42,49.27908356020212,-122.90309423793072,336.8752323538065,0.457230544307621
2024-07-23 19:12:33.4800,-0.431,-0.348,-0.847,6.82,0.14,-0.57,49.27908356020212,-122.90309423793072,336.8752323538065,0.457230544307621
2024-07-23 19:12:33.4900,-0.45,-0.345,-0.631,6.82,0.14,-0.57,49.27908356020212,-122.90309423793072,336.8752323538065,0.457230544307621
2024-07-23 19:12:33.5000,-0.38,-0.358,-0.404,6.91,0.13,-2.73,49.27908356020212,-122.90309423793072,336.8752323538065,0.457230544307621
2024-07-23 19:12:33.5110,-0.282,-0.352,-0.229,5.07,0.12,-6.69,49.27908356020212,-122.90309423793072,336.8752323538065,0.457230544307621
2024-07-23 19:12:33.5200,-0.146,-0.336,-0.079,3.65,-0.14,-8.15,49.27908356020212,-122.90309423793072,336.8752323538065,0.457230544307621
2024-07-23 19:12:33.5310,-0.052,-0.286,0.01,3.65,-0.14,-8.15,49.27908356020212,-122.90309423793072,336.8752323538065,0.457230544307621
2024-07-23 19:12:33.5400,-0.024,-0.181,0.073,2.26,-1.98,-9.56,49.27908356020212,-122.90309423793072,336.8752323538065,0.457230544307621
2024-07-23 19:12:33.5510,-0.039,-0.031,0.121,2.26,-1.98,-9.56,49.27908356020212,-122.90309423793072,336.8752323538065,0.457230544307621
2024-07-23 19:12:33.5610,-0.088,0.113,0.135,2.29,-3.61,-9.98,49.27908356020212,-122.90309423793072,336.8752323538065,0.457230544307621
2024-07-23 19:12:33.5710,-0.159,0.186,0.157,2.65,-5.16,-10.09,49.27908356020212,-122.90309423793072,336.8752323538065,0.457230544307621
2024-07-23 19:12:33.5810,-0.164,0.163,0.235,3.21,-5.98,-10.28,49.27908356020212,-122.90309423793072,336.8752323538065,0.457230544307621
2024-07-23 19:12:33.5910,-0.119,0.079,0.327,2.54,-5.02,-11.94,49.27908356020212,-122.90309423793072,336.8752323538065,0.457230544307621
2024-07-23 19:12:33.6010,-0.057,-0.026,0.403,2.54,-5.02,-11.94,49.27908356020212,-122.90309423793072,336.8752323538065,0.457230544307621
2024-07-23 19:12:33.6110,-0.015,-0.139,0.451,1.27,-2.88,-13.2,49.27908356020212,-122.90309423793072,336.8752323538065,0.457230544307621
2024-07-23 19:12:33.6210,0.009,-0.24,0.467,1.27,-2.88,-13.2,49.27908356020212,-122.90309423793072,336.8752323538065,0.457230544307621
2024-07-23 19:12:33.6310,0.017,-0.281,0.474,0.73,-1.5,-13.45,49.27908356020212,-122.90309423793072,336.8752323538065,0.457230544307621
2024-07-23 19:12:33.6410,-0.009,-0.248,0.456,0.73,-1.5,-13.45,49.27908356020212,-122.90309423793072,336.8752323538065,0.457230544307621
2024-07-23 19:12:33.6510,-0.046,-0.189,0.405,1.17,-2.43,-12.77,49.27908356020212,-122.90309423793072,336.8752323538065,0.457230544307621
2024-07-23 19:12:33.6620,-0.065,-0.132,0.382,1.29,-3.0,-12.55,49.27908356020212,-122.90309423793072,336.8752323538065,0.457230544307621
2024-07-23 19:12:33.6720,-0.071,-0.108,0.375,1.29,-3.24,-12.48,49.27908356020212,-122.90309423793072,336.8752323538065,0.457230544307621
2024-07-23 19:12:33.6820,-0.054,-0.104,0.384,1.29,-3.24,-12.48,49.27908356020212,-122.90309423793072,336.8752323538065,0.457230544307621
2024-07-23 19:12:33.6910,-0.037,-0.1,0.37,1.07,-3.27,-12.58,49.27908356020212,-122.90309423793072,336.8752323538065,0.457230544307621
2024-07-23 19:12:33.7020,-0.02,-0.088,0.306,0.87,-3.28,-12.46,49.27908356020212,-122.90309423793072,336.8752323538065,0.457230544307621
2024-07-23 19:12:33.7120,-0.008,-0.069,0.206,0.68,-3.35,-11.85,49.27908356020212,-122.90309423793072,336.8752323538065,0.457230544307621
2024-07-23 19:12:33.7220,-0.003,-0.036,0.107,0.47,-3.74,-9.96,49.27908356020212,-122.90309423793072,336.8752323538065,0.457230544307621
2024-07-23 19:12:33.7320,-0.008,0.003,0.034,0.47,-3.74,-9.96,49.27908356020212,-122.90309423793072,336.8752323538065,0.457230544307621
2024-07-23 19:12:33.7420,-0.019,0.025,-0.012,0.49,-4.05,-9.28,49.27908356020212,-122.90309423793072,336.8752323538065,0.457230544307621
2024-07-23 19:12:33.7520,-0.027,0.036,-0.04,0.64,-4.25,-8.61,49.27908356020212,-122.90309423793072,336.8752323538065,0.457230544307621
2024-07-23 19:12:33.7620,-0.031,0.041,-0.044,0.7,-4.27,-8.59,49.27908356020212,-122.90309423793072,336.8752323538065,0.457230544307621
2024-07-23 19:12:33.7720,-0.025,0.032,-0.055,0.7,-4.27,-8.59,49.27908356020212,-122.90309423793072,336.8752323538065,0.457230544307621
2024-07-23 19:12:33.7820,-0.009,0.004,-0.075,0.56,-3.88,-8.29,49.27908356020212,-122.90309423793072,336.8752323538065,0.457230544307621
2024-07-23 19:12:33.7920,0.008,-0.022,-0.116,0.56,-3.88,-8.29,49.27908356020212,-122.90309423793072,336.8752323538065,0.457230544307621
2024-07-23 19:12:33.8020,0.02,-0.038,-0.168,0.42,-3.5,-7.35,49.27908356020212,-122.90309423793072,336.8752323538065,0.457230544307621
2024-07-23 19:12:33.8130,0.021,-0.052,-0.197,0.47,-3.39,-7.05,49.27908356020212,-122.90309423793072,336.8752323538065,0.457230544307621
2024-07-23 19:12:33.8230,0.012,-0.068,-0.2,0.64,-3.27,-7.0,49.27908356020212,-122.90309423793072,336.8752323538065,0.457230544307621
2024-07-23 19:12:33.8330,-0.021,-0.077,-0.182,0.64,-3.27,-7.0,49.27908356020212,-122.90309423793072,336.8752323538065,0.457230544307621
2024-07-23 19:12:33.8430,-0.061,-0.063,-0.17,1.51,-3.43,-7.23,49.27908356020212,-122.90309423793072,336.8752323538065,0.457230544307621
2024-07-23 19:12:33.8530,-0.098,-0.058,-0.179,1.95,-3.55,-7.1,49.27908356020212,-122.90309423793072,336.8752323538065,0.457230544307621
2024-07-23 19:12:33.8630,-0.127,-0.068,-0.195,1.95,-3.55,-7.1,49.27908356020212,-122.90309423793072,336.8752323538065,0.457230544307621
2024-07-23 19:12:33.8730,-0.139,-0.074,-0.214,2.52,-3.51,-6.68,49.27908356020212,-122.90309423793072,336.8752323538065,0.457230544307621
2024-07-23 19:12:33.8830,-0.141,-0.093,-0.236,2.52,-3.51,-6.68,49.27908356020212,-122.90309423793072,336.8752323538065,0.457230544307621
2024-07-23 19:12:33.8930,-0.137,-0.121,-0.239,2.6,-3.36,-6.43,49.27908356020212,-122.90309423793072,336.8752323538065,0.457230544307621
2024-07-23 19:12:33.9030,-0.151,-0.145,-0.232,2.62,-3.11,-6.39,49.27908356020212,-122.90309423793072,336.8752323538065,0.457230544307621
2024-07-23 19:12:33.9140,-0.179,-0.168,-0.225,2.79,-2.9,-6.44,49.27908356020212,-122.90309423793072,336.8752323538065,0.457230544307621
2024-07-23 19:12:33.9240,-0.232,-0.191,-0.224,3.09,-2.71,-6.49,49.27908356020212,-122.90309423793072,336.8752323538065,0.457230544307621
2024-07-23 19:12:33.9340,-0.303,-0.193,-0.194,3.63,-2.51,-6.48,49.27908356020212,-122.90309423793072,336.8752323538065,0.457230544307621
2024-07-23 19:12:33.9440,-0.391,-0.182,-0.165,4.33,-2.55,-6.75,49.27908356020212,-122.90309423793072,336.8752323538065,0.457230544307621
2024-07-23 19:12:33.9540,-0.46,-0.15,-0.176,5.21,-2.71,-7.0,49.27908356020212,-122.90309423793072,336.8752323538065,0.457230544307621
2024-07-23 19:12:33.9640,-0.489,-0.088,-0.277,5.91,-3.09,-6.85,49.27908356020212,-122.90309423793072,336.8752323538065,0.457230544307621
2024-07-23 19:12:33.9740,-0.491,-0.035,-0.399,6.21,-3.74,-5.83,49.27908356020212,-122.90309423793072,336.8752323538065,0.457230544307621
2024-07-23 19:12:33.9840,-0.443,-0.039,-0.526,6.25,-4.31,-4.61,49.27908356020212,-122.90309423793072,336.8752323538065,0.457230544307621
2024-07-23 19:12:33.9940,-0.38,-0.121,-0.66,5.08,-3.5,-2.04,49.27908356020212,-122.90309423793072,336.8752323538065,0.457230544307621
2024-07-23 19:12:34.0060,-0.25,-0.175,-0.613,5.08,-3.5,-2.04,49.27908356020212,-122.90309423793072,336.8752323538065,0.457230544307621
2024-07-23 19:12:34.0150,-0.144,-0.226,-0.549,3.74,-2.97,-2.52,49.27908356020212,-122.90309423793072,336.8752323538065,0.457230544307621
2024-07-23 19:12:34.0240,-0.135,-0.433,-0.477,2.62,-2.48,-3.15,49.27908356020212,-122.90309423793072,336.8752323538065,0.457230544307621
2024-07-23 19:12:34.0350,-0.049,-0.65,-0.243,2.45,-0.45,-3.86,49.27908356020212,-122.90309423793072,336.8752323538065,0.457230544307621
2024-07-23 19:12:34.0440,0.113,-0.861,-0.15,1.6,1.73,-6.18,49.27908356020212,-122.90309423793072,336.8752323538065,0.457230544307621
2024-07-23 19:12:34.0550,0.296,-0.992,-0.681,0.1,3.93,-7.16,49.27908356020212,-122.90309423793072,336.8752323538065,0.457230544307621
2024-07-23 19:12:34.0650,0.273,-0.815,-1.747,-1.64,5.45,-2.06,49.27908356020212,-122.90309423793072,336.8752323538065,0.457230544307621
2024-07-23 19:12:34.0750,0.159,-0.417,-2.388,-1.52,4.0,8.25,49.27908356020212,-122.90309423793072,336.8752323538065,0.457230544307621
2024-07-23 19:12:34.0850,0.185,-0.122,-2.125,-1.17,-2.35,11.72,49.27908356020212,-122.90309423793072,336.8752323538065,0.457230544307621
2024-07-23 19:12:34.0950,0.215,-0.05,-1.628,-1.17,-2.35,11.72,49.27908356020212,-122.90309423793072,336.8752323538065,0.457230544307621
2024-07-23 19:12:34.1050,0.239,-0.081,-1.244,-1.72,-2.9,6.77,49.27908356020212,-122.90309423793072,336.8752323538065,0.457230544307621
2024-07-23 19:12:34.1150,0.274,-0.234,-1.052,-2.13,-2.42,2.94,49.27908356020212,-122.90309423793072,336.8752323538065,0.457230544307621
2024-07-23 19:12:34.1250,0.352,-0.446,-1.135,-2.55,-0.71,0.97,49.27908356020212,-122.90309423793072,336.8752323538065,0.457230544307621
2024-07-23 19:12:34.1360,0.438,-0.495,-1.344,-4.13,2.44,3.67,49.27908356020212,-122.90309423793072,336.8752323538065,0.457230544307621
2024-07-23 19:12:34.1460,0.487,-0.337,-1.623,-4.13,2.44,3.67,49.27908356020212,-122.90309423793072,336.8752323538065,0.457230544307621
2024-07-23 19:12:34.1560,0.514,-0.098,-1.926,-4.57,1.24,6.33,49.27908356020212,-122.90309423793072,336.8752323538065,0.457230544307621
2024-07-23 19:12:34.1650,0.548,0.171,-2.135,-4.82,-0.74,9.23,49.27908356020212,-122.90309423793072,336.8752323538065,0.457230544307621
2024-07-23 19:12:34.1770,0.535,0.365,-2.269,-5.15,-3.05,11.23,49.27908371438471,-122.90308658648398,336.4089090535417,0.0
2024-07-23 19:12:34.1860,0.49,0.405,-2.305,-5.07,-4.68,12.5,49.27908371438471,-122.90308658648398,336.4089090535417,0.0
2024-07-23 19:12:34.1970,0.431,0.301,-2.162,-4.73,-4.88,12.84,49.27908371438471,-122.90308658648398,336.4089090535417,0.0
2024-07-23 19:12:34.2060,0.355,0.106,-1.877,-3.73,-1.82,8.63,49.27908371438471,-122.90308658648398,336.4089090535417,0.0
2024-07-23 19:12:34.2160,0.275,-0.072,-1.542,-3.73,-0.08036690935492516,5.359333918690682,49.27908371438471,-122.90308658648398,336.4089090535417,0.0
2024-07-23 19:12:34.2260,0.198,-0.187,-1.262,-3.09,-0.09,5.35,49.27908371438471,-122.90308658648398,336.4089090535417,0.0
2024-07-23 19:12:34.2360,0.135,-0.255,-1.09,-2.44,1.01,2.62,49.27908371438471,-122.90308658648398,336.4089090535417,0.0
2024-07-23 19:12:34.2460,0.079,-0.292,-1.008,-1.87,1.65,0.93,49.27908371438471,-122.90308658648398,336.4089090535417,0.0
2024-07-23 19:12:34.2560,0.028,-0.264,-1.03,-0.77,1.69,0.35,49.27908371438471,-122.90308658648398,336.4089090535417,0.0
2024-07-23 19:12:34.2670,0.006,-0.187,-1.102,-0.77,1.69,0.35,49.27908371438471,-122.90308658648398,336.4089090535417,0.0
2024-07-23 19:12:34.2760,0.019,-0.11,-1.193,-0.51,0.92,1.05,49.27908371438471,-122.90308658648398,336.4089090535417,0.0
2024-07-23 19:12:34.2860,0.05,-0.045,-1.253,-0.58,0.12,1.94,49.27908371438471,-122.90308658648398,336.4089090535417,0.0
2024-07-23 19:12:34.2970,0.064,-0.013,-1.24,-0.86,-0.56,2.53,49.27908371438471,-122.90308658648398,336.4089090535417,0.0
2024-07-23 19:12:34.3070,0.05,-0.036,-1.179,-1.01,-0.91,2.41,49.27908371438471,-122.90308658648398,336.4089090535417,0.0
2024-07-23 19:12:34.3170,0.028,-0.101,-1.121,-0.86,-0.73,1.82,49.27908371438471,-122.90308658648398,336.4089090535417,0.0
2024-07-23 19:12:34.3270,0.0,-0.17,-1.118,-0.39,0.55,1.23,49.27908371438471,-122.90308658648398,336.4089090535417,0.0
2024-07-23 19:12:34.3370,-0.028,-0.218,-1.154,-0.39,0.55,1.23,49.27908371438471,-122.90308658648398,336.4089090535417,0.0
2024-07-23 19:12:34.3470,-0.045,-0.223,-1.196,-0.11,1.02,1.57,49.27908371438471,-122.90308658648398,336.4089090535417,0.0
2024-07-23 19:12:34.3570,-0.043,-0.187,-1.247,0.04,1.08,1.99,49.27908371438471,-122.90308658648398,336.4089090535417,0.0
2024-07-23 19:12:34.3670,-0.034,-0.132,-1.314,0.01,0.75,2.48,49.27908371438471,-122.90308658648398,336.4089090535417,0.0
2024-07-23 19:12:34.3790,-0.03,-0.068,-1.347,-0.11,0.23,3.14,49.27908371438471,-122.90308658648398,336.4089090535417,0.0
2024-07-23 19:12:34.3870,-0.04,-0.03,-1.343,-0.19,-0.37,3.47,49.27908371438471,-122.90308658648398,336.4089090535417,0.0
2024-07-23 19:12:34.3980,-0.066,-0.014,-1.339,-0.15,-0.74,3.43,49.27908371438471,-122.90308658648398,336.4089090535417,0.0
2024-07-23 19:12:34.4080,-0.09,-0.008,-1.302,0.04,-0.88,3.39,49.27908371438471,-122.90308658648398,336.4089090535417,0.0
2024-07-23 19:12:34.4180,-0.121,-0.026,-1.259,0.21,-0.95,3.03,49.27908371438471,-122.90308658648398,336.4089090535417,0.0
2024-07-23 19:12:34.4280,-0.155,-0.068,-1.224,0.47,-0.78,2.62,49.27908371438471,-122.90308658648398,336.4089090535417,0.0
2024-07-23 19:12:34.4380,-0.176,-0.115,-1.225,0.77,-0.39,2.27,49.27908371438471,-122.90308658648398,336.4089090535417,0.0
2024-07-23 19:12:34.4480,-0.167,-0.151,-1.289,0.99,0.05,2.29,49.27908371438471,-122.90308658648398,336.4089090535417,0.0
2024-07-23 19:12:34.4580,-0.141,-0.167,-1.388,0.92,0.37,2.91,49.27908371438471,-122.90308658648398,336.4089090535417,0.0
2024-07-23 19:12:34.4680,-0.123,-0.184,-1.528,0.68,0.49,3.89,49.27908371438471,-122.90308658648398,336.4089090535417,0.0
2024-07-23 19:12:34.4780,-0.115,-0.179,-1.675,0.52,0.64,5.27,49.27908371438471,-122.90308658648398,336.4089090535417,0.0
2024-07-23 19:12:34.4880,-0.107,-0.144,-1.762,0.41,0.59,6.71,49.27908371438471,-122.90308658648398,336.4089090535417,0.0
2024-07-23 19:12:34.4980,-0.146,-0.142,-1.793,0.28,0.24,7.57,49.27908371438471,-122.90308658648398,336.4089090535417,0.0
2024-07-23 19:12:34.5080,-0.199,-0.152,-1.742,1.03,0.35,7.39,49.27908371438471,-122.90308658648398,336.4089090535417,0.0
2024-07-23 19:12:34.5180,-0.248,-0.171,-1.697,1.03,0.35,7.39,49.27908371438471,-122.90308658648398,336.4089090535417,0.0
2024-07-23 19:12:34.5280,-0.279,-0.207,-1.682,1.44,0.57,6.94,49.27908371438471,-122.90308658648398,336.4089090535417,0.0
2024-07-23 19:12:34.5390,-0.29,-0.217,-1.716,1.72,0.95,6.8,49.27908371438471,-122.90308658648398,336.4089090535417,0.0
2024-07-23 19:12:34.5480,-0.26,-0.194,-1.8,1.61,0.94,7.93,49.27908371438471,-122.90308658648398,336.4089090535417,0.0
2024-07-23 19:12:34.5590,-0.208,-0.17,-1.962,1.61,0.94,7.93,49.27908371438471,-122.90308658648398,336.4089090535417,0.0
2024-07-23 19:12:34.5690,-0.132,-0.112,-2.224,0.52,0.34,12.06,49.27908371438471,-122.90308658648398,336.4089090535417,0.0
2024-07-23 19:12:34.5790,-0.036,-0.003,-2.537,0.52,0.34,12.06,49.27908371438471,-122.90308658648398,336.4089090535417,0.0
2024-07-23 19:12:34.5890,0.004,0.028,-2.737,-0.38,-0.62,15.12,49.27908371438471,-122.90308658648398,336.4089090535417,0.0
2024-07-23 19:12:34.5990,-0.027,-0.053,-2.791,-0.78,-0.81,17.07,49.27908371438471,-122.90308658648398,336.4089090535417,0.0
2024-07-23 19:12:34.6090,-0.021,-0.075,-2.78,-0.49,0.07,17.6,49.27908371438471,-122.90308658648398,336.4089090535417,0.0
2024-07-23 19:12:34.6200,0.004,-0.05,-2.714,-0.57,0.35,17.49,49.27908371438471,-122.90308658648398,336.4089090535417,0.0
2024-07-23 19:12:34.6300,0.007,-0.069,-2.616,-0.83,0.11,16.84,49.27908371438471,-122.90308658648398,336.4089090535417,0.0
2024-07-23 19:12:34.6410,0.013,-0.083,-2.507,-0.82,0.25,15.89,49.27908371438471,-122.90308658648398,336.4089090535417,0.0
2024-07-23 19:12:34.6500,0.033,-0.105,-2.406,-0.82,0.3,14.81,49.27908371438471,-122.90308658648398,336.4089090535417,0.0
2024-07-23 19:12:34.6600,0.063,-0.152,-2.322,-0.92,0.42,13.82,49.27908371438471,-122.90308658648398,336.4089090535417,0.0
2024-07-23 19:12:34.6700,0.145,-0.08,-2.281,-1.12,0.8,13.0,49.27908371438471,-122.90308658648398,336.4089090535417,0.0
2024-07-23 19:12:34.6800,0.254,0.135,-2.331,-1.83,0.05,12.6,49.27908371438471,-122.90308658648398,336.4089090535417,0.0
2024-07-23 19:12:34.6890,0.287,0.315,-2.3,-2.83,-2.05,13.09,49.27908371438471,-122.90308658648398,336.4089090535417,0.0
2024-07-23 19:12:34.7000,0.238,0.369,-2.148,-3.13,-3.77,12.77,49.27908371438471,-122.90308658648398,336.4089090535417,0.0
2024-07-23 19:12:34.7100,0.214,0.306,-1.9,-2.33,-3.52,8.84,49.27908371438471,-122.90308658648398,336.4089090535417,0.0
2024-07-23 19:12:34.7190,0.24,0.131,-1.675,-2.42,-1.78,6.63,49.27908371438471,-122.90308658648398,336.4089090535417,0.0
2024-07-23 19:12:34.7290,0.349,-0.051,-1.575,-3.25,-0.05,5.65,49.27908371438471,-122.90308658648398,336.4089090535417,0.0
2024-07-23 19:12:34.7390,0.493,-0.198,-1.639,-4.34,1.29,6.3,49.27908371438471,-122.90308658648398,336.4089090535417,0.0
2024-07-23 19:12:34.7500,0.571,-0.344,-1.75,-4.78,2.54,7.42,49.27908371438471,-122.90308658648398,336.4089090535417,0.0
2024-07-23 19:12:34.7600,0.548,-0.42,-1.801,-4.25,3.08,7.97,49.27908371438471,-122.90308658648398,336.4089090535417,0.0
2024-07-23 19:12:34.7700,0.413,-0.358,-1.752,-2.68,2.3,7.54,49.27908371438471,-122.90308658648398,336.4089090535417,0.0
2024-07-23 19:12:34.7800,0.212,-0.244,-1.583,-2.68,2.3,7.54,49.27908371438471,-122.90308658648398,336.4089090535417,0.0
2024-07-23 19:12:34.7900,-0.005,-0.206,-1.364,-0.54,1.07,5.92,49.27908371438471,-122.90308658648398,336.4089090535417,0.0
2024-07-23 19:12:34.8000,-0.218,-0.274,-1.063,1.7,0.66,3.8,49.27908371438471,-122.90308658648398,336.4089090535417,0.0
2024-07-23 19:12:34.8100,-0.323,-0.39,-0.68,3.9,1.32,0.87,49.27908371438471,-122.90308658648398,336.4089090535417,0.0
2024-07-23 19:12:34.8200,-0.314,-0.579,-0.349,5.2,4.25,-6.06,49.27908371438471,-122.90308658648398,336.4089090535417,0.0
2024-07-23 19:12:34.8300,-0.371,-0.849,-0.125,6.01,6.76,-8.17,49.27908371438471,-122.90308658648398,336.4089090535417,0.0
2024-07-23 19:12:34.8400,-0.473,-1.064,0.161,6.01,6.76,-8.17,49.27908371438471,-122.90308658648398,336.4089090535417,0.0
2024-07-23 19:12:34.8500,-0.502,-1.039,0.464,7.34,8.65,-10.85,49.27908371438471,-122.90308658648398,336.4089090535417,0.0
2024-07-23 19:12:34.8600,-0.438,-0.777,0.499,8.02,8.18,-13.64,49.27908371438471,-122.90308658648398,336.4089090535417,0.0
2024-07-23 19:12:34.8710,-0.446,-0.508,0.11,8.29,2.79,-9.81,49.27908371438471,-122.90308658648398,336.4089090535417,0.0
2024-07-23 19:12:34.8810,-0.473,-0.387,-0.418,8.29,2.79,-9.81,49.27908371438471,-122.90308658648398,336.4089090535417,0.0
2024-07-23 19:12:34.8910,-0.532,-0.43,-0.981,9.61,2.25,1.08,49.27908371438471,-122.90308658648398,336.4089090535417,0.0
2024-07-23 19:12:34.9010,-0.51,-0.383,-1.423,9.4,1.9,5.39,49.27908371438471,-122.90308658648398,336.4089090535417,0.0
2024-07-23 19:12:34.9110,-0.343,-0.174,-1.455,7.62,-0.14,5.63,49.27908371438471,-122.90308658648398,336.4089090535417,0.0
2024-07-23 19:12:34.9210,-0.244,-0.043,-0.978,7.62,-0.14,5.63,49.27908371438471,-122.90308658648398,336.4089090535417,0.0
2024-07-23 19:12:34.9310,-0.274,-0.079,-0.343,6.44,-1.35,-5.45,49.27908371438471,-122.90308658648398,336.4089090535417,0.0
2024-07-23 19:12:34.9410,-0.279,-0.125,0.332,6.3,-1.15,-12.09,49.27908371438471,-122.90308658648398,336.4089090535417,0.0
2024-07-23 19:12:34.9510,-0.308,-0.209,0.849,6.5,-0.6,-17.11,49.27908371438471,-122.90308658648398,336.4089090535417,0.0
2024-07-23 19:12:34.9610,-0.397,-0.328,1.066,6.5,-0.6,-17.11,49.27908371438471,-122.90308658648398,336.4089090535417,0.0
2024-07-23 19:12:34.9710,-0.447,-0.301,0.943,7.41,0.31,-19.15,49.27908371438471,-122.90308658648398,336.4089090535417,0.0
2024-07-23 19:12:34.9810,-0.38,-0.136,0.561,7.44,-1.83,-14.02,49.27908371438471,-122.90308658648398,336.4089090535417,0.0
2024-07-23 19:12:34.9910,-0.271,0.069,0.076,7.44,-1.83,-14.02,49.27908371438471,-122.90308658648398,336.4089090535417,0.0
2024-07-23 19:12:35.0010,-0.218,0.163,-0.276,5.89,-4.62,-5.84,49.27908371438471,-122.90308658648398,336.4089090535417,0.0
2024-07-23 19:12:35.0120,-0.226,0.091,-0.446,5.89,-4.62,-5.84,49.27908371438471,-122.90308658648398,336.4089090535417,0.0
2024-07-23 19:12:35.0220,-0.2,0.043,-0.408,5.9,-3.76,-4.26,49.27908371438471,-122.90308658648398,336.4089090535417,0.0
2024-07-23 19:12:35.0320,-0.096,0.087,-0.304,4.37,-3.43,-5.85,49.27908371438471,-122.90308658648398,336.4089090535417,0.0
2024-07-23 19:12:35.0420,-0.002,0.084,-0.14,4.37,-3.43,-5.85,49.27908371438471,-122.90308658648398,336.4089090535417,0.0
2024-07-23 19:12:35.0520,0.048,0.003,0.024,3.34,-3.33,-7.52,49.27908371438471,-122.90308658648398,336.4089090535417,0.0
2024-07-23 19:12:35.0620,0.102,-0.04,0.118,2.79,-2.53,-9.15,49.27908371438471,-122.90308658648398,336.4089090535417,0.0
2024-07-23 19:12:35.0720,0.141,-0.057,0.097,1.91,-2.09,-9.81,49.27908371438471,-122.90308658648398,336.4089090535417,0.0
2024-07-23 19:12:35.0820,0.164,-0.048,0.007,1.91,-2.09,-9.81,49.27908371438471,-122.90308658648398,336.4089090535417,0.0
2024-07-23 19:12:35.0920,0.229,0.017,-0.09,1.18,-3.03,-7.86,49.27908371438471,-122.90308658648398,336.4089090535417,0.0
2024-07-23 19:12:35.1020,0.292,0.081,-0.239,1.18,-3.03,-7.86,49.27908371438471,-122.90308658648398,336.4089090535417,0.0
2024-07-23 19:12:35.1130,0.325,0.123,-0.363,0.59,-4.137395363152027,-5.1373560708761214,49.27908371438471,-122.90308658648398,336.4089090535417,0.0
2024-07-23 19:12:35.1230,0.338,0.143,-0.423,0.27,-4.14,-5.14,49.27908371438471,-122.90308658648398,336.4089090535417,0.0
2024-07-23 19:12:35.1330,0.334,0.128,-0.396,0.1,-4.31,-4.59,49.27908371438471,-122.90308658648398,336.4089090535417,0.0
2024-07-23 19:12:35.1430,0.318,0.1,-0.311,0.11,-3.78,-5.78,49.27908371438471,-122.90308658648398,336.4089090535417,0.0
2024-07-23 19:12:35.1530,0.31,0.073,-0.227,0.1,-3.46,-6.65,49.27908371438471,-122.90308658648398,336.4089090535417,0.0
2024-07-23 19:12:35.1630,0.318,0.026,-0.144,0.1,-3.46,-6.65,49.27908371438471,-122.90308658648398,336.4089090535417,0.0
2024-07-23 19:12:35.1740,0.326,-0.009,-0.082,-0.19075079262256622,-2.66,-8.13,49.27908296411583,-122.90308785480428,335.58274218905717,0.0
2024-07-23 19:12:35.1830,0.318,-0.014,-0.063,-0.2,-2.66,-8.13,49.27908296411583,-122.90308785480428,335.58274218905717,0.0
2024-07-23 19:12:35.1930,0.305,0.017,-0.075,-0.06,-3.03,-8.18,49.27908296411583,-122.90308785480428,335.58274218905717,0.0
2024-07-23 19:12:35.2030,0.261,0.041,-0.106,-0.06,-3.03,-8.18,49.27908296411583,-122.90308785480428,335.58274218905717,0.0
2024-07-23 19:12:35.2130,0.216,0.045,-0.151,0.36,-3.35,-7.85,49.27908296411583,-122.90308785480428,335.58274218905717,0.0
2024-07-23 19:12:35.2240,0.184,0.065,-0.206,0.78,-3.47,-7.39,49.27908296411583,-122.90308785480428,335.58274218905717,0.0
2024-07-23 19:12:35.2340,0.138,0.061,-0.235,1.48,-3.74,-6.55,49.27908296411583,-122.90308785480428,335.58274218905717,0.0
2024-07-23 19:12:35.2440,0.113,0.026,-0.218,1.48,-3.74,-6.55,49.27908296411583,-122.90308785480428,335.58274218905717,0.0
2024-07-23 19:12:35.2540,0.105,-0.019,-0.156,1.68,-3.43,-6.72,49.27908296411583,-122.90308785480428,335.58274218905717,0.0
2024-07-23 19:12:35.2640,0.096,-0.068,-0.07,1.71,-3.02,-7.33,49.27908296411583,-122.90308785480428,335.58274218905717,0.0
2024-07-23 19:12:35.2740,0.078,-0.111,-0.004,1.76,-2.58,-8.18,49.27908296411583,-122.90308785480428,335.58274218905717,0.0
2024-07-23 19:12:35.2840,0.048,-0.135,0.031,1.91,-2.21,-8.81,49.27908296411583,-122.90308785480428,335.58274218905717,0.0
2024-07-23 19:12:35.2940,-0.019,-0.135,0.03,2.2,-2.04,-9.14,49.27908296411583,-122.90308785480428,335.58274218905717,0.0
2024-07-23 19:12:35.3040,-0.118,-0.135,-0.008,3.84,-2.2,-8.67,49.27908296411583,-122.90308785480428,335.58274218905717,0.0
2024-07-23 19:12:35.3140,-0.232,-0.131,-0.057,3.84,-2.2,-8.67,49.27908296411583,-122.90308785480428,335.58274218905717,0.0
2024-07-23 19:12:35.3240,-0.345,-0.135,-0.103,4.97,-2.34,-8.16,49.27908296411583,-122.90308785480428,335.58274218905717,0.0
2024-07-23 19:12:35.3340,-0.404,-0.138,-0.175,6.66,-2.43,-6.92,49.27908296411583,-122.90308785480428,335.58274218905717,0.0
2024-07-23 19:12:35.3450,-0.42,-0.144,-0.274,6.66,-2.43,-6.92,49.27908296411583,-122.90308785480428,335.58274218905717,0.0
2024-07-23 19:12:35.3540,-0.395,-0.149,-0.359,6.49,-2.42,-5.11,49.27908296411583,-122.90308785480428,335.58274218905717,0.0
2024-07-23 19:12:35.3650,-0.324,-0.157,-0.432,6.49,-2.42,-5.11,49.27908296411583,-122.90308785480428,335.58274218905717,0.0
2024-07-23 19:12:35.3740,-0.294,-0.201,-0.501,5.73,-2.37,-4.39,49.27908296411583,-122.90308785480428,335.58274218905717,0.0
2024-07-23 19:12:35.3840,-0.191,-0.216,-0.434,5.33,-2.0,-3.72,49.27908296411583,-122.90308785480428,335.58274218905717,0.0
2024-07-23 19:12:35.3950,-0.016,-0.075,-0.38,2.4,-3.4,-4.89,49.27908296411583,-122.90308785480428,335.58274218905717,0.0
2024-07-23 19:12:35.4050,-0.055,-0.118,-0.394,2.68,-3.08,-4.73,49.27908296411583,-122.90308785480428,335.58274218905717,0.0
2024-07-23 19:12:35.4150,-0.025,-0.207,-0.198,2.68,-3.08,-4.73,49.27908296411583,-122.90308785480428,335.58274218905717,0.0
2024-07-23 19:12:35.4250,-0.014,-0.341,-0.094,2.32,-2.29,-6.63,49.27908296411583,-122.90308785480428,335.58274218905717,0.0
2024-07-23 19:12:35.4350,0.035,-0.607,-0.237,1.77,1.63,-6.23,49.27908296411583,-122.90308785480428,335.58274218905717,0.0
2024-07-23 19:12:35.4460,0.141,-0.709,-0.812,1.77,1.63,-6.23,49.27908296411583,-122.90308785480428,335.58274218905717,0.0
2024-07-23 19:12:35.4550,0.094,-0.575,-1.498,0.98,1.65,5.94,49.27908296411583,-122.90308785480428,335.58274218905717,0.0
2024-07-23 19:12:35.4660,0.075,-0.34,-1.714,0.98,1.65,5.94,49.27908296411583,-122.90308785480428,335.58274218905717,0.0
2024-07-23 19:12:35.4750,0.126,-0.147,-1.494,0.88,-0.42,7.89,49.27908296411583,-122.90308785480428,335.58274218905717,0.0
2024-07-23 19:12:35.4850,0.173,-0.041,-1.03,-0.67,-2.79,0.88,49.27908296411583,-122.90308785480428,335.58274218905717,0.0
2024-07-23 19:12:35.4960,0.214,-0.011,-0.791,-1.2294472575187683,-2.77,-1.58,49.27908296411583,-122.90308785480428,335.58274218905717,0.0
2024-07-23 19:12:35.5060,0.232,-0.058,-0.945,-1.48,-1.97,-0.18,49.27908296411583,-122.90308785480428,335.58274218905717,0.0
2024-07-23 19:12:35.5160,0.284,-0.026,-1.276,-2.0,-1.95,2.99,49.27908296411583,-122.90308785480428,335.58274218905717,0.0
2024-07-23 19:12:35.5260,0.332,0.119,-1.745,-2.5,-3.05,7.51,49.27908296411583,-122.90308785480428,335.58274218905717,0.0
2024-07-23 19:12:35.5360,0.352,0.302,-2.137,-2.78,-4.55,11.29,49.27908296411583,-122.90308785480428,335.58274218905717,0.0
2024-07-23 19:12:35.5460,0.357,0.45,-2.285,-3.0,-5.74,12.7,49.27908296411583,-122.90308785480428,335.58274218905717,0.0
2024-07-23 19:12:35.5570,0.322,0.531,-2.201,-2.86,-6.32,11.84,49.27908296411583,-122.90308785480428,335.58274218905717,0.0
2024-07-23 19:12:35.5670,0.241,0.468,-1.906,-2.86,-6.32,11.84,49.27908296411583,-122.90308785480428,335.58274218905717,0.0
2024-07-23 19:12:35.5760,0.199,0.306,-1.644,-1.99,-3.86,6.35,49.27908296411583,-122.90308785480428,335.58274218905717,0.0
2024-07-23 19:12:35.5860,0.202,0.161,-1.534,-2.1,-2.4,5.27,49.27908296411583,-122.90308785480428,335.58274218905717,0.0
2024-07-23 19:12:35.5960,0.223,0.034,-1.537,-2.37,-1.21,5.3,49.27908296411583,-122.90308785480428,335.58274218905717,0.0
2024-07-23 19:12:35.6060,0.247,-0.048,-1.518,-2.37,-1.21,5.3,49.27908296411583,-122.90308785480428,335.58274218905717,0.0
2024-07-23 19:12:35.6160,0.216,-0.121,-1.458,-2.62,-0.51,5.12,49.27908296411583,-122.90308785480428,335.58274218905717,0.0
2024-07-23 19:12:35.6260,0.155,-0.214,-1.364,-2.32,0.05,4.56,49.27908296411583,-122.90308785480428,335.58274218905717,0.0
2024-07-23 19:12:35.6360,0.104,-0.312,-1.29,-1.7,0.8,3.65,49.27908296411583,-122.90308785480428,335.58274218905717,0.0
2024-07-23 19:12:35.6460,0.064,-0.41,-1.304,-1.16,1.64,2.94,49.27908296411583,-122.90308785480428,335.58274218905717,0.0
2024-07-23 19:12:35.6560,0.08,-0.451,-1.415,-0.82,2.95,4.18,49.27908296411583,-122.90308785480428,335.58274218905717,0.0
2024-07-23 19:12:35.6660,0.123,-0.418,-1.59,-0.82,2.95,4.18,49.27908296411583,-122.90308785480428,335.58274218905717,0.0
2024-07-23 19:12:35.6760,0.155,-0.383,-1.715,-1.55,2.41,7.1,49.27908296411583,-122.90308785480428,335.58274218905717,0.0
2024-07-23 19:12:35.6860,0.15,-0.366,-1.76,-1.55,2.34,7.53,49.27908296411583,-122.90308785480428,335.58274218905717,0.0
2024-07-23 19:12:35.6970,0.12,-0.36,-1.747,-1.55,2.34,7.53,49.27908296411583,-122.90308785480428,335.58274218905717,0.0
2024-07-23 19:12:35.7070,0.083,-0.346,-1.714,-1.31,2.37,7.39,49.27908296411583,-122.90308785480428,335.58274218905717,0.0
2024-07-23 19:12:35.7160,0.018,-0.32,-1.684,-1.01,2.3,7.06,49.27908296411583,-122.90308785480428,335.58274218905717,0.0
2024-07-23 19:12:35.7270,-0.056,-0.293,-1.684,-0.42,2.11,6.76,49.27908296411583,-122.90308785480428,335.58274218905717,0.0
2024-07-23 19:12:35.7370,-0.115,-0.285,-1.711,0.82,1.83,7.02,49.27908296411583,-122.90308785480428,335.58274218905717,0.0
2024-07-23 19:12:35.7470,-0.152,-0.258,-1.748,0.82,1.83,7.02,49.27908296411583,-122.90308785480428,335.58274218905717,0.0
2024-07-23 19:12:35.7570,-0.169,-0.242,-1.769,1.18,1.58,7.38,49.27908296411583,-122.90308785480428,335.58274218905717,0.0
2024-07-23 19:12:35.7670,-0.162,-0.258,-1.799,1.34,1.41,7.59,49.27908296411583,-122.90308785480428,335.58274218905717,0.0
2024-07-23 19:12:35.7770,-0.156,-0.273,-1.852,1.29,1.55,7.89,49.27908296411583,-122.90308785480428,335.58274218905717,0.0
2024-07-23 19:12:35.7870,-0.166,-0.299,-1.896,1.26,1.66,8.41,49.27908296411583,-122.90308785480428,335.58274218905717,0.0
2024-07-23 19:12:35.7980,-0.179,-0.347,-1.918,1.42,1.88,8.84,49.27908296411583,-122.90308785480428,335.58274218905717,0.0
2024-07-23 19:12:35.8080,-0.149,-0.387,-1.985,1.65,2.32,9.06,49.27908296411583,-122.90308785480428,335.58274218905717,0.0
2024-07-23 19:12:35.8190,-0.053,-0.444,-2.178,1.5,2.72,9.72,49.27908296411583,-122.90308785480428,335.58274218905717,0.0
2024-07-23 19:12:35.8290,0.085,-0.44,-2.474,0.75,3.31,11.61,49.27908296411583,-122.90308785480428,335.58274218905717,0.0
2024-07-23 19:12:35.8390,0.26,-0.307,-2.803,-1.96,2.06,17.75,49.27908296411583,-122.90308785480428,335.58274218905717,0.0
2024-07-23 19:12:35.8500,0.417,-0.082,-3.175,-1.96,2.06,17.75,49.27908296411583,-122.90308785480428,335.58274218905717,0.0
2024-07-23 19:12:35.8580,0.473,0.135,-3.435,-3.42,-0.11,21.39,49.27908296411583,-122.90308785480428,335.58274218905717,0.0
2024-07-23 19:12:35.8690,0.425,0.237,-3.329,-4.0,-2.21,23.95,49.27908296411583,-122.90308785480428,335.58274218905717,0.0
2024-07-23 19:12:35.8790,0.295,0.121,-2.932,-2.46,-2.07,18.99,49.27908296411583,-122.90308785480428,335.58274218905717,0.0
2024-07-23 19:12:35.8900,0.174,-0.058,-2.559,-2.46,-2.07,18.99,49.27908296411583,-122.90308785480428,335.58274218905717,0.0
2024-07-23 19:12:35.9000,0.122,-0.242,-2.293,-1.33,-0.36,15.34,49.27908296411583,-122.90308785480428,335.58274218905717,0.0
2024-07-23 19:12:35.9090,0.147,-0.396,-2.148,-0.81,1.34,12.74,49.27908296411583,-122.90308785480428,335.58274218905717,0.0
2024-07-23 19:12:35.9190,0.208,-0.477,-2.1,-0.98,2.7,11.34,49.27908296411583,-122.90308785480428,335.58274218905717,0.0
2024-07-23 19:12:35.9300,0.251,-0.504,-2.119,-1.47,3.29,10.9,49.27908296411583,-122.90308785480428,335.58274218905717,0.0
2024-07-23 19:12:35.9400,0.255,-0.53,-2.116,-1.77,3.33,11.13,49.27908296411583,-122.90308785480428,335.58274218905717,0.0
2024-07-23 19:12:35.9500,0.263,-0.57,-2.096,-1.68,3.37,11.15,49.27908296411583,-122.90308785480428,335.58274218905717,0.0
2024-07-23 19:12:35.9600,0.236,-0.583,-2.111,-1.66,3.57,11.01,49.27908296411583,-122.90308785480428,335.58274218905717,0.0
2024-07-23 19:12:35.9700,0.186,-0.577,-2.088,-1.32,3.54,11.19,49.27908296411583,-122.90308785480428,335.58274218905717,0.0
2024-07-23 19:12:35.9800,0.11,-0.573,-2.006,-0.8,3.4,10.98,49.27908296411583,-122.90308785480428,335.58274218905717,0.0
2024-07-23 19:12:35.9910,0.008,-0.54,-1.894,-0.07,3.34,10.18,49.27908296411583,-122.90308785480428,335.58274218905717,0.0
2024-07-23 19:12:35.9990,-0.071,-0.417,-1.798,1.66,1.86,8.12,49.27908296411583,-122.90308785480428,335.58274218905717,0.0
2024-07-23 19:12:36.0100,-0.1,-0.216,-1.736,1.66,1.86,8.12,49.27908296411583,-122.90308785480428,335.58274218905717,0.0
2024-07-23 19:12:36.0190,-0.082,-0.039,-1.658,1.7965295273065567,-1.9332248577475548,6.783572979569436,49.27908296411583,-122.90308785480428,335.58274218905717,0.0
2024-07-23 19:12:36.0290,-0.05,0.043,-1.568,1.55,-2.89,5.94,49.27908296411583,-122.90308785480428,335.58274218905717,0.0
2024-07-23 19:12:36.0400,-0.038,0.0,-1.517,1.55,-2.89,5.94,49.27908296411583,-122.90308785480428,335.58274218905717,0.0
2024-07-23 19:12:36.0500,0.005,-0.127,-1.534,1.25,-1.64,5.76,49.27908296411583,-122.90308785480428,335.58274218905717,0.0
2024-07-23 19:12:36.0600,0.033,-0.258,-1.623,1.07,-0.57,6.72,49.27908296411583,-122.90308785480428,335.58274218905717,0.0
2024-07-23 19:12:36.0700,-0.003,-0.38,-1.667,1.07,-0.57,6.72,49.27908296411583,-122.90308785480428,335.58274218905717,0.0
2024-07-23 19:12:36.0800,-0.036,-0.432,-1.555,1.45,0.44,7.22,49.27908296411583,-122.90308785480428,335.58274218905717,0.0
2024-07-23 19:12:36.0900,-0.091,-0.468,-1.324,1.73,0.83,6.16,49.27908296411583,-122.90308785480428,335.58274218905717,0.0
2024-07-23 19:12:36.1000,-0.138,-0.534,-1.063,2.17,1.11,3.89,49.27908296411583,-122.90308785480428,335.58274218905717,0.0
2024-07-23 19:12:36.1100,-0.19,-0.608,-0.867,2.48,1.77,1.31,49.27908296411583,-122.90308785480428,335.58274218905717,0.0
2024-07-23 19:12:36.1200,-0.24,-0.685,-0.692,2.82,2.56,-0.65,49.27908296411583,-122.90308785480428,335.58274218905717,0.0
2024-07-23 19:12:36.1300,-0.273,-0.723,-0.436,3.11,3.39,-2.41,49.27908296411583,-122.90308785480428,335.58274218905717,0.0
2024-07-23 19:12:36.1400,-0.361,-0.678,-0.141,3.23,3.84,-4.97,49.27908296411583,-122.90308785480428,335.58274218905717,0.0
2024-07-23 19:12:36.1520,-0.478,-0.497,0.123,4.93,1.76,-10.51,49.27908296411583,-122.90308785480428,335.58274218905717,0.0
2024-07-23 19:12:36.1600,-0.548,-0.25,0.307,5.56,-0.59,-12.34,49.27908296411583,-122.90308785480428,335.58274218905717,0.0
2024-07-23 19:12:36.1700,-0.505,-0.103,0.287,5.56,-0.59,-12.34,49.27908296411583,-122.90308785480428,335.58274218905717,0.0
2024-07-23 19:12:36.1800,-0.292,-0.031,0.055,5.12,-1.98,-12.16,49.27908770792724,-122.90310009890928,338.4777299296111,1.32662240461472
2024-07-23 19:12:36.1900,-0.014,-0.054,-0.182,3.02,-2.69,-9.89,49.27908770792724,-122.90310009890928,338.4777299296111,1.32662240461472
2024-07-23 19:12:36.2000,0.211,-0.137,-0.251,0.27,-2.52,-7.55,49.27908770792724,-122.90310009890928,338.4777299296111,1.32662240461472
2024-07-23 19:12:36.2100,0.365,-0.199,-0.044,-2.03,-1.84,-6.82,49.27908770792724,-122.90310009890928,338.4777299296111,1.32662240461472
2024-07-23 19:12:36.2210,0.422,-0.242,0.348,-3.67,-1.43,-8.79,49.27908770792724,-122.90310009890928,338.4777299296111,1.32662240461472
2024-07-23 19:12:36.2310,0.361,-0.251,0.702,-4.37,-1.23,-12.54,49.27908770792724,-122.90310009890928,338.4777299296111,1.32662240461472
2024-07-23 19:12:36.2410,0.276,-0.21,0.899,-3.14,-1.99,-17.75,49.27908770792724,-122.90310009890928,338.4777299296111,1.32662240461472
2024-07-23 19:12:36.2510,0.18,-0.138,0.936,-3.14,-1.99,-17.75,49.27908770792724,-122.90310009890928,338.4777299296111,1.32662240461472
2024-07-23 19:12:36.2620,0.075,-0.07,0.881,-1.19,-3.68,-17.42,49.27908770792724,-122.90310009890928,338.4777299296111,1.32662240461472
2024-07-23 19:12:36.2710,0.031,-0.03,0.728,-1.19,-3.68,-17.42,49.27908770792724,-122.90310009890928,338.4777299296111,1.32662240461472
2024-07-23 19:12:36.2810,0.059,-0.024,0.485,-0.73,-4.18,-15.87,49.27908770792724,-122.90310009890928,338.4777299296111,1.32662240461472
2024-07-23 19:12:36.2910,0.125,-0.041,0.261,-0.97,-4.31,-13.45,49.27908770792724,-122.90310009890928,338.4777299296111,1.32662240461472
2024-07-23 19:12:36.3010,0.153,-0.064,0.11,-1.6,-4.19,-11.23,49.27908770792724,-122.90310009890928,338.4777299296111,1.32662240461472
2024-07-23 19:12:36.3110,0.149,-0.073,0.074,-1.89,-4.01,-9.73,49.27908770792724,-122.90310009890928,338.4777299296111,1.32662240461472
2024-07-23 19:12:36.3210,0.15,-0.039,0.132,-1.93,-4.36,-9.88,49.27908770792724,-122.90310009890928,338.4777299296111,1.32662240461472
2024-07-23 19:12:36.3320,0.151,-0.019,0.2,-1.93,-4.36,-9.88,49.27908770792724,-122.90310009890928,338.4777299296111,1.32662240461472
2024-07-23 19:12:36.3420,0.146,-0.017,0.239,-1.95,-4.68,-10.87,49.27908770792724,-122.90310009890928,338.4777299296111,1.32662240461472
2024-07-23 19:12:36.3520,0.138,-0.021,0.243,-1.95,-4.68,-10.87,49.27908770792724,-122.90310009890928,338.4777299296111,1.32662240461472
2024-07-23 19:12:36.3620,0.149,-0.009,0.203,-1.89,-4.67,-10.89,49.27908770792724,-122.90310009890928,338.4777299296111,1.32662240461472
2024-07-23 19:12:36.3720,0.148,0.041,0.11,-2.01,-4.78,-10.49,49.27908770792724,-122.90310009890928,338.4777299296111,1.32662240461472
2024-07-23 19:12:36.3820,0.134,0.088,0.002,-2.01,-5.24,-9.6,49.27908770792724,-122.90310009890928,338.4777299296111,1.32662240461472
2024-07-23 19:12:36.3920,0.117,0.128,-0.106,-1.9,-5.65,-8.57,49.27908770792724,-122.90310009890928,338.4777299296111,1.32662240461472
2024-07-23 19:12:36.4020,0.084,0.145,-0.181,-1.76,-5.97,-7.55,49.27908770792724,-122.90310009890928,338.4777299296111,1.32662240461472
2024-07-23 19:12:36.4120,0.049,0.157,-0.214,-1.17,-6.1,-6.56,49.27908770792724,-122.90310009890928,338.4777299296111,1.32662240461472
2024-07-23 19:12:36.4220,0.033,0.154,-0.188,-1.17,-6.1,-6.56,49.27908770792724,-122.90310009890928,338.4777299296111,1.32662240461472
2024-07-23 19:12:36.4320,0.046,0.07,-0.085,-1.04,-6.03,-6.85,49.27908770792724,-122.90310009890928,338.4777299296111,1.32662240461472
2024-07-23 19:12:36.4420,0.071,-0.086,0.047,-1.39,-3.66,-9.16,49.27908770792724,-122.90310009890928,338.4777299296111,1.32662240461472
2024-07-23 19:12:36.4530,0.073,-0.182,0.132,-1.39,-3.66,-9.16,49.27908770792724,-122.90310009890928,338.4777299296111,1.32662240461472
2024-07-23 19:12:36.4620,0.071,-0.143,0.079,-1.33,-2.78,-9.97,49.27908770792724,-122.90310009890928,338.4777299296111,1.32662240461472
2024-07-23 19:12:36.4730,0.029,-0.054,-0.066,-1.21,-3.24,-9.41,49.27908770792724,-122.90310009890928,338.4777299296111,1.32662240461472
2024-07-23 19:12:36.4830,-0.031,0.004,-0.137,-0.69,-4.23,-7.93,49.27908770792724,-122.90310009890928,338.4777299296111,1.32662240461472
2024-07-23 19:12:36.4930,-0.078,0.01,-0.137,-0.01,-4.89,-7.18,49.27908770792724,-122.90310009890928,338.4777299296111,1.32662240461472
2024-07-23 19:12:36.5030,-0.098,-0.019,-0.111,0.54,-5.05,-7.13,49.27908770792724,-122.90310009890928,338.4777299296111,1.32662240461472
2024-07-23 19:12:36.5130,-0.093,-0.064,-0.092,0.81,-4.84,-7.35,49.27908770792724,-122.90310009890928,338.4777299296111,1.32662240461472
2024-07-23 19:12:36.5230,-0.088,-0.104,-0.105,0.82,-4.44,-7.51,49.27908770792724,-122.90310009890928,338.4777299296111,1.32662240461472
2024-07-23 19:12:36.5330,-0.065,-0.143,-0.189,0.81,-4.06,-7.37,49.27908770792724,-122.90310009890928,338.4777299296111,1.32662240461472
2024-07-23 19:12:36.5430,0.024,-0.328,-0.356,-0.38,-1.79,-4.95,49.27908770792724,-122.90310009890928,338.4777299296111,1.32662240461472
2024-07-23 19:12:36.5530,0.079,-0.468,-0.262,-0.38,-1.79,-4.95,49.27908770792724,-122.90310009890928,338.4777299296111,1.32662240461472
2024-07-23 19:12:36.5630,0.05,-0.491,-0.06,-1.02,-0.35,-5.91,49.27908770792724,-122.90310009890928,338.4777299296111,1.32662240461472
2024-07-23 19:12:36.5730,-0.029,-0.377,0.036,-0.82,-0.08,-7.92,49.27908770792724,-122.90310009890928,338.4777299296111,1.32662240461472
2024-07-23 19:12:36.5830,-0.151,-0.239,-0.05,-0.09,-1.18,-8.86,49.27908770792724,-122.90310009890928,338.4777299296111,1.32662240461472
2024-07-23 19:12:36.5930,-0.235,-0.106,-0.127,1.08,-2.54,-8.02,49.27908770792724,-122.90310009890928,338.4777299296111,1.32662240461472
2024-07-23 19:12:36.6030,-0.271,-0.003,-0.198,1.9,-3.89,-7.24,49.27908770792724,-122.90310009890928,338.4777299296111,1.32662240461472
2024-07-23 19:12:36.6130,-0.253,0.071,-0.265,2.27,-4.97,-6.49,49.27908770792724,-122.90310009890928,338.4777299296111,1.32662240461472
2024-07-23 19:12:36.6230,-0.209,0.094,-0.292,1.68,-6.16,-5.43,49.27908770792724,-122.90310009890928,338.4777299296111,1.32662240461472
2024-07-23 19:12:36.6340,-0.168,0.072,-0.316,1.68,-6.16,-5.43,49.27908770792724,-122.90310009890928,338.4777299296111,1.32662240461472
2024-07-23 19:12:36.6440,-0.145,0.015,-0.308,1.02,-5.58,-5.15,49.27908770792724,-122.90310009890928,338.4777299296111,1.32662240461472
2024-07-23 19:12:36.6540,-0.202,-0.169,-0.316,1.02,-5.58,-5.15,49.27908770792724,-122.90310009890928,338.4777299296111,1.32662240461472
2024-07-23 19:12:36.6640,-0.186,-0.403,-0.384,1.36,-1.55,-4.36,49.27908770792724,-122.90310009890928,338.4777299296111,1.32662240461472
2024-07-23 19:12:36.6760,-0.191,-0.611,-0.558,1.36,-1.55,-4.36,49.27908770792724,-122.90310009890928,338.4777299296111,1.32662240461472
2024-07-23 19:12:36.6840,-0.181,-0.78,-0.458,1.35,0.51,-2.66,49.27908770792724,-122.90310009890928,338.4777299296111,1.32662240461472
2024-07-23 19:12:36.6940,0.015,-0.89,-0.325,1.25,2.18,-3.64,49.27908770792724,-122.90310009890928,338.4777299296111,1.32662240461472
2024-07-23 19:12:36.7040,0.29,-0.941,-0.701,-0.55,3.28,-4.97,49.27908770792724,-122.90310009890928,338.4777299296111,1.32662240461472
2024-07-23 19:12:36.7140,0.489,-0.953,-1.413,-3.04,3.82,-1.31,49.27908770792724,-122.90310009890928,338.4777299296111,1.32662240461472
2024-07-23 19:12:36.7240,0.519,-0.973,-2.055,-4.78,3.99,5.64,49.27908770792724,-122.90310009890928,338.4777299296111,1.32662240461472
2024-07-23 19:12:36.7340,0.461,-0.961,-2.227,-4.96,4.19,11.93,49.27908770792724,-122.90310009890928,338.4777299296111,1.32662240461472
2024-07-23 19:12:36.7450,0.419,-0.96,-1.654,-3.88,3.99,8.05,49.27908770792724,-122.90310009890928,338.4777299296111,1.32662240461472
2024-07-23 19:12:36.7550,0.408,-0.955,-1.345,-3.88,3.99,8.05,49.27908770792724,-122.90310009890928,338.4777299296111,1.32662240461472
2024-07-23 19:12:36.7650,0.499,-0.956,-1.391,-3.69,4.02,4.97,49.27908770792724,-122.90310009890928,338.4777299296111,1.32662240461472
2024-07-23 19:12:36.7750,0.67,-1.152,-1.808,-4.49,4.3,5.26,49.27908770792724,-122.90310009890928,338.4777299296111,1.32662240461472
2024-07-23 19:12:36.7850,0.86,-1.288,-2.309,-6.1,6.68,9.09,49.27908770792724,-122.90310009890928,338.4777299296111,1.32662240461472
2024-07-23 19:12:36.7950,0.881,-1.098,-2.826,-7.94,8.59,13.72,49.27908770792724,-122.90310009890928,338.4777299296111,1.32662240461472
2024-07-23 19:12:36.8070,0.789,-0.888,-3.227,-7.39,5.75,22.3,49.27908770792724,-122.90310009890928,338.4777299296111,1.32662240461472
2024-07-23 19:12:36.8160,0.598,-0.702,-3.229,-7.39,5.75,22.3,49.27908770792724,-122.90310009890928,338.4777299296111,1.32662240461472
2024-07-23 19:12:36.8270,0.302,-0.601,-2.922,-5.66,4.3,22.21,49.27908770792724,-122.90310009890928,338.4777299296111,1.32662240461472
2024-07-23 19:12:36.8360,0.076,-0.677,-2.562,-2.87,3.56,19.13,49.27908770792724,-122.90310009890928,338.4777299296111,1.32662240461472
2024-07-23 19:12:36.8460,-0.0,-0.818,-2.372,-0.72,4.45,15.56,49.27908770792724,-122.90310009890928,338.4777299296111,1.32662240461472
2024-07-23 19:12:36.8570,-0.089,-0.892,-2.303,0.05,5.94,13.68,49.27908770792724,-122.90310009890928,338.4777299296111,1.32662240461472
2024-07-23 19:12:36.8670,-0.243,-0.826,-2.335,0.99,6.76,12.98,49.27908770792724,-122.90310009890928,338.4777299296111,1.32662240461472
2024-07-23 19:12:36.8770,-0.342,-0.663,-2.53,2.62,6.2,13.28,49.27908770792724,-122.90310009890928,338.4777299296111,1.32662240461472
2024-07-23 19:12:36.8870,-0.348,-0.516,-2.655,3.72,4.68,15.18,49.27908770792724,-122.90310009890928,338.4777299296111,1.32662240461472
2024-07-23 19:12:36.8970,-0.309,-0.412,-2.658,3.88,3.3,16.4,49.27908770792724,-122.90310009890928,338.4777299296111,1.32662240461472
2024-07-23 19:12:36.9070,-0.236,-0.398,-2.541,2.89,2.19,15.28,49.27908770792724,-122.90310009890928,338.4777299296111,1.32662240461472
2024-07-23 19:12:36.9170,-0.14,-0.451,-2.38,2.89,2.19,15.28,49.27908770792724,-122.90310009890928,338.4777299296111,1.32662240461472
2024-07-23 19:12:36.9270,-0.058,-0.501,-2.214,1.95,2.7,13.7,49.27908770792724,-122.90310009890928,338.4777299296111,1.32662240461472
2024-07-23 19:12:36.9370,-0.033,-0.489,-2.02,1.11,3.14,12.08,49.27908770792724,-122.90310009890928,338.4777299296111,1.32662240461472
2024-07-23 19:12:36.9470,-0.082,-0.395,-1.767,0.83,2.95,10.19,49.27908770792724,-122.90310009890928,338.4777299296111,1.32662240461472
2024-07-23 19:12:36.9560,-0.186,-0.3,-1.55,1.27,1.93,7.73,49.27908770792724,-122.90310009890928,338.4777299296111,1.32662240461472
2024-07-23 19:12:36.9660,-0.26,-0.188,-1.345,2.27,0.86,5.62,49.27908770792724,-122.90310009890928,338.4777299296111,1.32662240461472
2024-07-23 19:12:36.9760,-0.306,-0.121,-1.198,2.99,-0.4,3.65,49.27908770792724,-122.90310009890928,338.4777299296111,1.32662240461472
2024-07-23 19:12:36.9860,-0.307,-0.123,-1.063,3.49,-1.41,0.98,49.27908770792724,-122.90310009890928,338.4777299296111,1.32662240461472
2024-07-23 19:12:36.9980,-0.268,-0.14,-0.958,3.13,-1.43,0.0,49.27908770792724,-122.90310009890928,338.4777299296111,1.32662240461472
2024-07-23 19:12:37.0070,-0.231,-0.17,-0.873,3.13,-1.43,0.0,49.27908770792724,-122.90310009890928,338.4777299296111,1.32662240461472
2024-07-23 19:12:37.0170,-0.216,-0.214,-0.753,2.8,-1.3,-0.78,49.27908770792724,-122.90310009890928,338.4777299296111,1.32662240461472
2024-07-23 19:12:37.0270,-0.205,-0.233,-0.66,2.68,-1.0,-1.91,49.27908770792724,-122.90310009890928,338.4777299296111,1.32662240461472
2024-07-23 19:12:37.0370,-0.18,-0.231,-0.615,2.6,-0.94,-2.77,49.27908770792724,-122.90310009890928,338.4777299296111,1.32662240461472
2024-07-23 19:12:37.0470,-0.156,-0.234,-0.563,2.2,-1.14,-3.65,49.27908770792724,-122.90310009890928,338.4777299296111,1.32662240461472
2024-07-23 19:12:37.0580,-0.13,-0.238,-0.51,2.2,-1.14,-3.65,49.27908770792724,-122.90310009890928,338.4777299296111,1.32662240461472
2024-07-23 19:12:37.0670,-0.101,-0.22,-0.492,1.99,-1.19,-4.13,49.27908770792724,-122.90310009890928,338.4777299296111,1.32662240461472
2024-07-23 19:12:37.0770,-0.07,-0.196,-0.481,1.74,-1.45,-4.27,49.27908770792724,-122.90310009890928,338.4777299296111,1.32662240461472
2024-07-23 19:12:37.0870,-0.058,-0.167,-0.472,1.48,-1.78,-4.34,49.27908770792724,-122.90310009890928,338.4777299296111,1.32662240461472
2024-07-23 19:12:37.0970,-0.048,-0.145,-0.462,1.39,-2.17,-4.38,49.27908770792724,-122.90310009890928,338.4777299296111,1.32662240461472
2024-07-23 19:12:37.1070,-0.036,-0.133,-0.429,1.32,-2.5,-4.42,49.27908770792724,-122.90310009890928,338.4777299296111,1.32662240461472
2024-07-23 19:12:37.1170,-0.02,-0.123,-0.384,1.22,-2.74,-4.7,49.27908770792724,-122.90310009890928,338.4777299296111,1.32662240461472
2024-07-23 19:12:37.1270,-0.011,-0.13,-0.328,1.09,-2.96,-5.07,49.27908770792724,-122.90310009890928,338.4777299296111,1.32662240461472
2024-07-23 19:12:37.1370,-0.007,-0.133,-0.272,1.0,-3.01,-5.57,49.27908770792724,-122.90310009890928,338.4777299296111,1.32662240461472
2024-07-23 19:12:37.1480,-0.008,-0.132,-0.234,0.99,-3.22,-6.37,49.27908770792724,-122.90310009890928,338.4777299296111,1.32662240461472
2024-07-23 19:12:37.1580,-0.009,-0.143,-0.187,1.01,-3.23,-6.77,49.27908770792724,-122.90310009890928,338.4777299296111,1.32662240461472
2024-07-23 19:12:37.1680,-0.012,-0.151,-0.152,1.01,-3.23,-6.77,49.27908770792724,-122.90310009890928,338.4777299296111,1.32662240461472
2024-07-23 19:12:37.1770,-0.005,-0.161,-0.14,1.05,-3.25,-7.05,49.27908967968693,-122.90309894133271,336.39945488236845,0.0
2024-07-23 19:12:37.1870,0.012,-0.168,-0.134,1.0,-3.26,-7.11,49.27908967968693,-122.90309894133271,336.39945488236845,0.0
2024-07-23 19:12:37.1980,0.023,-0.178,-0.14,0.75,-3.27,-7.01,49.27908967968693,-122.90309894133271,336.39945488236845,0.0
2024-07-23 19:12:37.2080,0.035,-0.189,-0.15,0.75,-3.27,-7.01,49.27908967968693,-122.90309894133271,336.39945488236845,0.0
2024-07-23 19:12:37.2180,0.034,-0.201,-0.154,0.64,-3.24,-6.87,49.27908967968693,-122.90309894133271,336.39945488236845,0.0
2024-07-23 19:12:37.2280,0.028,-0.213,-0.177,0.65,-3.19,-6.78,49.27908967968693,-122.90309894133271,336.39945488236845,0.0
2024-07-23 19:12:37.2380,0.013,-0.23,-0.109,0.71,-3.14,-6.51,49.27908967968693,-122.90309894133271,336.39945488236845,0.0
2024-07-23 19:12:37.2490,-0.007,-0.251,-0.153,1.08,-2.91,-6.66,49.27908967968693,-122.90309894133271,336.39945488236845,0.0
2024-07-23 19:12:37.2580,0.027,-0.308,-0.214,0.74,-2.4,-6.02,49.27908967968693,-122.90309894133271,336.39945488236845,0.0
2024-07-23 19:12:37.2690,0.072,-0.421,-0.221,0.29,-1.33,-5.93,49.27908967968693,-122.90309894133271,336.39945488236845,0.0
2024-07-23 19:12:37.2790,0.101,-0.51,-0.217,0.29,-1.33,-5.93,49.27908967968693,-122.90309894133271,336.39945488236845,0.0
2024-07-23 19:12:37.2890,0.112,-0.578,-0.245,-0.02,-0.47,-5.97,49.27908967968693,-122.90309894133271,336.39945488236845,0.0
2024-07-23 19:12:37.2990,0.109,-0.645,-0.35,-0.16,0.21,-5.7,49.27908967968693,-122.90309894133271,336.39945488236845,0.0
2024-07-23 19:12:37.3090,0.1,-0.688,-0.408,-0.14,1.36,-4.16,49.27908967968693,-122.90309894133271,336.39945488236845,0.0

