time,gFx,gFy,gFz,ax,ay,az,latitude,longitude,altitude,speed
2024-07-07 19:39:16.5700,0.054,-0.443,-0.741,-0.26,0.63,-1.86,49.27806518955206,-122.91085492068451,356.62692642211914,-1.0
2024-07-07 19:39:16.5770,0.056,-0.454,-0.768,-0.35,0.96,-1.91,49.27806518955206,-122.91085492068451,356.62692642211914,-1.0
2024-07-07 19:39:16.5830,0.058,-0.455,-0.779,-0.36,1.02,-1.64,49.27806518955206,-122.91085492068451,356.62692642211914,-1.0
2024-07-07 19:39:16.5940,0.045,-0.469,-0.794,-0.37,1.04,-1.54,49.27806518955206,-122.91085492068451,356.62692642211914,-1.0
2024-07-07 19:39:16.6030,0.022,-0.476,-0.826,-0.21,1.17,-1.36,49.27806518955206,-122.91085492068451,356.62692642211914,-1.0
2024-07-07 19:39:16.6130,0.02,-0.463,-0.858,0.0,1.2,-1.04,49.27806518955206,-122.91085492068451,356.62692642211914,-1.0
2024-07-07 19:39:16.6240,0.023,-0.454,-0.87,-0.01,1.06,-0.74,49.27806518955206,-122.91085492068451,356.62692642211914,-1.0
2024-07-07 19:39:16.6330,0.014,-0.464,-0.871,-0.04,0.99,-0.65,49.27806518955206,-122.91085492068451,356.62692642211914,-1.0
2024-07-07 19:39:16.6440,-0.001,-0.478,-0.871,0.05,1.12,-0.64,49.27806518955206,-122.91085492068451,356.62692642211914,-1.0
2024-07-07 19:39:16.6540,-0.006,-0.483,-0.871,0.18,1.26,-0.65,49.27806518955206,-122.91085492068451,356.62692642211914,-1.0
2024-07-07 19:39:16.6640,0.003,-0.478,-0.881,0.21,1.33,-0.65,49.27806518955206,-122.91085492068451,356.62692642211914,-1.0
2024-07-07 19:39:16.6750,0.017,-0.476,-0.91,0.11,1.31,-0.55,49.27806518955206,-122.91085492068451,356.62692642211914,-1.0
2024-07-07 19:39:16.6840,0.027,-0.483,-0.967,-0.01,1.33,-0.25,49.27806518955206,-122.91085492068451,356.62692642211914,-1.0
2024-07-07 19:39:16.6940,0.03,-0.482,-1.045,-0.09,1.44,0.34,49.27806518955206,-122.91085492068451,356.62692642211914,-1.0
2024-07-07 19:39:16.7040,0.025,-0.459,-1.111,-0.1,1.44,1.09,49.27806518955206,-122.91085492068451,356.62692642211914,-1.0
2024-07-07 19:39:16.7140,0.022,-0.443,-1.141,-0.06,1.26,1.68,49.27806518955206,-122.91085492068451,356.62692642211914,-1.0
2024-07-07 19:39:16.7250,0.015,-0.428,-1.138,-0.03,1.15,1.92,49.27806518955206,-122.91085492068451,356.62692642211914,-1.0
2024-07-07 19:39:16.7340,0.015,-0.404,-1.108,0.03,1.04,1.83,49.27806518955206,-122.91085492068451,356.62692642211914,-1.0
2024-07-07 19:39:16.7450,0.015,-0.382,-1.096,0.02,0.83,1.52,49.27806518955206,-122.91085492068451,356.62692642211914,-1.0
2024-07-07 19:39:16.7550,0.012,-0.373,-1.104,0.05,0.66,1.44,49.27806518955206,-122.91085492068451,356.62692642211914,-1.0
2024-07-07 19:39:16.7650,0.02,-0.385,-1.116,0.08,0.62,1.52,49.27806518955206,-122.91085492068451,356.62692642211914,-1.0
2024-07-07 19:39:16.7750,0.032,-0.406,-1.116,0.02,0.79,1.62,49.27806518955206,-122.91085492068451,356.62692642211914,-1.0
2024-07-07 19:39:16.7850,0.043,-0.413,-1.112,-0.06,0.99,1.6,49.27806518955206,-122.91085492068451,356.62692642211914,-1.0
2024-07-07 19:39:16.7950,0.049,-0.404,-1.116,-0.12,1.05,1.56,49.27806518955206,-122.91085492068451,356.62692642211914,-1.0
2024-07-07 19:39:16.8050,0.062,-0.37,-1.185,-0.14,0.94,1.63,49.27806518955206,-122.91085492068451,356.62692642211914,-1.0
2024-07-07 19:39:16.8150,0.07,-0.337,-1.219,-0.26,0.61,2.42,49.27806518955206,-122.91085492068451,356.62692642211914,-1.0
2024-07-07 19:39:16.8250,0.056,-0.291,-1.147,-0.27,0.31,2.5,49.27806518955206,-122.91085492068451,356.62692642211914,-1.0
2024-07-07 19:39:16.8350,0.053,-0.26,-1.175,-0.11,-0.11,1.88,49.27806518955206,-122.91085492068451,356.62692642211914,-1.0
2024-07-07 19:39:16.8450,0.046,-0.225,-1.201,-0.08,-0.36,2.19,49.27806518955206,-122.91085492068451,356.62692642211914,-1.0
2024-07-07 19:39:16.8550,0.031,-0.174,-1.235,0.02,-0.69,2.44,49.27806518955206,-122.91085492068451,356.62692642211914,-1.0
2024-07-07 19:39:16.8650,0.021,-0.14,-1.218,0.15,-1.14,2.73,49.27806518955206,-122.91085492068451,356.62692642211914,-1.0
2024-07-07 19:39:16.8760,0.006,-0.12,-1.16,0.22,-1.44,2.48,49.27806518955206,-122.91085492068451,356.62692642211914,-1.0
2024-07-07 19:39:16.8860,-0.015,-0.12,-1.089,0.36,-1.6,1.89,49.27806518955206,-122.91085492068451,356.62692642211914,-1.0
2024-07-07 19:39:16.8960,-0.034,-0.129,-1.011,0.54,-1.59,1.19,49.27806518955206,-122.91085492068451,356.62692642211914,-1.0
2024-07-07 19:39:16.9060,-0.046,-0.141,-0.941,0.7,-1.52,0.42,49.27806518955206,-122.91085492068451,356.62692642211914,-1.0
2024-07-07 19:39:16.9160,-0.051,-0.161,-0.897,0.81,-1.41,-0.23,49.27806518955206,-122.91085492068451,356.62692642211914,-1.0
2024-07-07 19:39:16.9260,-0.058,-0.176,-0.884,0.88,-1.24,-0.62,49.27806518955206,-122.91085492068451,356.62692642211914,-1.0
2024-07-07 19:39:16.9360,-0.056,-0.174,-0.885,0.97,-1.13,-0.71,49.27806518955206,-122.91085492068451,356.62692642211914,-1.0
2024-07-07 19:39:16.9460,-0.048,-0.161,-0.893,0.98,-1.21,-0.68,49.27806518955206,-122.91085492068451,356.62692642211914,-1.0
2024-07-07 19:39:16.9560,-0.034,-0.147,-0.913,0.95,-1.37,-0.58,49.27806518955206,-122.91085492068451,356.62692642211914,-1.0
2024-07-07 19:39:16.9660,-0.015,-0.136,-0.939,0.87,-1.53,-0.36,49.27806518955206,-122.91085492068451,356.62692642211914,-1.0
2024-07-07 19:39:16.9770,0.003,-0.131,-0.971,0.74,-1.66,-0.09,49.27806518955206,-122.91085492068451,356.62692642211914,-1.0
2024-07-07 19:39:16.9860,0.019,-0.129,-1.001,0.62,-1.71,0.24,49.27806518955206,-122.91085492068451,356.62692642211914,-1.0
2024-07-07 19:39:16.9960,0.033,-0.125,-1.017,0.5,-1.74,0.53,49.27806518955206,-122.91085492068451,356.62692642211914,-1.0
2024-07-07 19:39:17.0070,0.04,-0.124,-1.012,0.38,-1.78,0.67,49.27806518955206,-122.91085492068451,356.62692642211914,-1.0
2024-07-07 19:39:17.0170,0.037,-0.13,-0.99,0.34,-1.77,0.59,49.27806518955206,-122.91085492068451,356.62692642211914,-1.0
2024-07-07 19:39:17.0270,0.03,-0.137,-0.951,0.37,-1.7,0.35,49.27806518955206,-122.91085492068451,356.62692642211914,-1.0
2024-07-07 19:39:17.0370,0.024,-0.146,-0.898,0.42,-1.64,-0.05,49.27806518955206,-122.91085492068451,356.62692642211914,-1.0
2024-07-07 19:39:17.0470,0.015,-0.162,-0.843,0.46,-1.54,-0.58,49.27806518955206,-122.91085492068451,356.62692642211914,-1.0
2024-07-07 19:39:17.0570,0.006,-0.178,-0.79,0.52,-1.37,-1.13,49.27806518955206,-122.91085492068451,356.62692642211914,-1.0
2024-07-07 19:39:17.0670,-0.005,-0.189,-0.746,0.6,-1.22,-1.64,49.27806518955206,-122.91085492068451,356.62692642211914,-1.0
2024-07-07 19:39:17.0770,-0.017,-0.203,-0.721,0.69,-1.11,-2.06,49.27806518955206,-122.91085492068451,356.62692642211914,-1.0
2024-07-07 19:39:17.0870,-0.028,-0.218,-0.707,0.8,-0.97,-2.29,49.27806518955206,-122.91085492068451,356.62692642211914,-1.0
2024-07-07 19:39:17.0970,-0.032,-0.231,-0.7,0.9,-0.82,-2.41,49.27806518955206,-122.91085492068451,356.62692642211914,-1.0
2024-07-07 19:39:17.1080,-0.029,-0.241,-0.706,0.94,-0.7,-2.47,49.27806518955206,-122.91085492068451,356.62692642211914,-1.0
2024-07-07 19:39:17.1180,-0.026,-0.246,-0.727,0.92,-0.6,-2.39,49.27806518955206,-122.91085492068451,356.62692642211914,-1.0
2024-07-07 19:39:17.1270,-0.019,-0.245,-0.751,0.91,-0.56,-2.17,49.278031269666315,-122.91085279573329,355.05585981243075,3.235032081604004
2024-07-07 19:39:17.1370,-0.016,-0.247,-0.771,0.86,-0.56,-1.94,49.278031269666315,-122.91085279573329,355.05585981243075,3.235032081604004
2024-07-07 19:39:17.1480,-0.013,-0.251,-0.79,0.85,-0.52,-1.74,49.278031269666315,-122.91085279573329,355.05585981243075,3.235032081604004
2024-07-07 19:39:17.1580,-0.007,-0.254,-0.807,0.83,-0.47,-1.56,49.278031269666315,-122.91085279573329,355.05585981243075,3.235032081604004
2024-07-07 19:39:17.1680,0.001,-0.258,-0.811,0.77,-0.43,-1.41,49.278031269666315,-122.91085279573329,355.05585981243075,3.235032081604004
2024-07-07 19:39:17.1780,0.004,-0.262,-0.811,0.71,-0.37,-1.39,49.278031269666315,-122.91085279573329,355.05585981243075,3.235032081604004
2024-07-07 19:39:17.1880,0.004,-0.269,-0.811,0.69,-0.32,-1.4,49.278031269666315,-122.91085279573329,355.05585981243075,3.235032081604004
2024-07-07 19:39:17.1980,-0.001,-0.282,-0.82,0.69,-0.22,-1.4,49.278031269666315,-122.91085279573329,355.05585981243075,3.235032081604004
2024-07-07 19:39:17.2080,-0.006,-0.291,-0.837,0.75,-0.07,-1.3,49.278031269666315,-122.91085279573329,355.05585981243075,3.235032081604004
2024-07-07 19:39:17.2180,-0.009,-0.296,-0.849,0.79,0.04,-1.14,49.278031269666315,-122.91085279573329,355.05585981243075,3.235032081604004
2024-07-07 19:39:17.2290,-0.014,-0.304,-0.857,0.81,0.12,-1.04,49.278031269666315,-122.91085279573329,355.05585981243075,3.235032081604004
2024-07-07 19:39:17.2380,-0.022,-0.309,-0.855,0.86,0.21,-0.98,49.278031269666315,-122.91085279573329,355.05585981243075,3.235032081604004
2024-07-07 19:39:17.2480,-0.028,-0.316,-0.851,0.93,0.3,-1.02,49.278031269666315,-122.91085279573329,355.05585981243075,3.235032081604004
2024-07-07 19:39:17.2580,-0.032,-0.324,-0.858,0.98,0.39,-1.06,49.278031269666315,-122.91085279573329,355.05585981243075,3.235032081604004
2024-07-07 19:39:17.2690,-0.035,-0.324,-0.886,1.02,0.49,-0.98,49.278031269666315,-122.91085279573329,355.05585981243075,3.235032081604004
2024-07-07 19:39:17.2780,-0.029,-0.32,-0.921,1.04,0.51,-0.68,49.278031269666315,-122.91085279573329,355.05585981243075,3.235032081604004
2024-07-07 19:39:17.2890,-0.027,-0.315,-0.949,0.99,0.49,-0.35,49.278031269666315,-122.91085279573329,355.05585981243075,3.235032081604004
2024-07-07 19:39:17.2980,-0.028,-0.306,-0.973,0.96,0.45,-0.1,49.278031269666315,-122.91085279573329,355.05585981243075,3.235032081604004
2024-07-07 19:39:17.3090,-0.033,-0.297,-0.992,1.0,0.38,0.14,49.278031269666315,-122.91085279573329,355.05585981243075,3.235032081604004
2024-07-07 19:39:17.3190,-0.033,-0.295,-0.996,1.04,0.3,0.3,49.278031269666315,-122.91085279573329,355.05585981243075,3.235032081604004
2024-07-07 19:39:17.3290,-0.03,-0.303,-1.003,1.06,0.29,0.33,49.278031269666315,-122.91085279573329,355.05585981243075,3.235032081604004
2024-07-07 19:39:17.3390,-0.018,-0.315,-1.021,1.06,0.37,0.42,49.278031269666315,-122.91085279573329,355.05585981243075,3.235032081604004
2024-07-07 19:39:17.3490,0.002,-0.325,-1.043,0.96,0.47,0.62,49.278031269666315,-122.91085279573329,355.05585981243075,3.235032081604004
2024-07-07 19:39:17.3590,0.026,-0.339,-1.065,0.79,0.56,0.85,49.278031269666315,-122.91085279573329,355.05585981243075,3.235032081604004
2024-07-07 19:39:17.3700,0.046,-0.357,-1.089,0.61,0.68,1.07,49.278031269666315,-122.91085279573329,355.05585981243075,3.235032081604004
2024-07-07 19:39:17.3800,0.058,-0.364,-1.116,0.46,0.82,1.32,49.278031269666315,-122.91085279573329,355.05585981243075,3.235032081604004
2024-07-07 19:39:17.3890,0.07,-0.372,-1.131,0.39,0.86,1.6,49.278031269666315,-122.91085279573329,355.05585981243075,3.235032081604004
2024-07-07 19:39:17.4000,0.082,-0.376,-1.139,0.31,0.91,1.73,49.278031269666315,-122.91085279573329,355.05585981243075,3.235032081604004
2024-07-07 19:39:17.4100,0.09,-0.375,-1.151,0.22,0.91,1.83,49.278031269666315,-122.91085279573329,355.05585981243075,3.235032081604004
2024-07-07 19:39:17.4200,0.097,-0.381,-1.145,0.17,0.88,1.95,49.278031269666315,-122.91085279573329,355.05585981243075,3.235032081604004
2024-07-07 19:39:17.4300,0.1,-0.394,-1.136,0.12,0.93,1.88,49.278031269666315,-122.91085279573329,355.05585981243075,3.235032081604004
2024-07-07 19:39:17.4400,0.107,-0.415,-1.133,0.11,1.05,1.8,49.278031269666315,-122.91085279573329,355.05585981243075,3.235032081604004
2024-07-07 19:39:17.4500,0.129,-0.435,-1.118,0.02,1.27,1.77,49.278031269666315,-122.91085279573329,355.05585981243075,3.235032081604004
2024-07-07 19:39:17.4600,0.153,-0.437,-1.107,-0.19,1.46,1.6,49.278031269666315,-122.91085279573329,355.05585981243075,3.235032081604004
2024-07-07 19:39:17.4700,0.172,-0.413,-1.119,-0.41,1.49,1.52,49.278031269666315,-122.91085279573329,355.05585981243075,3.235032081604004
2024-07-07 19:39:17.4800,0.186,-0.368,-1.153,-0.57,1.28,1.64,49.278031269666315,-122.91085279573329,355.05585981243075,3.235032081604004
2024-07-07 19:39:17.4910,0.205,-0.308,-1.204,-0.7,0.9,1.99,49.278031269666315,-122.91085279573329,355.05585981243075,3.235032081604004
2024-07-07 19:39:17.5000,0.214,-0.245,-1.244,-0.89,0.38,2.47,49.278031269666315,-122.91085279573329,355.05585981243075,3.235032081604004
2024-07-07 19:39:17.5110,0.213,-0.182,-1.267,-0.97,-0.16,2.81,49.278031269666315,-122.91085279573329,355.05585981243075,3.235032081604004
2024-07-07 19:39:17.5210,0.21,-0.118,-1.264,-0.97,-0.72,3.0,49.278031269666315,-122.91085279573329,355.05585981243075,3.235032081604004
2024-07-07 19:39:17.5300,0.209,-0.066,-1.229,-0.98,-1.31,2.91,49.278031269666315,-122.91085279573329,355.05585981243075,3.235032081604004
2024-07-07 19:39:17.5410,0.203,-0.041,-1.182,-1.01,-1.78,2.53,49.278031269666315,-122.91085279573329,355.05585981243075,3.235032081604004
2024-07-07 19:39:17.5510,0.198,-0.037,-1.128,-0.99,-1.99,2.06,49.278031269666315,-122.91085279573329,355.05585981243075,3.235032081604004
2024-07-07 19:39:17.5610,0.196,-0.049,-1.062,-0.98,-2.01,1.51,49.278031269666315,-122.91085279573329,355.05585981243075,3.235032081604004
2024-07-07 19:39:17.5710,0.197,-0.074,-1.001,-1.0,-1.89,0.86,49.278031269666315,-122.91085279573329,355.05585981243075,3.235032081604004
2024-07-07 19:39:17.5810,0.205,-0.099,-0.951,-1.04,-1.66,0.28,49.278031269666315,-122.91085279573329,355.05585981243075,3.235032081604004
2024-07-07 19:39:17.5920,0.22,-0.124,-0.914,-1.16,-1.45,-0.19,49.278031269666315,-122.91085279573329,355.05585981243075,3.235032081604004
2024-07-07 19:39:17.6010,0.235,-0.149,-0.892,-1.31,-1.24,-0.52,49.278031269666315,-122.91085279573329,355.05585981243075,3.235032081604004
2024-07-07 19:39:17.6110,0.246,-0.174,-0.872,-1.46,-1.03,-0.72,49.278031269666315,-122.91085279573329,355.05585981243075,3.235032081604004
2024-07-07 19:39:17.6210,0.254,-0.194,-0.854,-1.55,-0.83,-0.9,49.278031269666315,-122.91085279573329,355.05585981243075,3.235032081604004
2024-07-07 19:39:17.6310,0.257,-0.212,-0.839,-1.61,-0.69,-1.06,49.278031269666315,-122.91085279573329,355.05585981243075,3.235032081604004
2024-07-07 19:39:17.6420,0.253,-0.231,-0.83,-1.6,-0.57,-1.19,49.278031269666315,-122.91085279573329,355.05585981243075,3.235032081604004
2024-07-07 19:39:17.6510,0.25,-0.248,-0.835,-1.54,-0.43,-1.24,49.278031269666315,-122.91085279573329,355.05585981243075,3.235032081604004
2024-07-07 19:39:17.6610,0.239,-0.262,-0.838,-1.48,-0.32,-1.16,49.278031269666315,-122.91085279573329,355.05585981243075,3.235032081604004
2024-07-07 19:39:17.6720,0.222,-0.273,-0.837,-1.35,-0.24,-1.13,49.278031269666315,-122.91085279573329,355.05585981243075,3.235032081604004
2024-07-07 19:39:17.6820,0.206,-0.277,-0.833,-1.17,-0.18,-1.13,49.278031269666315,-122.91085279573329,355.05585981243075,3.235032081604004
2024-07-07 19:39:17.6920,0.194,-0.277,-0.823,-1.03,-0.18,-1.17,49.278031269666315,-122.91085279573329,355.05585981243075,3.235032081604004
2024-07-07 19:39:17.7020,0.176,-0.278,-0.811,-0.91,-0.2,-1.27,49.278031269666315,-122.91085279573329,355.05585981243075,3.235032081604004
2024-07-07 19:39:17.7120,0.154,-0.28,-0.804,-0.76,-0.19,-1.38,49.278031269666315,-122.91085279573329,355.05585981243075,3.235032081604004
2024-07-07 19:39:17.7220,0.131,-0.279,-0.797,-0.57,-0.16,-1.45,49.278031269666315,-122.91085279573329,355.05585981243075,3.235032081604004
2024-07-07 19:39:17.7320,0.108,-0.274,-0.789,-0.38,-0.17,-1.53,49.278031269666315,-122.91085279573329,355.05585981243075,3.235032081604004
2024-07-07 19:39:17.7420,0.085,-0.268,-0.777,-0.18,-0.19,-1.63,49.278031269666315,-122.91085279573329,355.05585981243075,3.235032081604004
2024-07-07 19:39:17.7520,0.066,-0.259,-0.774,0.0,-0.22,-1.76,49.278031269666315,-122.91085279573329,355.05585981243075,3.235032081604004
2024-07-07 19:39:17.7620,0.053,-0.248,-0.787,0.14,-0.27,-1.78,49.278031269666315,-122.91085279573329,355.05585981243075,3.235032081604004
2024-07-07 19:39:17.7730,0.051,-0.237,-0.8,0.21,-0.34,-1.65,49.278031269666315,-122.91085279573329,355.05585981243075,3.235032081604004
2024-07-07 19:39:17.7830,0.05,-0.235,-0.807,0.19,-0.41,-1.54,49.278031269666315,-122.91085279573329,355.05585981243075,3.235032081604004
2024-07-07 19:39:17.7930,0.051,-0.248,-0.814,0.16,-0.37,-1.5,49.278031269666315,-122.91085279573329,355.05585981243075,3.235032081604004
2024-07-07 19:39:17.8030,0.053,-0.264,-0.815,0.11,-0.21,-1.44,49.278031269666315,-122.91085279573329,355.05585981243075,3.235032081604004
2024-07-07 19:39:17.8130,0.056,-0.282,-0.814,0.05,-0.02,-1.45,49.278031269666315,-122.91085279573329,355.05585981243075,3.235032081604004
2024-07-07 19:39:17.8230,0.061,-0.296,-0.818,-0.01,0.17,-1.45,49.278031269666315,-122.91085279573329,355.05585981243075,3.235032081604004
2024-07-07 19:39:17.8330,0.063,-0.307,-0.823,-0.07,0.32,-1.42,49.278031269666315,-122.91085279573329,355.05585981243075,3.235032081604004
2024-07-07 19:39:17.8430,0.064,-0.315,-0.832,-0.12,0.43,-1.38,49.278031269666315,-122.91085279573329,355.05585981243075,3.235032081604004
2024-07-07 19:39:17.8530,0.064,-0.325,-0.841,-0.15,0.53,-1.28,49.278031269666315,-122.91085279573329,355.05585981243075,3.235032081604004
2024-07-07 19:39:17.8630,0.062,-0.331,-0.844,-0.18,0.64,-1.21,49.278031269666315,-122.91085279573329,355.05585981243075,3.235032081604004
2024-07-07 19:39:17.8730,0.058,-0.332,-0.85,-0.19,0.7,-1.18,49.278031269666315,-122.91085279573329,355.05585981243075,3.235032081604004
2024-07-07 19:39:17.8830,0.053,-0.331,-0.851,-0.17,0.71,-1.13,49.278031269666315,-122.91085279573329,355.05585981243075,3.235032081604004
2024-07-07 19:39:17.8930,0.047,-0.335,-0.846,-0.15,0.71,-1.14,49.278031269666315,-122.91085279573329,355.05585981243075,3.235032081604004
2024-07-07 19:39:17.9030,0.037,-0.342,-0.845,-0.12,0.77,-1.18,49.278031269666315,-122.91085279573329,355.05585981243075,3.235032081604004
2024-07-07 19:39:17.9130,0.025,-0.347,-0.852,-0.03,0.85,-1.19,49.278031269666315,-122.91085279573329,355.05585981243075,3.235032081604004
2024-07-07 19:39:17.9240,0.02,-0.347,-0.852,0.05,0.9,-1.13,49.278031269666315,-122.91085279573329,355.05585981243075,3.235032081604004
2024-07-07 19:39:17.9340,0.015,-0.352,-0.852,0.08,0.91,-1.14,49.278031269666315,-122.91085279573329,355.05585981243075,3.235032081604004
2024-07-07 19:39:17.9440,0.014,-0.361,-0.862,0.1,0.96,-1.13,49.278031269666315,-122.91085279573329,355.05585981243075,3.235032081604004
2024-07-07 19:39:17.9540,0.008,-0.374,-0.869,0.11,1.05,-1.02,49.278031269666315,-122.91085279573329,355.05585981243075,3.235032081604004
2024-07-07 19:39:17.9640,-0.001,-0.395,-0.871,0.16,1.17,-0.95,49.278031269666315,-122.91085279573329,355.05585981243075,3.235032081604004
2024-07-07 19:39:17.9740,-0.015,-0.416,-0.878,0.26,1.37,-0.93,49.278031269666315,-122.91085279573329,355.05585981243075,3.235032081604004
2024-07-07 19:39:17.9840,-0.024,-0.433,-0.891,0.39,1.56,-0.85,49.278031269666315,-122.91085279573329,355.05585981243075,3.235032081604004
2024-07-07 19:39:17.9940,-0.033,-0.446,-0.909,0.49,1.69,-0.71,49.278031269666315,-122.91085279573329,355.05585981243075,3.235032081604004
2024-07-07 19:39:18.0040,-0.039,-0.442,-0.953,0.59,1.79,-0.51,49.278031269666315,-122.91085279573329,355.05585981243075,3.235032081604004
2024-07-07 19:39:18.0140,-0.033,-0.422,-1.01,0.66,1.69,-0.03,49.278031269666315,-122.91085279573329,355.05585981243075,3.235032081604004
2024-07-07 19:39:18.0240,-0.02,-0.408,-1.058,0.6,1.45,0.53,49.278031269666315,-122.91085279573329,355.05585981243075,3.235032081604004
2024-07-07 19:39:18.0340,-0.016,-0.411,-1.085,0.5,1.29,0.99,49.278031269666315,-122.91085279573329,355.05585981243075,3.235032081604004
2024-07-07 19:39:18.0450,-0.013,-0.422,-1.099,0.49,1.3,1.25,49.278031269666315,-122.91085279573329,355.05585981243075,3.235032081604004
2024-07-07 19:39:18.0540,-0.001,-0.433,-1.118,0.47,1.37,1.4,49.278031269666315,-122.91085279573329,355.05585981243075,3.235032081604004
2024-07-07 19:39:18.0650,0.017,-0.442,-1.136,0.36,1.44,1.6,49.278031269666315,-122.91085279573329,355.05585981243075,3.235032081604004
2024-07-07 19:39:18.0750,0.024,-0.448,-1.163,0.2,1.5,1.78,49.278031269666315,-122.91085279573329,355.05585981243075,3.235032081604004
2024-07-07 19:39:18.0850,0.019,-0.447,-1.201,0.17,1.54,2.07,49.278031269666315,-122.91085279573329,355.05585981243075,3.235032081604004
2024-07-07 19:39:18.0950,0.015,-0.434,-1.229,0.23,1.52,2.44,49.278031269666315,-122.91085279573329,355.05585981243075,3.235032081604004
2024-07-07 19:39:18.1050,0.016,-0.393,-1.254,0.28,1.38,2.69,49.278031269666315,-122.91085279573329,355.05585981243075,3.235032081604004
2024-07-07 19:39:18.1150,0.023,-0.331,-1.291,0.28,0.98,2.95,49.278031269666315,-122.91085279573329,355.05585981243075,3.235032081604004
2024-07-07 19:39:18.1250,0.04,-0.262,-1.322,0.2,0.38,3.3,49.278031269666315,-122.91085279573329,355.05585981243075,3.235032081604004
2024-07-07 19:39:18.1350,0.063,-0.203,-1.329,0.03,-0.26,3.58,49.27801145025027,-122.91085889913556,354.6725102298737,0.9343960881233215
2024-07-07 19:39:18.1450,0.08,-0.169,-1.307,-0.2,-0.78,3.6,49.27801145025027,-122.91085889913556,354.6725102298737,0.9343960881233215
2024-07-07 19:39:18.1550,0.08,-0.148,-1.255,-0.36,-1.08,3.34,49.27801145025027,-122.91085889913556,354.6725102298737,0.9343960881233215
2024-07-07 19:39:18.1650,0.074,-0.136,-1.185,-0.36,-1.27,2.8,49.27801145025027,-122.91085889913556,354.6725102298737,0.9343960881233215
2024-07-07 19:39:18.1750,0.062,-0.131,-1.136,-0.3,-1.38,2.13,49.27801145025027,-122.91085889913556,354.6725102298737,0.9343960881233215
2024-07-07 19:39:18.1860,0.045,-0.122,-1.105,-0.17,-1.45,1.68,49.27801145025027,-122.91085889913556,354.6725102298737,0.9343960881233215
2024-07-07 19:39:18.1960,0.032,-0.11,-1.068,-0.01,-1.56,1.38,49.27801145025027,-122.91085889913556,354.6725102298737,0.9343960881233215
2024-07-07 19:39:18.2060,0.01,-0.104,-1.034,0.14,-1.7,1.02,49.27801145025027,-122.91085889913556,354.6725102298737,0.9343960881233215
2024-07-07 19:39:18.2160,-0.012,-0.101,-1.0,0.38,-1.78,0.71,49.27801145025027,-122.91085889913556,354.6725102298737,0.9343960881233215
2024-07-07 19:39:18.2260,-0.026,-0.096,-0.968,0.6,-1.84,0.38,49.27801145025027,-122.91085889913556,354.6725102298737,0.9343960881233215
2024-07-07 19:39:18.2360,-0.031,-0.095,-0.952,0.76,-1.93,0.1,49.27801145025027,-122.91085889913556,354.6725102298737,0.9343960881233215
2024-07-07 19:39:18.2460,-0.026,-0.1,-0.936,0.83,-1.97,-0.04,49.27801145025027,-122.91085889913556,354.6725102298737,0.9343960881233215
2024-07-07 19:39:18.2560,-0.019,-0.112,-0.927,0.81,-1.95,-0.19,49.27801145025027,-122.91085889913556,354.6725102298737,0.9343960881233215
2024-07-07 19:39:18.2660,-0.011,-0.127,-0.92,0.79,-1.87,-0.24,49.27801145025027,-122.91085889913556,354.6725102298737,0.9343960881233215
2024-07-07 19:39:18.2760,-0.006,-0.141,-0.909,0.75,-1.77,-0.3,49.27801145025027,-122.91085889913556,354.6725102298737,0.9343960881233215
2024-07-07 19:39:18.2860,-0.002,-0.146,-0.903,0.75,-1.67,-0.4,49.27801145025027,-122.91085889913556,354.6725102298737,0.9343960881233215
2024-07-07 19:39:18.2960,0.002,-0.145,-0.9,0.74,-1.66,-0.44,49.27801145025027,-122.91085889913556,354.6725102298737,0.9343960881233215
2024-07-07 19:39:18.3060,0.006,-0.142,-0.897,0.73,-1.7,-0.45,49.27801145025027,-122.91085889913556,354.6725102298737,0.9343960881233215
2024-07-07 19:39:18.3160,0.003,-0.138,-0.894,0.71,-1.74,-0.48,49.27801145025027,-122.91085889913556,354.6725102298737,0.9343960881233215
2024-07-07 19:39:18.3260,-0.005,-0.137,-0.891,0.76,-1.79,-0.5,49.27801145025027,-122.91085889913556,354.6725102298737,0.9343960881233215
2024-07-07 19:39:18.3360,-0.013,-0.136,-0.879,0.83,-1.8,-0.54,49.27801145025027,-122.91085889913556,354.6725102298737,0.9343960881233215
2024-07-07 19:39:18.3470,-0.019,-0.139,-0.856,0.9,-1.8,-0.67,49.27801145025027,-122.91085889913556,354.6725102298737,0.9343960881233215
2024-07-07 19:39:18.3570,-0.026,-0.149,-0.822,0.95,-1.76,-0.91,49.27801145025027,-122.91085889913556,354.6725102298737,0.9343960881233215
2024-07-07 19:39:18.3670,-0.031,-0.165,-0.789,1.02,-1.65,-1.26,49.27801145025027,-122.91085889913556,354.6725102298737,0.9343960881233215
2024-07-07 19:39:18.3770,-0.031,-0.185,-0.766,1.06,-1.49,-1.57,49.27801145025027,-122.91085889913556,354.6725102298737,0.9343960881233215
2024-07-07 19:39:18.3870,-0.029,-0.207,-0.748,1.06,-1.28,-1.78,49.27801145025027,-122.91085889913556,354.6725102298737,0.9343960881233215
2024-07-07 19:39:18.3970,-0.023,-0.227,-0.749,1.05,-1.08,-1.95,49.27801145025027,-122.91085889913556,354.6725102298737,0.9343960881233215
2024-07-07 19:39:18.4070,-0.012,-0.246,-0.765,1.01,-0.9,-1.9,49.27801145025027,-122.91085889913556,354.6725102298737,0.9343960881233215
2024-07-07 19:39:18.4180,0.003,-0.259,-0.785,0.92,-0.73,-1.74,49.27801145025027,-122.91085889913556,354.6725102298737,0.9343960881233215
2024-07-07 19:39:18.4280,0.017,-0.269,-0.819,0.79,-0.61,-1.52,49.27801145025027,-122.91085889913556,354.6725102298737,0.9343960881233215
2024-07-07 19:39:18.4380,0.028,-0.273,-0.855,0.68,-0.53,-1.16,49.27801145025027,-122.91085889913556,354.6725102298737,0.9343960881233215
2024-07-07 19:39:18.4480,0.037,-0.276,-0.876,0.58,-0.5,-0.82,49.27801145025027,-122.91085889913556,354.6725102298737,0.9343960881233215
2024-07-07 19:39:18.4580,0.04,-0.277,-0.882,0.5,-0.47,-0.64,49.27801145025027,-122.91085889913556,354.6725102298737,0.9343960881233215
2024-07-07 19:39:18.4680,0.038,-0.276,-0.871,0.48,-0.46,-0.6,49.27801145025027,-122.91085889913556,354.6725102298737,0.9343960881233215
2024-07-07 19:39:18.4780,0.037,-0.282,-0.86,0.49,-0.46,-0.72,49.27801145025027,-122.91085889913556,354.6725102298737,0.9343960881233215
2024-07-07 19:39:18.4880,0.037,-0.29,-0.855,0.49,-0.37,-0.82,49.27801145025027,-122.91085889913556,354.6725102298737,0.9343960881233215
2024-07-07 19:39:18.4980,0.04,-0.295,-0.845,0.47,-0.28,-0.88,49.27801145025027,-122.91085889913556,354.6725102298737,0.9343960881233215
2024-07-07 19:39:18.5080,0.039,-0.302,-0.835,0.43,-0.21,-1.0,49.27801145025027,-122.91085889913556,354.6725102298737,0.9343960881233215
2024-07-07 19:39:18.5180,0.037,-0.313,-0.828,0.44,-0.12,-1.1,49.27801145025027,-122.91085889913556,354.6725102298737,0.9343960881233215
2024-07-07 19:39:18.5280,0.036,-0.328,-0.823,0.45,0.01,-1.17,49.27801145025027,-122.91085889913556,354.6725102298737,0.9343960881233215
2024-07-07 19:39:18.5380,0.035,-0.343,-0.818,0.45,0.17,-1.22,49.27801145025027,-122.91085889913556,354.6725102298737,0.9343960881233215
2024-07-07 19:39:18.5480,0.028,-0.357,-0.818,0.47,0.33,-1.27,49.27801145025027,-122.91085889913556,354.6725102298737,0.9343960881233215
2024-07-07 19:39:18.5590,0.021,-0.361,-0.822,0.54,0.46,-1.27,49.27801145025027,-122.91085889913556,354.6725102298737,0.9343960881233215
2024-07-07 19:39:18.5690,0.016,-0.363,-0.828,0.62,0.51,-1.23,49.27801145025027,-122.91085889913556,354.6725102298737,0.9343960881233215
2024-07-07 19:39:18.5790,0.012,-0.366,-0.845,0.67,0.54,-1.17,49.27801145025027,-122.91085889913556,354.6725102298737,0.9343960881233215
2024-07-07 19:39:18.5890,0.014,-0.37,-0.866,0.72,0.58,-0.98,49.27801145025027,-122.91085889913556,354.6725102298737,0.9343960881233215
2024-07-07 19:39:18.5990,0.023,-0.379,-0.888,0.71,0.64,-0.78,49.27801145025027,-122.91085889913556,354.6725102298737,0.9343960881233215
2024-07-07 19:39:18.6090,0.033,-0.391,-0.918,0.63,0.74,-0.57,49.27801145025027,-122.91085889913556,354.6725102298737,0.9343960881233215
2024-07-07 19:39:18.6190,0.04,-0.402,-0.946,0.55,0.86,-0.26,49.27801145025027,-122.91085889913556,354.6725102298737,0.9343960881233215
2024-07-07 19:39:18.6290,0.043,-0.412,-0.965,0.49,0.99,0.0,49.27801145025027,-122.91085889913556,354.6725102298737,0.9343960881233215
2024-07-07 19:39:18.6390,0.045,-0.412,-0.981,0.48,1.07,0.18,49.27801145025027,-122.91085889913556,354.6725102298737,0.9343960881233215
2024-07-07 19:39:18.6490,0.047,-0.413,-0.986,0.47,1.07,0.32,49.27801145025027,-122.91085889913556,354.6725102298737,0.9343960881233215
2024-07-07 19:39:18.6590,0.049,-0.417,-0.984,0.45,1.08,0.37,49.27801145025027,-122.91085889913556,354.6725102298737,0.9343960881233215
2024-07-07 19:39:18.6690,0.054,-0.423,-0.983,0.44,1.11,0.34,49.27801145025027,-122.91085889913556,354.6725102298737,0.9343960881233215
2024-07-07 19:39:18.6790,0.066,-0.43,-0.989,0.41,1.17,0.35,49.27801145025027,-122.91085889913556,354.6725102298737,0.9343960881233215
2024-07-07 19:39:18.6890,0.085,-0.432,-1.013,0.3,1.23,0.42,49.27801145025027,-122.91085889913556,354.6725102298737,0.9343960881233215
2024-07-07 19:39:18.7000,0.102,-0.428,-1.054,0.13,1.23,0.69,49.27801145025027,-122.91085889913556,354.6725102298737,0.9343960881233215
2024-07-07 19:39:18.7100,0.125,-0.422,-1.087,-0.01,1.19,1.1,49.27801145025027,-122.91085889913556,354.6725102298737,0.9343960881233215
2024-07-07 19:39:18.7200,0.155,-0.41,-1.108,-0.22,1.11,1.41,49.27801145025027,-122.91085889913556,354.6725102298737,0.9343960881233215
2024-07-07 19:39:18.7300,0.178,-0.396,-1.134,-0.49,0.98,1.62,49.27801145025027,-122.91085889913556,354.6725102298737,0.9343960881233215
2024-07-07 19:39:18.7400,0.193,-0.387,-1.17,-0.68,0.84,1.89,49.27801145025027,-122.91085889913556,354.6725102298737,0.9343960881233215
2024-07-07 19:39:18.7500,0.208,-0.391,-1.198,-0.81,0.79,2.25,49.27801145025027,-122.91085889913556,354.6725102298737,0.9343960881233215
2024-07-07 19:39:18.7600,0.229,-0.39,-1.211,-0.95,0.85,2.49,49.27801145025027,-122.91085889913556,354.6725102298737,0.9343960881233215
2024-07-07 19:39:18.7700,0.254,-0.369,-1.228,-1.16,0.86,2.59,49.27801145025027,-122.91085889913556,354.6725102298737,0.9343960881233215
2024-07-07 19:39:18.7800,0.277,-0.33,-1.262,-1.41,0.7,2.76,49.27801145025027,-122.91085889913556,354.6725102298737,0.9343960881233215
2024-07-07 19:39:18.7900,0.295,-0.276,-1.3,-1.66,0.39,3.08,49.27801145025027,-122.91085889913556,354.6725102298737,0.9343960881233215
2024-07-07 19:39:18.8000,0.301,-0.206,-1.327,-1.86,-0.07,3.42,49.27801145025027,-122.91085889913556,354.6725102298737,0.9343960881233215
2024-07-07 19:39:18.8110,0.288,-0.13,-1.331,-1.97,-0.67,3.62,49.27801145025027,-122.91085889913556,354.6725102298737,0.9343960881233215
2024-07-07 19:39:18.8210,0.267,-0.065,-1.299,-1.89,-1.31,3.6,49.27801145025027,-122.91085889913556,354.6725102298737,0.9343960881233215
2024-07-07 19:39:18.8310,0.252,-0.023,-1.228,-1.77,-1.85,3.2,49.27801145025027,-122.91085889913556,354.6725102298737,0.9343960881233215
2024-07-07 19:39:18.8410,0.243,-0.01,-1.135,-1.73,-2.2,2.45,49.27801145025027,-122.91085889913556,354.6725102298737,0.9343960881233215
2024-07-07 19:39:18.8510,0.237,-0.024,-1.032,-1.74,-2.27,1.51,49.27801145025027,-122.91085889913556,354.6725102298737,0.9343960881233215
2024-07-07 19:39:18.8610,0.234,-0.053,-0.922,-1.77,-2.13,0.48,49.27801145025027,-122.91085889913556,354.6725102298737,0.9343960881233215
2024-07-07 19:39:18.8710,0.231,-0.086,-0.82,-1.8,-1.88,-0.58,49.27801145025027,-122.91085889913556,354.6725102298737,0.9343960881233215
2024-07-07 19:39:18.8810,0.226,-0.124,-0.74,-1.83,-1.62,-1.55,49.27801145025027,-122.91085889913556,354.6725102298737,0.9343960881233215
2024-07-07 19:39:18.8910,0.216,-0.163,-0.685,-1.8,-1.31,-2.28,49.27801145025027,-122.91085889913556,354.6725102298737,0.9343960881233215
2024-07-07 19:39:18.9010,0.208,-0.193,-0.644,-1.71,-1.02,-2.78,49.27801145025027,-122.91085889913556,354.6725102298737,0.9343960881233215
2024-07-07 19:39:18.9110,0.204,-0.21,-0.621,-1.64,-0.81,-3.14,49.27801145025027,-122.91085889913556,354.6725102298737,0.9343960881233215
2024-07-07 19:39:18.9210,0.197,-0.219,-0.622,-1.58,-0.72,-3.31,49.27801145025027,-122.91085889913556,354.6725102298737,0.9343960881233215
2024-07-07 19:39:18.9310,0.188,-0.223,-0.641,-1.48,-0.7,-3.27,49.27801145025027,-122.91085889913556,354.6725102298737,0.9343960881233215
2024-07-07 19:39:18.9410,0.184,-0.219,-0.669,-1.35,-0.72,-3.05,49.27801145025027,-122.91085889913556,354.6725102298737,0.9343960881233215
2024-07-07 19:39:18.9510,0.184,-0.206,-0.706,-1.28,-0.81,-2.74,49.27801145025027,-122.91085889913556,354.6725102298737,0.9343960881233215
2024-07-07 19:39:18.9610,0.184,-0.191,-0.744,-1.25,-0.95,-2.37,49.27801145025027,-122.91085889913556,354.6725102298737,0.9343960881233215
2024-07-07 19:39:18.9720,0.176,-0.182,-0.786,-1.23,-1.1,-1.99,49.27801145025027,-122.91085889913556,354.6725102298737,0.9343960881233215
2024-07-07 19:39:18.9810,0.165,-0.176,-0.831,-1.12,-1.16,-1.58,49.27801145025027,-122.91085889913556,354.6725102298737,0.9343960881233215
2024-07-07 19:39:18.9920,0.155,-0.164,-0.853,-1.03,-1.21,-1.16,49.27801145025027,-122.91085889913556,354.6725102298737,0.9343960881233215
2024-07-07 19:39:19.0020,0.137,-0.165,-0.857,-0.94,-1.29,-0.98,49.27801145025027,-122.91085889913556,354.6725102298737,0.9343960881233215
2024-07-07 19:39:19.0120,0.115,-0.184,-0.836,-0.78,-1.22,-0.99,49.27801145025027,-122.91085889913556,354.6725102298737,0.9343960881233215
2024-07-07 19:39:19.0220,0.089,-0.205,-0.806,-0.6,-0.98,-1.23,49.27801145025027,-122.91085889913556,354.6725102298737,0.9343960881233215
2024-07-07 19:39:19.0320,0.064,-0.217,-0.785,-0.38,-0.73,-1.53,49.27801145025027,-122.91085889913556,354.6725102298737,0.9343960881233215
2024-07-07 19:39:19.0420,0.042,-0.221,-0.765,-0.16,-0.58,-1.75,49.27801145025027,-122.91085889913556,354.6725102298737,0.9343960881233215
2024-07-07 19:39:19.0520,0.024,-0.227,-0.755,0.04,-0.5,-1.95,49.27801145025027,-122.91085889913556,354.6725102298737,0.9343960881233215
2024-07-07 19:39:19.0620,0.014,-0.235,-0.768,0.21,-0.38,-2.04,49.27801145025027,-122.91085889913556,354.6725102298737,0.9343960881233215
2024-07-07 19:39:19.0720,0.016,-0.242,-0.799,0.29,-0.24,-1.91,49.27801145025027,-122.91085889913556,354.6725102298737,0.9343960881233215
2024-07-07 19:39:19.0820,0.029,-0.247,-0.842,0.27,-0.11,-1.6,49.27801145025027,-122.91085889913556,354.6725102298737,0.9343960881233215
2024-07-07 19:39:19.0930,0.038,-0.247,-0.891,0.16,-0.01,-1.18,49.27801145025027,-122.91085889913556,354.6725102298737,0.9343960881233215
2024-07-07 19:39:19.1020,0.043,-0.245,-0.931,0.09,0.03,-0.71,49.27801145025027,-122.91085889913556,354.6725102298737,0.9343960881233215
2024-07-07 19:39:19.1160,0.045,-0.247,-0.946,0.04,0.06,-0.36,49.27801145025027,-122.91085889913556,354.6725102298737,0.9343960881233215
2024-07-07 19:39:19.1230,0.043,-0.258,-0.938,0.02,0.12,-0.25,49.27801145025027,-122.91085889913556,354.6725102298737,0.9343960881233215
2024-07-07 19:39:19.1350,0.033,-0.281,-0.911,0.04,0.29,-0.36,49.27801035137637,-122.91087128656923,354.48403936715124,0.7549257874488831
2024-07-07 19:39:19.1420,0.021,-0.312,-0.875,0.14,0.55,-0.65,49.27801035137637,-122.91087128656923,354.48403936715124,0.7549257874488831
2024-07-07 19:39:19.1530,0.012,-0.341,-0.849,0.26,0.88,-1.01,49.27801035137637,-122.91087128656923,354.48403936715124,0.7549257874488831
2024-07-07 19:39:19.1630,0.006,-0.36,-0.847,0.35,1.18,-1.24,49.27801035137637,-122.91087128656923,354.48403936715124,0.7549257874488831
2024-07-07 19:39:19.1730,-0.0,-0.364,-0.866,0.42,1.38,-1.24,49.27801035137637,-122.91087128656923,354.48403936715124,0.7549257874488831
2024-07-07 19:39:19.1830,-0.011,-0.358,-0.891,0.48,1.44,-1.05,49.27801035137637,-122.91087128656923,354.48403936715124,0.7549257874488831
2024-07-07 19:39:19.1930,-0.022,-0.35,-0.91,0.6,1.4,-0.81,49.27801035137637,-122.91087128656923,354.48403936715124,0.7549257874488831
2024-07-07 19:39:19.2030,-0.034,-0.35,-0.916,0.7,1.35,-0.64,49.27801035137637,-122.91087128656923,354.48403936715124,0.7549257874488831
2024-07-07 19:39:19.2130,-0.044,-0.359,-0.917,0.81,1.38,-0.6,49.27801035137637,-122.91087128656923,354.48403936715124,0.7549257874488831
2024-07-07 19:39:19.2230,-0.051,-0.369,-0.916,0.88,1.5,-0.6,49.27801035137637,-122.91087128656923,354.48403936715124,0.7549257874488831
2024-07-07 19:39:19.2330,-0.056,-0.378,-0.923,0.94,1.63,-0.6,49.27801035137637,-122.91087128656923,354.48403936715124,0.7549257874488831
2024-07-07 19:39:19.2440,-0.061,-0.383,-0.941,0.97,1.73,-0.53,49.27801035137637,-122.91087128656923,354.48403936715124,0.7549257874488831
2024-07-07 19:39:19.2530,-0.067,-0.39,-0.962,1.01,1.82,-0.35,49.27801035137637,-122.91087128656923,354.48403936715124,0.7549257874488831
2024-07-07 19:39:19.2640,-0.075,-0.395,-0.978,1.05,1.91,-0.16,49.27801035137637,-122.91087128656923,354.48403936715124,0.7549257874488831
2024-07-07 19:39:19.2740,-0.078,-0.392,-0.999,1.1,1.98,-0.01,49.27801035137637,-122.91087128656923,354.48403936715124,0.7549257874488831
2024-07-07 19:39:19.2840,-0.069,-0.374,-1.029,1.11,1.95,0.2,49.27801035137637,-122.91087128656923,354.48403936715124,0.7549257874488831
2024-07-07 19:39:19.2940,-0.058,-0.348,-1.076,1.0,1.77,0.51,49.27801035137637,-122.91087128656923,354.48403936715124,0.7549257874488831
2024-07-07 19:39:19.3040,-0.044,-0.32,-1.128,0.88,1.53,0.98,49.27801035137637,-122.91087128656923,354.48403936715124,0.7549257874488831
2024-07-07 19:39:19.3140,-0.031,-0.297,-1.169,0.74,1.26,1.48,49.27801035137637,-122.91087128656923,354.48403936715124,0.7549257874488831
2024-07-07 19:39:19.3240,-0.021,-0.278,-1.202,0.62,1.03,1.88,49.27801035137637,-122.91087128656923,354.48403936715124,0.7549257874488831
2024-07-07 19:39:19.3340,-0.008,-0.266,-1.228,0.52,0.82,2.2,49.27801035137637,-122.91087128656923,354.48403936715124,0.7549257874488831
2024-07-07 19:39:19.3440,0.011,-0.263,-1.246,0.4,0.67,2.45,49.27801035137637,-122.91087128656923,354.48403936715124,0.7549257874488831
2024-07-07 19:39:19.3540,0.049,-0.256,-1.257,0.21,0.59,2.63,49.27801035137637,-122.91087128656923,354.48403936715124,0.7549257874488831
2024-07-07 19:39:19.3650,0.088,-0.251,-1.28,-0.16,0.45,2.75,49.27801035137637,-122.91087128656923,354.48403936715124,0.7549257874488831
2024-07-07 19:39:19.3750,0.109,-0.264,-1.302,-0.52,0.36,3.01,49.27801035137637,-122.91087128656923,354.48403936715124,0.7549257874488831
2024-07-07 19:39:19.3850,0.112,-0.291,-1.291,-0.69,0.47,3.21,49.27801035137637,-122.91087128656923,354.48403936715124,0.7549257874488831
2024-07-07 19:39:19.3950,0.106,-0.299,-1.28,-0.69,0.69,3.08,49.27801035137637,-122.91087128656923,354.48403936715124,0.7549257874488831
2024-07-07 19:39:19.4050,0.105,-0.275,-1.285,-0.63,0.72,3.0,49.27801035137637,-122.91087128656923,354.48403936715124,0.7549257874488831
2024-07-07 19:39:19.4150,0.111,-0.231,-1.288,-0.62,0.44,3.05,49.27801035137637,-122.91087128656923,354.48403936715124,0.7549257874488831
2024-07-07 19:39:19.4250,0.112,-0.192,-1.287,-0.68,0.02,3.08,49.27801035137637,-122.91087128656923,354.48403936715124,0.7549257874488831
2024-07-07 19:39:19.4350,0.108,-0.165,-1.274,-0.69,-0.32,3.05,49.27801035137637,-122.91087128656923,354.48403936715124,0.7549257874488831
2024-07-07 19:39:19.4450,0.103,-0.145,-1.249,-0.65,-0.54,2.9,49.27801035137637,-122.91087128656923,354.48403936715124,0.7549257874488831
2024-07-07 19:39:19.4550,0.097,-0.122,-1.234,-0.6,-0.72,2.64,49.27801035137637,-122.91087128656923,354.48403936715124,0.7549257874488831
2024-07-07 19:39:19.4650,0.09,-0.09,-1.231,-0.55,-0.95,2.52,49.27801035137637,-122.91087128656923,354.48403936715124,0.7549257874488831
2024-07-07 19:39:19.4750,0.08,-0.057,-1.221,-0.48,-1.27,2.48,49.27801035137637,-122.91087128656923,354.48403936715124,0.7549257874488831
2024-07-07 19:39:19.4850,0.064,-0.034,-1.206,-0.38,-1.59,2.39,49.27801035137637,-122.91087128656923,354.48403936715124,0.7549257874488831
2024-07-07 19:39:19.4950,0.046,-0.022,-1.157,-0.24,-1.85,2.23,49.27801035137637,-122.91087128656923,354.48403936715124,0.7549257874488831
2024-07-07 19:39:19.5050,0.023,-0.03,-1.071,-0.08,-2.01,1.7,49.27801035137637,-122.91087128656923,354.48403936715124,0.7549257874488831
2024-07-07 19:39:19.5150,-0.0,-0.059,-0.977,0.13,-1.98,0.85,49.27801035137637,-122.91087128656923,354.48403936715124,0.7549257874488831
2024-07-07 19:39:19.5260,-0.016,-0.099,-0.898,0.35,-1.75,-0.04,49.27801035137637,-122.91087128656923,354.48403936715124,0.7549257874488831
2024-07-07 19:39:19.5360,-0.027,-0.135,-0.839,0.49,-1.44,-0.77,49.27801035137637,-122.91087128656923,354.48403936715124,0.7549257874488831
2024-07-07 19:39:19.5460,-0.038,-0.163,-0.806,0.61,-1.17,-1.3,49.27801035137637,-122.91087128656923,354.48403936715124,0.7549257874488831
2024-07-07 19:39:19.5560,-0.05,-0.178,-0.792,0.74,-0.98,-1.57,49.27801035137637,-122.91087128656923,354.48403936715124,0.7549257874488831
2024-07-07 19:39:19.5660,-0.063,-0.179,-0.79,0.89,-0.91,-1.67,49.27801035137637,-122.91087128656923,354.48403936715124,0.7549257874488831
2024-07-07 19:39:19.5760,-0.071,-0.169,-0.809,1.05,-0.99,-1.66,49.27801035137637,-122.91087128656923,354.48403936715124,0.7549257874488831
2024-07-07 19:39:19.5860,-0.072,-0.157,-0.84,1.16,-1.15,-1.43,49.27801035137637,-122.91087128656923,354.48403936715124,0.7549257874488831
2024-07-07 19:39:19.5960,-0.068,-0.139,-0.864,1.19,-1.32,-1.11,49.27801035137637,-122.91087128656923,354.48403936715124,0.7549257874488831
2024-07-07 19:39:19.6060,-0.067,-0.124,-0.88,1.18,-1.54,-0.87,49.27801035137637,-122.91087128656923,354.48403936715124,0.7549257874488831
2024-07-07 19:39:19.6170,-0.065,-0.118,-0.886,1.19,-1.72,-0.71,49.27801035137637,-122.91087128656923,354.48403936715124,0.7549257874488831
2024-07-07 19:39:19.6260,-0.065,-0.117,-0.887,1.19,-1.8,-0.65,49.27801035137637,-122.91087128656923,354.48403936715124,0.7549257874488831
2024-07-07 19:39:19.6370,-0.064,-0.123,-0.886,1.19,-1.81,-0.64,49.27801035137637,-122.91087128656923,354.48403936715124,0.7549257874488831
2024-07-07 19:39:19.6460,-0.067,-0.13,-0.882,1.18,-1.76,-0.65,49.27801035137637,-122.91087128656923,354.48403936715124,0.7549257874488831
2024-07-07 19:39:19.6570,-0.067,-0.137,-0.876,1.2,-1.7,-0.69,49.27801035137637,-122.91087128656923,354.48403936715124,0.7549257874488831
2024-07-07 19:39:19.6670,-0.066,-0.149,-0.864,1.2,-1.62,-0.76,49.27801035137637,-122.91087128656923,354.48403936715124,0.7549257874488831
2024-07-07 19:39:19.6770,-0.066,-0.16,-0.849,1.17,-1.5,-0.88,49.27801035137637,-122.91087128656923,354.48403936715124,0.7549257874488831
2024-07-07 19:39:19.6870,-0.065,-0.17,-0.832,1.15,-1.4,-1.02,49.27801035137637,-122.91087128656923,354.48403936715124,0.7549257874488831
2024-07-07 19:39:19.6970,-0.063,-0.185,-0.813,1.13,-1.31,-1.19,49.27801035137637,-122.91087128656923,354.48403936715124,0.7549257874488831
2024-07-07 19:39:19.7070,-0.062,-0.207,-0.793,1.11,-1.17,-1.38,49.27801035137637,-122.91087128656923,354.48403936715124,0.7549257874488831
2024-07-07 19:39:19.7170,-0.058,-0.23,-0.775,1.09,-0.97,-1.56,49.27801035137637,-122.91087128656923,354.48403936715124,0.7549257874488831
2024-07-07 19:39:19.7270,-0.051,-0.255,-0.766,1.05,-0.76,-1.74,49.27801035137637,-122.91087128656923,354.48403936715124,0.7549257874488831
2024-07-07 19:39:19.7370,-0.039,-0.282,-0.765,0.98,-0.53,-1.8,49.27801035137637,-122.91087128656923,354.48403936715124,0.7549257874488831
2024-07-07 19:39:19.7470,-0.026,-0.304,-0.768,0.88,-0.28,-1.81,49.27801035137637,-122.91087128656923,354.48403936715124,0.7549257874488831
2024-07-07 19:39:19.7570,-0.014,-0.318,-0.789,0.76,-0.07,-1.75,49.27801035137637,-122.91087128656923,354.48403936715124,0.7549257874488831
2024-07-07 19:39:19.7670,-0.0,-0.326,-0.815,0.67,0.05,-1.53,49.27801035137637,-122.91087128656923,354.48403936715124,0.7549257874488831
2024-07-07 19:39:19.7770,0.012,-0.325,-0.834,0.54,0.12,-1.28,49.27801035137637,-122.91087128656923,354.48403936715124,0.7549257874488831
2024-07-07 19:39:19.7880,0.019,-0.327,-0.844,0.44,0.11,-1.1,49.27801035137637,-122.91087128656923,354.48403936715124,0.7549257874488831
2024-07-07 19:39:19.7980,0.026,-0.334,-0.854,0.37,0.13,-1.01,49.27801035137637,-122.91087128656923,354.48403936715124,0.7549257874488831
2024-07-07 19:39:19.8080,0.034,-0.347,-0.861,0.31,0.22,-0.91,49.27801035137637,-122.91087128656923,354.48403936715124,0.7549257874488831
2024-07-07 19:39:19.8180,0.041,-0.356,-0.854,0.22,0.35,-0.86,49.27801035137637,-122.91087128656923,354.48403936715124,0.7549257874488831
2024-07-07 19:39:19.8280,0.043,-0.368,-0.844,0.15,0.44,-0.94,49.27801035137637,-122.91087128656923,354.48403936715124,0.7549257874488831
2024-07-07 19:39:19.8380,0.04,-0.379,-0.835,0.13,0.57,-1.04,49.27801035137637,-122.91087128656923,354.48403936715124,0.7549257874488831
2024-07-07 19:39:19.8480,0.036,-0.387,-0.831,0.14,0.69,-1.14,49.27801035137637,-122.91087128656923,354.48403936715124,0.7549257874488831
2024-07-07 19:39:19.8590,0.035,-0.387,-0.827,0.17,0.77,-1.17,49.27801035137637,-122.91087128656923,354.48403936715124,0.7549257874488831
2024-07-07 19:39:19.8680,0.037,-0.387,-0.82,0.17,0.77,-1.22,49.27801035137637,-122.91087128656923,354.48403936715124,0.7549257874488831
2024-07-07 19:39:19.8780,0.039,-0.396,-0.818,0.14,0.8,-1.29,49.27801035137637,-122.91087128656923,354.48403936715124,0.7549257874488831
2024-07-07 19:39:19.8890,0.046,-0.413,-0.825,0.12,0.9,-1.31,49.27801035137637,-122.91087128656923,354.48403936715124,0.7549257874488831
2024-07-07 19:39:19.8980,0.056,-0.429,-0.847,0.05,1.09,-1.22,49.27801035137637,-122.91087128656923,354.48403936715124,0.7549257874488831
2024-07-07 19:39:19.9090,0.064,-0.432,-0.876,-0.05,1.24,-0.99,49.27801035137637,-122.91087128656923,354.48403936715124,0.7549257874488831
2024-07-07 19:39:19.9190,0.068,-0.425,-0.894,-0.14,1.25,-0.72,49.27801035137637,-122.91087128656923,354.48403936715124,0.7549257874488831
2024-07-07 19:39:19.9290,0.063,-0.425,-0.9,-0.17,1.19,-0.55,49.27801035137637,-122.91087128656923,354.48403936715124,0.7549257874488831
2024-07-07 19:39:19.9390,0.057,-0.435,-0.9,-0.11,1.2,-0.51,49.27801035137637,-122.91087128656923,354.48403936715124,0.7549257874488831
2024-07-07 19:39:19.9490,0.055,-0.447,-0.916,-0.06,1.31,-0.5,49.27801035137637,-122.91087128656923,354.48403936715124,0.7549257874488831
2024-07-07 19:39:19.9590,0.057,-0.457,-0.945,-0.04,1.43,-0.33,49.27801035137637,-122.91087128656923,354.48403936715124,0.7549257874488831
2024-07-07 19:39:19.9690,0.057,-0.454,-0.986,-0.06,1.51,-0.03,49.27801035137637,-122.91087128656923,354.48403936715124,0.7549257874488831
2024-07-07 19:39:19.9790,0.055,-0.439,-1.029,-0.05,1.46,0.39,49.27801035137637,-122.91087128656923,354.48403936715124,0.7549257874488831
2024-07-07 19:39:19.9900,0.051,-0.416,-1.072,-0.02,1.29,0.8,49.27801035137637,-122.91087128656923,354.48403936715124,0.7549257874488831
2024-07-07 19:39:20.0000,0.053,-0.391,-1.116,0.01,1.06,1.24,49.27801035137637,-122.91087128656923,354.48403936715124,0.7549257874488831
2024-07-07 19:39:20.0090,0.051,-0.378,-1.138,-0.02,0.8,1.66,49.27801035137637,-122.91087128656923,354.48403936715124,0.7549257874488831
2024-07-07 19:39:20.0190,0.045,-0.385,-1.123,0.0,0.68,1.84,49.27801035137637,-122.91087128656923,354.48403936715124,0.7549257874488831
2024-07-07 19:39:20.0290,0.043,-0.393,-1.105,0.05,0.73,1.67,49.27801035137637,-122.91087128656923,354.48403936715124,0.7549257874488831
2024-07-07 19:39:20.0400,0.054,-0.404,-1.108,0.06,0.78,1.53,49.27801035137637,-122.91087128656923,354.48403936715124,0.7549257874488831
2024-07-07 19:39:20.0500,0.068,-0.42,-1.114,-0.05,0.86,1.58,49.27801035137637,-122.91087128656923,354.48403936715124,0.7549257874488831
2024-07-07 19:39:20.0600,0.083,-0.443,-1.122,-0.17,0.98,1.66,49.27801035137637,-122.91087128656923,354.48403936715124,0.7549257874488831
2024-07-07 19:39:20.0700,0.105,-0.476,-1.133,-0.29,1.18,1.75,49.27801035137637,-122.91087128656923,354.48403936715124,0.7549257874488831
2024-07-07 19:39:20.0800,0.136,-0.51,-1.156,-0.48,1.48,1.89,49.27801035137637,-122.91087128656923,354.48403936715124,0.7549257874488831
2024-07-07 19:39:20.0900,0.168,-0.527,-1.204,-0.75,1.78,2.14,49.27801035137637,-122.91087128656923,354.48403936715124,0.7549257874488831
2024-07-07 19:39:20.1000,0.185,-0.507,-1.292,-1.02,1.91,2.67,49.27801035137637,-122.91087128656923,354.48403936715124,0.7549257874488831
2024-07-07 19:39:20.1100,0.19,-0.439,-1.388,-1.14,1.68,3.55,49.27801035137637,-122.91087128656923,354.48403936715124,0.7549257874488831
2024-07-07 19:39:20.1210,0.195,-0.333,-1.474,-1.17,1.0,4.48,49.27801035137637,-122.91087128656923,354.48403936715124,0.7549257874488831
2024-07-07 19:39:20.1300,0.204,-0.216,-1.526,-1.26,-0.02,5.27,49.27795747554327,-122.91086588214081,354.43384340209826,0.5479580163955688
2024-07-07 19:39:20.1400,0.206,-0.119,-1.529,-1.41,-1.1,5.7,49.27795747554327,-122.91086588214081,354.43384340209826,0.5479580163955688
2024-07-07 19:39:20.1510,0.2,-0.069,-1.458,-1.5,-1.95,5.64,49.27795747554327,-122.91086588214081,354.43384340209826,0.5479580163955688
2024-07-07 19:39:20.1600,0.182,-0.071,-1.318,-1.54,-2.34,4.82,49.27795747554327,-122.91086588214081,354.43384340209826,0.5479580163955688
2024-07-07 19:39:20.1710,0.162,-0.09,-1.154,-1.47,-2.27,3.39,49.27795747554327,-122.91086588214081,354.43384340209826,0.5479580163955688
2024-07-07 19:39:20.1800,0.15,-0.104,-1.005,-1.39,-2.1,1.78,49.27795747554327,-122.91086588214081,354.43384340209826,0.5479580163955688
2024-07-07 19:39:20.1910,0.134,-0.123,-0.891,-1.36,-2.0,0.37,49.27795747554327,-122.91086588214081,354.43384340209826,0.5479580163955688
2024-07-07 19:39:20.2010,0.117,-0.143,-0.805,-1.27,-1.85,-0.7,49.27795747554327,-122.91086588214081,354.43384340209826,0.5479580163955688
2024-07-07 19:39:20.2110,0.103,-0.158,-0.752,-1.16,-1.73,-1.47,49.27795747554327,-122.91086588214081,354.43384340209826,0.5479580163955688
2024-07-07 19:39:20.2210,0.091,-0.162,-0.721,-1.06,-1.7,-1.93,49.27795747554327,-122.91086588214081,354.43384340209826,0.5479580163955688
2024-07-07 19:39:20.2310,0.079,-0.163,-0.701,-0.97,-1.76,-2.18,49.27795747554327,-122.91086588214081,354.43384340209826,0.5479580163955688
2024-07-07 19:39:20.2410,0.066,-0.169,-0.679,-0.86,-1.84,-2.34,49.27795747554327,-122.91086588214081,354.43384340209826,0.5479580163955688
2024-07-07 19:39:20.2510,0.056,-0.18,-0.659,-0.73,-1.87,-2.52,49.27795747554327,-122.91086588214081,354.43384340209826,0.5479580163955688
2024-07-07 19:39:20.2610,0.051,-0.193,-0.637,-0.64,-1.84,-2.68,49.27795747554327,-122.91086588214081,354.43384340209826,0.5479580163955688
2024-07-07 19:39:20.2710,0.051,-0.208,-0.625,-0.59,-1.78,-2.87,49.27795747554327,-122.91086588214081,354.43384340209826,0.5479580163955688
2024-07-07 19:39:20.2810,0.055,-0.227,-0.623,-0.57,-1.69,-2.95,49.27795747554327,-122.91086588214081,354.43384340209826,0.5479580163955688
2024-07-07 19:39:20.2910,0.059,-0.246,-0.643,-0.6,-1.53,-2.93,49.27795747554327,-122.91086588214081,354.43384340209826,0.5479580163955688
2024-07-07 19:39:20.3010,0.063,-0.26,-0.676,-0.62,-1.36,-2.7,49.27795747554327,-122.91086588214081,354.43384340209826,0.5479580163955688
2024-07-07 19:39:20.3120,0.064,-0.271,-0.704,-0.64,-1.24,-2.38,49.27795747554327,-122.91086588214081,354.43384340209826,0.5479580163955688
2024-07-07 19:39:20.3220,0.062,-0.28,-0.728,-0.63,-1.13,-2.11,49.27795747554327,-122.91086588214081,354.43384340209826,0.5479580163955688
2024-07-07 19:39:20.3320,0.059,-0.283,-0.743,-0.6,-1.05,-1.89,49.27795747554327,-122.91086588214081,354.43384340209826,0.5479580163955688
2024-07-07 19:39:20.3420,0.053,-0.283,-0.75,-0.56,-1.01,-1.75,49.27795747554327,-122.91086588214081,354.43384340209826,0.5479580163955688
2024-07-07 19:39:20.3520,0.044,-0.287,-0.76,-0.47,-0.99,-1.7,49.27795747554327,-122.91086588214081,354.43384340209826,0.5479580163955688
2024-07-07 19:39:20.3620,0.04,-0.301,-0.778,-0.39,-0.92,-1.6,49.27795747554327,-122.91086588214081,354.43384340209826,0.5479580163955688
2024-07-07 19:39:20.3720,0.041,-0.317,-0.798,-0.36,-0.75,-1.42,49.27795747554327,-122.91086588214081,354.43384340209826,0.5479580163955688
2024-07-07 19:39:20.3820,0.039,-0.328,-0.806,-0.37,-0.57,-1.24,49.27795747554327,-122.91086588214081,354.43384340209826,0.5479580163955688
2024-07-07 19:39:20.3920,0.031,-0.332,-0.802,-0.36,-0.45,-1.2,49.27795747554327,-122.91086588214081,354.43384340209826,0.5479580163955688
2024-07-07 19:39:20.4020,0.021,-0.334,-0.803,-0.29,-0.38,-1.25,49.27795747554327,-122.91086588214081,354.43384340209826,0.5479580163955688
2024-07-07 19:39:20.4120,0.011,-0.335,-0.803,-0.21,-0.33,-1.25,49.27795747554327,-122.91086588214081,354.43384340209826,0.5479580163955688
2024-07-07 19:39:20.4220,0.001,-0.339,-0.8,-0.13,-0.28,-1.27,49.27795747554327,-122.91086588214081,354.43384340209826,0.5479580163955688
2024-07-07 19:39:20.4320,-0.013,-0.341,-0.798,-0.04,-0.2,-1.31,49.27795747554327,-122.91086588214081,354.43384340209826,0.5479580163955688
2024-07-07 19:39:20.4430,-0.021,-0.339,-0.798,0.08,-0.16,-1.35,49.27795747554327,-122.91086588214081,354.43384340209826,0.5479580163955688
2024-07-07 19:39:20.4530,-0.02,-0.337,-0.803,0.15,-0.15,-1.35,49.27795747554327,-122.91086588214081,354.43384340209826,0.5479580163955688
2024-07-07 19:39:20.4630,-0.016,-0.339,-0.806,0.13,-0.14,-1.31,49.27795747554327,-122.91086588214081,354.43384340209826,0.5479580163955688
2024-07-07 19:39:20.4730,-0.014,-0.346,-0.82,0.1,-0.1,-1.28,49.27795747554327,-122.91086588214081,354.43384340209826,0.5479580163955688
2024-07-07 19:39:20.4830,-0.01,-0.355,-0.83,0.09,0.0,-1.15,49.27795747554327,-122.91086588214081,354.43384340209826,0.5479580163955688
2024-07-07 19:39:20.4930,-0.007,-0.364,-0.836,0.06,0.08,-1.06,49.27795747554327,-122.91086588214081,354.43384340209826,0.5479580163955688
2024-07-07 19:39:20.5030,-0.003,-0.374,-0.843,0.05,0.18,-0.99,49.27795747554327,-122.91086588214081,354.43384340209826,0.5479580163955688
2024-07-07 19:39:20.5130,0.002,-0.389,-0.852,0.01,0.28,-0.93,49.27795747554327,-122.91086588214081,354.43384340209826,0.5479580163955688
2024-07-07 19:39:20.5230,0.007,-0.404,-0.867,-0.02,0.45,-0.84,49.27795747554327,-122.91086588214081,354.43384340209826,0.5479580163955688
2024-07-07 19:39:20.5330,0.008,-0.409,-0.885,-0.07,0.59,-0.69,49.27795747554327,-122.91086588214081,354.43384340209826,0.5479580163955688
2024-07-07 19:39:20.5430,0.005,-0.41,-0.896,-0.08,0.64,-0.52,49.27795747554327,-122.91086588214081,354.43384340209826,0.5479580163955688
2024-07-07 19:39:20.5530,-0.002,-0.413,-0.896,-0.06,0.67,-0.43,49.27795747554327,-122.91086588214081,354.43384340209826,0.5479580163955688
2024-07-07 19:39:20.5640,-0.015,-0.417,-0.893,0.0,0.72,-0.45,49.27795747554327,-122.91086588214081,354.43384340209826,0.5479580163955688
2024-07-07 19:39:20.5730,-0.028,-0.42,-0.895,0.12,0.77,-0.48,49.27795747554327,-122.91086588214081,354.43384340209826,0.5479580163955688
2024-07-07 19:39:20.5840,-0.041,-0.421,-0.898,0.24,0.8,-0.45,49.27795747554327,-122.91086588214081,354.43384340209826,0.5479580163955688
2024-07-07 19:39:20.5940,-0.053,-0.429,-0.9,0.35,0.81,-0.43,49.27795747554327,-122.91086588214081,354.43384340209826,0.5479580163955688
2024-07-07 19:39:20.6040,-0.06,-0.443,-0.907,0.45,0.89,-0.4,49.27795747554327,-122.91086588214081,354.43384340209826,0.5479580163955688
2024-07-07 19:39:20.6140,-0.067,-0.458,-0.919,0.51,1.02,-0.33,49.27795747554327,-122.91086588214081,354.43384340209826,0.5479580163955688
2024-07-07 19:39:20.6240,-0.066,-0.46,-0.935,0.57,1.14,-0.19,49.27795747554327,-122.91086588214081,354.43384340209826,0.5479580163955688
2024-07-07 19:39:20.6340,-0.059,-0.452,-0.952,0.54,1.12,-0.02,49.27795747554327,-122.91086588214081,354.43384340209826,0.5479580163955688
2024-07-07 19:39:20.6440,-0.058,-0.446,-0.964,0.47,1.01,0.15,49.27795747554327,-122.91086588214081,354.43384340209826,0.5479580163955688
2024-07-07 19:39:20.6540,-0.061,-0.45,-0.974,0.46,0.95,0.27,49.27795747554327,-122.91086588214081,354.43384340209826,0.5479580163955688
2024-07-07 19:39:20.6640,-0.064,-0.452,-0.996,0.49,0.97,0.38,49.27795747554327,-122.91086588214081,354.43384340209826,0.5479580163955688
2024-07-07 19:39:20.6740,-0.065,-0.45,-1.025,0.51,0.96,0.62,49.27795747554327,-122.91086588214081,354.43384340209826,0.5479580163955688
2024-07-07 19:39:20.6840,-0.066,-0.446,-1.044,0.5,0.93,0.91,49.27795747554327,-122.91086588214081,354.43384340209826,0.5479580163955688
2024-07-07 19:39:20.6940,-0.067,-0.44,-1.05,0.5,0.88,1.07,49.27795747554327,-122.91086588214081,354.43384340209826,0.5479580163955688
2024-07-07 19:39:20.7050,-0.069,-0.44,-1.046,0.48,0.81,1.13,49.27795747554327,-122.91086588214081,354.43384340209826,0.5479580163955688
2024-07-07 19:39:20.7150,-0.075,-0.444,-1.035,0.49,0.81,1.08,49.27795747554327,-122.91086588214081,354.43384340209826,0.5479580163955688
2024-07-07 19:39:20.7250,-0.086,-0.453,-1.022,0.53,0.85,0.98,49.27795747554327,-122.91086588214081,354.43384340209826,0.5479580163955688
2024-07-07 19:39:20.7350,-0.093,-0.47,-1.0,0.62,0.94,0.84,49.27795747554327,-122.91086588214081,354.43384340209826,0.5479580163955688
2024-07-07 19:39:20.7450,-0.097,-0.486,-0.972,0.67,1.1,0.62,49.27795747554327,-122.91086588214081,354.43384340209826,0.5479580163955688
2024-07-07 19:39:20.7550,-0.097,-0.489,-0.943,0.7,1.24,0.34,49.27795747554327,-122.91086588214081,354.43384340209826,0.5479580163955688
2024-07-07 19:39:20.7650,-0.082,-0.482,-0.927,0.69,1.27,0.06,49.27795747554327,-122.91086588214081,354.43384340209826,0.5479580163955688
2024-07-07 19:39:20.7750,-0.062,-0.468,-0.956,0.56,1.23,-0.08,49.27795747554327,-122.91086588214081,354.43384340209826,0.5479580163955688
2024-07-07 19:39:20.7850,-0.049,-0.442,-1.043,0.42,1.13,0.26,49.27795747554327,-122.91086588214081,354.43384340209826,0.5479580163955688
2024-07-07 19:39:20.7950,-0.033,-0.389,-1.133,0.34,0.91,1.13,49.27795747554327,-122.91086588214081,354.43384340209826,0.5479580163955688
2024-07-07 19:39:20.8050,-0.02,-0.318,-1.205,0.22,0.44,1.96,49.27795747554327,-122.91086588214081,354.43384340209826,0.5479580163955688
2024-07-07 19:39:20.8150,-0.013,-0.244,-1.257,0.14,-0.2,2.63,49.27795747554327,-122.91086588214081,354.43384340209826,0.5479580163955688
2024-07-07 19:39:20.8260,-0.003,-0.171,-1.275,0.09,-0.86,3.08,49.27795747554327,-122.91086588214081,354.43384340209826,0.5479580163955688
2024-07-07 19:39:20.8350,-0.006,-0.12,-1.254,0.0,-1.53,3.2,49.27795747554327,-122.91086588214081,354.43384340209826,0.5479580163955688
2024-07-07 19:39:20.8460,-0.031,-0.102,-1.186,0.05,-1.99,2.94,49.27795747554327,-122.91086588214081,354.43384340209826,0.5479580163955688
2024-07-07 19:39:20.8560,-0.065,-0.114,-1.079,0.31,-2.14,2.21,49.27795747554327,-122.91086588214081,354.43384340209826,0.5479580163955688
2024-07-07 19:39:20.8660,-0.091,-0.139,-0.985,0.63,-2.02,1.17,49.27795747554327,-122.91086588214081,354.43384340209826,0.5479580163955688
2024-07-07 19:39:20.8760,-0.102,-0.157,-0.905,0.87,-1.82,0.28,49.27795747554327,-122.91086588214081,354.43384340209826,0.5479580163955688
2024-07-07 19:39:20.8860,-0.112,-0.179,-0.849,0.99,-1.69,-0.47,49.27795747554327,-122.91086588214081,354.43384340209826,0.5479580163955688
2024-07-07 19:39:20.8960,-0.121,-0.201,-0.813,1.11,-1.52,-0.97,49.27795747554327,-122.91086588214081,354.43384340209826,0.5479580163955688
2024-07-07 19:39:20.9060,-0.122,-0.215,-0.785,1.22,-1.36,-1.29,49.27795747554327,-122.91086588214081,354.43384340209826,0.5479580163955688
2024-07-07 19:39:20.9160,-0.116,-0.223,-0.785,1.27,-1.27,-1.53,49.27795747554327,-122.91086588214081,354.43384340209826,0.5479580163955688
2024-07-07 19:39:20.9260,-0.103,-0.22,-0.807,1.26,-1.24,-1.48,49.27795747554327,-122.91086588214081,354.43384340209826,0.5479580163955688
2024-07-07 19:39:20.9360,-0.092,-0.213,-0.83,1.19,-1.31,-1.24,49.27795747554327,-122.91086588214081,354.43384340209826,0.5479580163955688
2024-07-07 19:39:20.9460,-0.08,-0.206,-0.851,1.13,-1.41,-1.0,49.27795747554327,-122.91086588214081,354.43384340209826,0.5479580163955688
2024-07-07 19:39:20.9560,-0.066,-0.203,-0.87,1.08,-1.49,-0.78,49.27795747554327,-122.91086588214081,354.43384340209826,0.5479580163955688
2024-07-07 19:39:20.9660,-0.049,-0.204,-0.881,0.99,-1.54,-0.6,49.27795747554327,-122.91086588214081,354.43384340209826,0.5479580163955688
2024-07-07 19:39:20.9770,-0.027,-0.208,-0.894,0.88,-1.54,-0.49,49.27795747554327,-122.91086588214081,354.43384340209826,0.5479580163955688
2024-07-07 19:39:20.9870,-0.003,-0.215,-0.915,0.72,-1.52,-0.34,49.27795747554327,-122.91086588214081,354.43384340209826,0.5479580163955688
2024-07-07 19:39:20.9970,0.016,-0.228,-0.934,0.53,-1.43,-0.13,49.27795747554327,-122.91086588214081,354.43384340209826,0.5479580163955688
2024-07-07 19:39:21.0070,0.031,-0.241,-0.948,0.38,-1.29,0.05,49.27795747554327,-122.91086588214081,354.43384340209826,0.5479580163955688
2024-07-07 19:39:21.0170,0.038,-0.245,-0.959,0.26,-1.16,0.18,49.27795747554327,-122.91086588214081,354.43384340209826,0.5479580163955688
2024-07-07 19:39:21.0270,0.041,-0.239,-0.953,0.21,-1.12,0.27,49.27795747554327,-122.91086588214081,354.43384340209826,0.5479580163955688
2024-07-07 19:39:21.0370,0.039,-0.236,-0.923,0.18,-1.15,0.17,49.27795747554327,-122.91086588214081,354.43384340209826,0.5479580163955688
2024-07-07 19:39:21.0470,0.028,-0.24,-0.881,0.2,-1.15,-0.16,49.27795747554327,-122.91086588214081,354.43384340209826,0.5479580163955688
2024-07-07 19:39:21.0570,0.018,-0.248,-0.837,0.3,-1.08,-0.59,49.27795747554327,-122.91086588214081,354.43384340209826,0.5479580163955688
2024-07-07 19:39:21.0680,0.01,-0.264,-0.804,0.37,-0.96,-1.03,49.27795747554327,-122.91086588214081,354.43384340209826,0.5479580163955688
2024-07-07 19:39:21.0780,0.006,-0.28,-0.789,0.43,-0.77,-1.34,49.27795747554327,-122.91086588214081,354.43384340209826,0.5479580163955688
2024-07-07 19:39:21.0870,0.002,-0.288,-0.787,0.45,-0.58,-1.49,49.27795646884903,-122.91087636389156,354.2586378240428,0.5479580163955688
2024-07-07 19:39:21.0970,-0.003,-0.288,-0.79,0.48,-0.48,-1.51,49.27795646884903,-122.91087636389156,354.2586378240428,0.5479580163955688
2024-07-07 19:39:21.1080,-0.008,-0.28,-0.797,0.51,-0.44,-1.49,49.27795646884903,-122.91087636389156,354.2586378240428,0.5479580163955688
2024-07-07 19:39:21.1170,-0.01,-0.269,-0.808,0.55,-0.48,-1.44,49.27795646884903,-122.91087636389156,354.2586378240428,0.5479580163955688
2024-07-07 19:39:21.1280,-0.008,-0.259,-0.819,0.55,-0.54,-1.34,49.27795646884903,-122.91087636389156,354.2586378240428,0.5479580163955688
2024-07-07 19:39:21.1370,-0.001,-0.257,-0.823,0.5,-0.59,-1.26,49.27795646884903,-122.91087636389156,354.2586378240428,0.5479580163955688
2024-07-07 19:39:21.1470,0.003,-0.266,-0.819,0.42,-0.55,-1.24,49.27795646884903,-122.91087636389156,354.2586378240428,0.5479580163955688
2024-07-07 19:39:21.1580,0.01,-0.277,-0.808,0.36,-0.41,-1.3,49.27795646884903,-122.91087636389156,354.2586378240428,0.5479580163955688
2024-07-07 19:39:21.1680,0.012,-0.289,-0.796,0.28,-0.26,-1.43,49.27795646884903,-122.91087636389156,354.2586378240428,0.5479580163955688
2024-07-07 19:39:21.1780,0.01,-0.297,-0.789,0.25,-0.11,-1.56,49.27795646884903,-122.91087636389156,354.2586378240428,0.5479580163955688
2024-07-07 19:39:21.1880,0.006,-0.3,-0.789,0.27,0.01,-1.63,49.27795646884903,-122.91087636389156,354.2586378240428,0.5479580163955688
2024-07-07 19:39:21.1980,0.003,-0.304,-0.799,0.3,0.08,-1.63,49.27795646884903,-122.91087636389156,354.2586378240428,0.5479580163955688
2024-07-07 19:39:21.2080,-0.003,-0.304,-0.819,0.34,0.16,-1.54,49.27795646884903,-122.91087636389156,354.2586378240428,0.5479580163955688
2024-07-07 19:39:21.2180,-0.002,-0.298,-0.843,0.39,0.19,-1.34,49.27795646884903,-122.91087636389156,354.2586378240428,0.5479580163955688
2024-07-07 19:39:21.2280,0.001,-0.293,-0.864,0.38,0.15,-1.11,49.27795646884903,-122.91087636389156,354.2586378240428,0.5479580163955688
2024-07-07 19:39:21.2380,0.005,-0.298,-0.883,0.37,0.14,-0.92,49.27795646884903,-122.91087636389156,354.2586378240428,0.5479580163955688
2024-07-07 19:39:21.2490,0.012,-0.309,-0.901,0.34,0.21,-0.74,49.27795646884903,-122.91087636389156,354.2586378240428,0.5479580163955688
2024-07-07 19:39:21.2580,0.015,-0.324,-0.908,0.29,0.34,-0.57,49.27795646884903,-122.91087636389156,354.2586378240428,0.5479580163955688
2024-07-07 19:39:21.2690,0.02,-0.342,-0.916,0.28,0.5,-0.51,49.27795646884903,-122.91087636389156,354.2586378240428,0.5479580163955688
2024-07-07 19:39:21.2790,0.022,-0.362,-0.93,0.25,0.69,-0.43,49.27795646884903,-122.91087636389156,354.2586378240428,0.5479580163955688
2024-07-07 19:39:21.2890,0.025,-0.379,-0.949,0.26,0.9,-0.28,49.27795646884903,-122.91087636389156,354.2586378240428,0.5479580163955688
2024-07-07 19:39:21.2990,0.033,-0.391,-0.973,0.26,1.07,-0.1,49.27795646884903,-122.91087636389156,354.2586378240428,0.5479580163955688
2024-07-07 19:39:21.3090,0.045,-0.396,-1.005,0.2,1.19,0.15,49.27795646884903,-122.91087636389156,354.2586378240428,0.5479580163955688
2024-07-07 19:39:21.3190,0.057,-0.397,-1.049,0.12,1.25,0.47,49.27795646884903,-122.91087636389156,354.2586378240428,0.5479580163955688
2024-07-07 19:39:21.3290,0.068,-0.392,-1.089,0.03,1.26,0.91,49.27795646884903,-122.91087636389156,354.2586378240428,0.5479580163955688
2024-07-07 19:39:21.3400,0.071,-0.383,-1.124,-0.03,1.21,1.28,49.27795646884903,-122.91087636389156,354.2586378240428,0.5479580163955688
2024-07-07 19:39:21.3490,0.077,-0.372,-1.152,-0.03,1.13,1.63,49.27795646884903,-122.91087636389156,354.2586378240428,0.5479580163955688
2024-07-07 19:39:21.3600,0.084,-0.365,-1.168,-0.06,1.02,1.89,49.27795646884903,-122.91087636389156,354.2586378240428,0.5479580163955688
2024-07-07 19:39:21.3690,0.09,-0.367,-1.176,-0.1,0.96,2.04,49.27795646884903,-122.91087636389156,354.2586378240428,0.5479580163955688
2024-07-07 19:39:21.3790,0.099,-0.368,-1.184,-0.12,0.98,2.12,49.27795646884903,-122.91087636389156,354.2586378240428,0.5479580163955688
2024-07-07 19:39:21.3900,0.107,-0.367,-1.196,-0.18,0.98,2.2,49.27795646884903,-122.91087636389156,354.2586378240428,0.5479580163955688
2024-07-07 19:39:21.4000,0.11,-0.366,-1.212,-0.22,0.96,2.33,49.27795646884903,-122.91087636389156,354.2586378240428,0.5479580163955688
2024-07-07 19:39:21.4100,0.106,-0.363,-1.232,-0.2,0.96,2.5,49.27795646884903,-122.91087636389156,354.2586378240428,0.5479580163955688
2024-07-07 19:39:21.4200,0.108,-0.356,-1.24,-0.15,0.95,2.68,49.27795646884903,-122.91087636389156,354.2586378240428,0.5479580163955688
2024-07-07 19:39:21.4300,0.117,-0.344,-1.241,-0.16,0.92,2.73,49.27795646884903,-122.91087636389156,354.2586378240428,0.5479580163955688
2024-07-07 19:39:21.4410,0.134,-0.329,-1.239,-0.25,0.84,2.73,49.27795646884903,-122.91087636389156,354.2586378240428,0.5479580163955688
2024-07-07 19:39:21.4500,0.148,-0.319,-1.227,-0.41,0.76,2.68,49.27795646884903,-122.91087636389156,354.2586378240428,0.5479580163955688
2024-07-07 19:39:21.4610,0.16,-0.301,-1.213,-0.54,0.72,2.55,49.27795646884903,-122.91087636389156,354.2586378240428,0.5479580163955688
2024-07-07 19:39:21.4710,0.169,-0.271,-1.193,-0.65,0.58,2.39,49.27795646884903,-122.91087636389156,354.2586378240428,0.5479580163955688
2024-07-07 19:39:21.4800,0.17,-0.238,-1.172,-0.73,0.33,2.18,49.27795646884903,-122.91087636389156,354.2586378240428,0.5479580163955688
2024-07-07 19:39:21.4900,0.169,-0.2,-1.163,-0.73,0.04,1.97,49.27795646884903,-122.91087636389156,354.2586378240428,0.5479580163955688
2024-07-07 19:39:21.5010,0.167,-0.164,-1.162,-0.73,-0.31,1.89,49.27795646884903,-122.91087636389156,354.2586378240428,0.5479580163955688
2024-07-07 19:39:21.5100,0.166,-0.139,-1.151,-0.73,-0.63,1.87,49.27795646884903,-122.91087636389156,354.2586378240428,0.5479580163955688
2024-07-07 19:39:21.5200,0.162,-0.122,-1.117,-0.75,-0.85,1.74,49.27795646884903,-122.91087636389156,354.2586378240428,0.5479580163955688
2024-07-07 19:39:21.5300,0.157,-0.11,-1.058,-0.74,-1.0,1.37,49.27795646884903,-122.91087636389156,354.2586378240428,0.5479580163955688
2024-07-07 19:39:21.5410,0.156,-0.108,-0.998,-0.75,-1.12,0.77,49.27795646884903,-122.91087636389156,354.2586378240428,0.5479580163955688
2024-07-07 19:39:21.5510,0.152,-0.115,-0.941,-0.78,-1.14,0.19,49.27795646884903,-122.91087636389156,354.2586378240428,0.5479580163955688
2024-07-07 19:39:21.5610,0.149,-0.125,-0.877,-0.79,-1.09,-0.38,49.27795646884903,-122.91087636389156,354.2586378240428,0.5479580163955688
2024-07-07 19:39:21.5710,0.149,-0.134,-0.826,-0.8,-1.03,-1.0,49.27795646884903,-122.91087636389156,354.2586378240428,0.5479580163955688
2024-07-07 19:39:21.5810,0.15,-0.144,-0.785,-0.82,-0.98,-1.47,49.27795646884903,-122.91087636389156,354.2586378240428,0.5479580163955688
2024-07-07 19:39:21.5910,0.153,-0.153,-0.755,-0.85,-0.94,-1.84,49.27795646884903,-122.91087636389156,354.2586378240428,0.5479580163955688
2024-07-07 19:39:21.6010,0.157,-0.159,-0.731,-0.9,-0.91,-2.12,49.27795646884903,-122.91087636389156,354.2586378240428,0.5479580163955688
2024-07-07 19:39:21.6110,0.156,-0.168,-0.723,-0.93,-0.9,-2.33,49.27795646884903,-122.91087636389156,354.2586378240428,0.5479580163955688
2024-07-07 19:39:21.6210,0.154,-0.171,-0.732,-0.9,-0.86,-2.38,49.27795646884903,-122.91087636389156,354.2586378240428,0.5479580163955688
2024-07-07 19:39:21.6310,0.158,-0.17,-0.755,-0.87,-0.88,-2.26,49.27795646884903,-122.91087636389156,354.2586378240428,0.5479580163955688
2024-07-07 19:39:21.6420,0.16,-0.172,-0.785,-0.9,-0.92,-2.0,49.27795646884903,-122.91087636389156,354.2586378240428,0.5479580163955688
2024-07-07 19:39:21.6520,0.161,-0.174,-0.815,-0.9,-0.92,-1.7,49.27795646884903,-122.91087636389156,354.2586378240428,0.5479580163955688
2024-07-07 19:39:21.6620,0.162,-0.17,-0.845,-0.91,-0.91,-1.4,49.27795646884903,-122.91087636389156,354.2586378240428,0.5479580163955688
2024-07-07 19:39:21.6720,0.16,-0.16,-0.861,-0.92,-0.95,-1.12,49.27795646884903,-122.91087636389156,354.2586378240428,0.5479580163955688
2024-07-07 19:39:21.6820,0.146,-0.15,-0.864,-0.89,-1.05,-0.98,49.27795646884903,-122.91087636389156,354.2586378240428,0.5479580163955688
2024-07-07 19:39:21.6920,0.124,-0.146,-0.858,-0.77,-1.11,-0.98,49.27795646884903,-122.91087636389156,354.2586378240428,0.5479580163955688
2024-07-07 19:39:21.7020,0.103,-0.143,-0.851,-0.58,-1.11,-1.06,49.27795646884903,-122.91087636389156,354.2586378240428,0.5479580163955688
2024-07-07 19:39:21.7120,0.083,-0.14,-0.845,-0.4,-1.09,-1.14,49.27795646884903,-122.91087636389156,354.2586378240428,0.5479580163955688
2024-07-07 19:39:21.7220,0.069,-0.14,-0.843,-0.24,-1.04,-1.21,49.27795646884903,-122.91087636389156,354.2586378240428,0.5479580163955688
2024-07-07 19:39:21.7320,0.068,-0.142,-0.848,-0.14,-0.97,-1.24,49.27795646884903,-122.91087636389156,354.2586378240428,0.5479580163955688
2024-07-07 19:39:21.7430,0.072,-0.151,-0.858,-0.17,-0.88,-1.2,49.27795646884903,-122.91087636389156,354.2586378240428,0.5479580163955688
2024-07-07 19:39:21.7520,0.079,-0.163,-0.86,-0.24,-0.73,-1.13,49.27795646884903,-122.91087636389156,354.2586378240428,0.5479580163955688
2024-07-07 19:39:21.7630,0.084,-0.185,-0.861,-0.33,-0.55,-1.13,49.27795646884903,-122.91087636389156,354.2586378240428,0.5479580163955688
2024-07-07 19:39:21.7730,0.088,-0.206,-0.861,-0.4,-0.27,-1.13,49.27795646884903,-122.91087636389156,354.2586378240428,0.5479580163955688
2024-07-07 19:39:21.7830,0.087,-0.22,-0.861,-0.44,-0.02,-1.14,49.27795646884903,-122.91087636389156,354.2586378240428,0.5479580163955688
2024-07-07 19:39:21.7930,0.083,-0.235,-0.866,-0.43,0.17,-1.15,49.27795646884903,-122.91087636389156,354.2586378240428,0.5479580163955688
2024-07-07 19:39:21.8030,0.081,-0.247,-0.873,-0.4,0.35,-1.11,49.27795646884903,-122.91087636389156,354.2586378240428,0.5479580163955688
2024-07-07 19:39:21.8130,0.082,-0.258,-0.88,-0.4,0.5,-1.04,49.27795646884903,-122.91087636389156,354.2586378240428,0.5479580163955688
2024-07-07 19:39:21.8230,0.079,-0.269,-0.889,-0.41,0.65,-0.98,49.27795646884903,-122.91087636389156,354.2586378240428,0.5479580163955688
2024-07-07 19:39:21.8330,0.069,-0.275,-0.892,-0.37,0.79,-0.9,49.27795646884903,-122.91087636389156,354.2586378240428,0.5479580163955688
2024-07-07 19:39:21.8430,0.055,-0.28,-0.896,-0.28,0.88,-0.88,49.27795646884903,-122.91087636389156,354.2586378240428,0.5479580163955688
2024-07-07 19:39:21.8530,0.045,-0.286,-0.904,-0.14,0.95,-0.83,49.27795646884903,-122.91087636389156,354.2586378240428,0.5479580163955688
2024-07-07 19:39:21.8640,0.036,-0.288,-0.901,-0.06,1.02,-0.78,49.27795646884903,-122.91087636389156,354.2586378240428,0.5479580163955688
2024-07-07 19:39:21.8740,0.02,-0.291,-0.898,0.04,1.06,-0.82,49.27795646884903,-122.91087636389156,354.2586378240428,0.5479580163955688
2024-07-07 19:39:21.8840,0.002,-0.296,-0.893,0.19,1.11,-0.84,49.27795646884903,-122.91087636389156,354.2586378240428,0.5479580163955688
2024-07-07 19:39:21.8940,-0.013,-0.302,-0.893,0.36,1.16,-0.9,49.27795646884903,-122.91087636389156,354.2586378240428,0.5479580163955688
2024-07-07 19:39:21.9040,-0.022,-0.307,-0.89,0.49,1.22,-0.89,49.27795646884903,-122.91087636389156,354.2586378240428,0.5479580163955688
2024-07-07 19:39:21.9140,-0.033,-0.313,-0.887,0.59,1.26,-0.93,49.27795646884903,-122.91087636389156,354.2586378240428,0.5479580163955688
2024-07-07 19:39:21.9240,-0.04,-0.317,-0.904,0.7,1.33,-0.94,49.27795646884903,-122.91087636389156,354.2586378240428,0.5479580163955688
2024-07-07 19:39:21.9340,-0.04,-0.316,-0.921,0.76,1.34,-0.75,49.27795646884903,-122.91087636389156,354.2586378240428,0.5479580163955688
2024-07-07 19:39:21.9440,-0.042,-0.322,-0.931,0.76,1.32,-0.6,49.27795646884903,-122.91087636389156,354.2586378240428,0.5479580163955688
2024-07-07 19:39:21.9540,-0.051,-0.338,-0.938,0.8,1.37,-0.5,49.27795646884903,-122.91087636389156,354.2586378240428,0.5479580163955688
2024-07-07 19:39:21.9660,-0.056,-0.357,-0.952,0.9,1.51,-0.42,49.27795646884903,-122.91087636389156,354.2586378240428,0.5479580163955688
2024-07-07 19:39:21.9750,-0.059,-0.363,-0.973,0.94,1.65,-0.27,49.27795646884903,-122.91087636389156,354.2586378240428,0.5479580163955688
2024-07-07 19:39:21.9840,-0.062,-0.36,-0.999,0.98,1.65,-0.05,49.27795646884903,-122.91087636389156,354.2586378240428,0.5479580163955688
2024-07-07 19:39:21.9940,-0.057,-0.348,-1.025,1.0,1.58,0.22,49.27795646884903,-122.91087636389156,354.2586378240428,0.5479580163955688
2024-07-07 19:39:22.0050,-0.057,-0.337,-1.043,0.95,1.42,0.48,49.27795646884903,-122.91087636389156,354.2586378240428,0.5479580163955688
2024-07-07 19:39:22.0150,-0.059,-0.33,-1.06,0.96,1.28,0.66,49.27795646884903,-122.91087636389156,354.2586378240428,0.5479580163955688
2024-07-07 19:39:22.0250,-0.06,-0.329,-1.078,0.98,1.19,0.82,49.27795646884903,-122.91087636389156,354.2586378240428,0.5479580163955688
2024-07-07 19:39:22.0340,-0.064,-0.333,-1.096,0.99,1.16,1.01,49.27795787663787,-122.910868048154,354.1985627725751,0.5479580163955688
2024-07-07 19:39:22.0450,-0.068,-0.333,-1.12,1.02,1.18,1.19,49.27795787663787,-122.910868048154,354.1985627725751,0.5479580163955688
2024-07-07 19:39:22.0550,-0.066,-0.326,-1.148,1.05,1.16,1.44,49.27795787663787,-122.910868048154,354.1985627725751,0.5479580163955688
2024-07-07 19:39:22.0650,-0.062,-0.318,-1.175,1.02,1.08,1.71,49.27795787663787,-122.910868048154,354.1985627725751,0.5479580163955688
2024-07-07 19:39:22.0750,-0.062,-0.314,-1.203,0.99,1.02,1.98,49.27795787663787,-122.910868048154,354.1985627725751,0.5479580163955688
2024-07-07 19:39:22.0850,-0.062,-0.313,-1.227,0.98,1.01,2.25,49.27795787663787,-122.910868048154,354.1985627725751,0.5479580163955688
2024-07-07 19:39:22.0950,-0.057,-0.304,-1.245,0.98,1.03,2.46,49.27795787663787,-122.910868048154,354.1985627725751,0.5479580163955688
2024-07-07 19:39:22.1050,-0.045,-0.275,-1.264,0.92,0.96,2.63,49.27795787663787,-122.910868048154,354.1985627725751,0.5479580163955688
2024-07-07 19:39:22.1150,-0.025,-0.228,-1.265,0.79,0.69,2.8,49.27795787663787,-122.910868048154,354.1985627725751,0.5479580163955688
2024-07-07 19:39:22.1250,0.001,-0.184,-1.25,0.6,0.26,2.78,49.27795787663787,-122.910868048154,354.1985627725751,0.5479580163955688
2024-07-07 19:39:22.1350,0.03,-0.149,-1.245,0.35,-0.11,2.62,49.27795787663787,-122.910868048154,354.1985627725751,0.5479580163955688
2024-07-07 19:39:22.1460,0.049,-0.11,-1.263,0.1,-0.4,2.58,49.27795787663787,-122.910868048154,354.1985627725751,0.5479580163955688
2024-07-07 19:39:22.1560,0.059,-0.064,-1.292,-0.05,-0.74,2.78,49.27795787663787,-122.910868048154,354.1985627725751,0.5479580163955688
2024-07-07 19:39:22.1660,0.057,-0.011,-1.324,-0.13,-1.16,3.05,49.27795787663787,-122.910868048154,354.1985627725751,0.5479580163955688
2024-07-07 19:39:22.1760,0.045,0.048,-1.343,-0.1,-1.66,3.38,49.27795787663787,-122.910868048154,354.1985627725751,0.5479580163955688
2024-07-07 19:39:22.1860,0.03,0.099,-1.302,-0.01,-2.22,3.49,49.27795787663787,-122.910868048154,354.1985627725751,0.5479580163955688
2024-07-07 19:39:22.1960,0.004,0.126,-1.215,0.11,-2.69,3.02,49.27795787663787,-122.910868048154,354.1985627725751,0.5479580163955688
2024-07-07 19:39:22.2060,-0.017,0.125,-1.096,0.31,-2.94,2.13,49.27795787663787,-122.910868048154,354.1985627725751,0.5479580163955688
2024-07-07 19:39:22.2160,-0.034,0.09,-0.969,0.47,-2.93,0.93,49.27795787663787,-122.910868048154,354.1985627725751,0.5479580163955688
2024-07-07 19:39:22.2260,-0.046,0.035,-0.866,0.6,-2.6,-0.29,49.27795787663787,-122.910868048154,354.1985627725751,0.5479580163955688
2024-07-07 19:39:22.2360,-0.049,-0.015,-0.798,0.7,-2.11,-1.25,49.27795787663787,-122.910868048154,354.1985627725751,0.5479580163955688
2024-07-07 19:39:22.2460,-0.035,-0.05,-0.768,0.73,-1.71,-1.85,49.27795787663787,-122.910868048154,354.1985627725751,0.5479580163955688
2024-07-07 19:39:22.2560,-0.016,-0.069,-0.774,0.62,-1.47,-2.08,49.27795787663787,-122.910868048154,354.1985627725751,0.5479580163955688
2024-07-07 19:39:22.2660,0.003,-0.072,-0.802,0.49,-1.38,-1.97,49.27795787663787,-122.910868048154,354.1985627725751,0.5479580163955688
2024-07-07 19:39:22.2760,0.025,-0.067,-0.836,0.36,-1.43,-1.66,49.27795787663787,-122.910868048154,354.1985627725751,0.5479580163955688
2024-07-07 19:39:22.2870,0.046,-0.064,-0.864,0.21,-1.56,-1.31,49.27795787663787,-122.910868048154,354.1985627725751,0.5479580163955688
2024-07-07 19:39:22.2970,0.061,-0.071,-0.889,0.08,-1.64,-1.03,49.27795787663787,-122.910868048154,354.1985627725751,0.5479580163955688
2024-07-07 19:39:22.3070,0.072,-0.075,-0.912,-0.01,-1.64,-0.77,49.27795787663787,-122.910868048154,354.1985627725751,0.5479580163955688
2024-07-07 19:39:22.3170,0.079,-0.073,-0.926,-0.05,-1.66,-0.52,49.27795787663787,-122.910868048154,354.1985627725751,0.5479580163955688
2024-07-07 19:39:22.3270,0.082,-0.083,-0.919,-0.09,-1.72,-0.4,49.27795787663787,-122.910868048154,354.1985627725751,0.5479580163955688
2024-07-07 19:39:22.3370,0.079,-0.102,-0.912,-0.08,-1.65,-0.47,49.27795787663787,-122.910868048154,354.1985627725751,0.5479580163955688
2024-07-07 19:39:22.3470,0.079,-0.116,-0.904,-0.03,-1.49,-0.52,49.27795787663787,-122.910868048154,354.1985627725751,0.5479580163955688
2024-07-07 19:39:22.3570,0.077,-0.127,-0.887,-0.02,-1.37,-0.6,49.27795787663787,-122.910868048154,354.1985627725751,0.5479580163955688
2024-07-07 19:39:22.3670,0.07,-0.141,-0.871,0.01,-1.26,-0.77,49.27795787663787,-122.910868048154,354.1985627725751,0.5479580163955688
2024-07-07 19:39:22.3770,0.067,-0.158,-0.857,0.07,-1.12,-0.93,49.27795787663787,-122.910868048154,354.1985627725751,0.5479580163955688
2024-07-07 19:39:22.3870,0.068,-0.172,-0.841,0.09,-0.96,-1.07,49.27795787663787,-122.910868048154,354.1985627725751,0.5479580163955688
2024-07-07 19:39:22.3970,0.069,-0.188,-0.824,0.08,-0.81,-1.23,49.27795787663787,-122.910868048154,354.1985627725751,0.5479580163955688
2024-07-07 19:39:22.4080,0.07,-0.203,-0.812,0.06,-0.65,-1.39,49.27795787663787,-122.910868048154,354.1985627725751,0.5479580163955688
2024-07-07 19:39:22.4180,0.073,-0.212,-0.805,0.04,-0.5,-1.51,49.27795787663787,-122.910868048154,354.1985627725751,0.5479580163955688
2024-07-07 19:39:22.4280,0.076,-0.222,-0.805,0.0,-0.41,-1.57,49.27795787663787,-122.910868048154,354.1985627725751,0.5479580163955688
2024-07-07 19:39:22.4380,0.076,-0.228,-0.82,-0.03,-0.3,-1.56,49.27795787663787,-122.910868048154,354.1985627725751,0.5479580163955688
2024-07-07 19:39:22.4480,0.078,-0.226,-0.831,-0.04,-0.26,-1.41,49.27795787663787,-122.910868048154,354.1985627725751,0.5479580163955688
2024-07-07 19:39:22.4580,0.08,-0.227,-0.835,-0.07,-0.27,-1.31,49.27795787663787,-122.910868048154,354.1985627725751,0.5479580163955688
2024-07-07 19:39:22.4680,0.081,-0.233,-0.84,-0.09,-0.26,-1.27,49.27795787663787,-122.910868048154,354.1985627725751,0.5479580163955688
2024-07-07 19:39:22.4780,0.082,-0.243,-0.842,-0.12,-0.19,-1.23,49.27795787663787,-122.910868048154,354.1985627725751,0.5479580163955688
2024-07-07 19:39:22.4880,0.084,-0.253,-0.839,-0.14,-0.09,-1.22,49.27795787663787,-122.910868048154,354.1985627725751,0.5479580163955688
2024-07-07 19:39:22.4980,0.081,-0.264,-0.835,-0.17,0.03,-1.25,49.27795787663787,-122.910868048154,354.1985627725751,0.5479580163955688
2024-07-07 19:39:22.5080,0.073,-0.275,-0.83,-0.15,0.13,-1.29,49.27795787663787,-122.910868048154,354.1985627725751,0.5479580163955688
2024-07-07 19:39:22.5180,0.065,-0.288,-0.822,-0.08,0.24,-1.35,49.27795787663787,-122.910868048154,354.1985627725751,0.5479580163955688
2024-07-07 19:39:22.5280,0.057,-0.294,-0.821,-0.01,0.35,-1.42,49.27795787663787,-122.910868048154,354.1985627725751,0.5479580163955688
2024-07-07 19:39:22.5390,0.051,-0.296,-0.819,0.05,0.4,-1.43,49.27795787663787,-122.910868048154,354.1985627725751,0.5479580163955688
2024-07-07 19:39:22.5490,0.046,-0.306,-0.819,0.09,0.42,-1.44,49.27795787663787,-122.910868048154,354.1985627725751,0.5479580163955688
2024-07-07 19:39:22.5590,0.04,-0.314,-0.826,0.13,0.52,-1.43,49.27795787663787,-122.910868048154,354.1985627725751,0.5479580163955688
2024-07-07 19:39:22.5690,0.037,-0.321,-0.832,0.19,0.58,-1.35,49.27795787663787,-122.910868048154,354.1985627725751,0.5479580163955688
2024-07-07 19:39:22.5790,0.035,-0.335,-0.834,0.21,0.65,-1.31,49.27795787663787,-122.910868048154,354.1985627725751,0.5479580163955688
2024-07-07 19:39:22.5890,0.029,-0.352,-0.847,0.23,0.79,-1.28,49.27795787663787,-122.910868048154,354.1985627725751,0.5479580163955688
2024-07-07 19:39:22.5990,0.025,-0.361,-0.863,0.29,0.94,-1.14,49.27795787663787,-122.910868048154,354.1985627725751,0.5479580163955688
2024-07-07 19:39:22.6100,0.024,-0.361,-0.885,0.33,1.0,-0.98,49.27795787663787,-122.910868048154,354.1985627725751,0.5479580163955688
2024-07-07 19:39:22.6190,0.024,-0.359,-0.909,0.35,0.97,-0.74,49.27795787663787,-122.910868048154,354.1985627725751,0.5479580163955688
2024-07-07 19:39:22.6290,0.025,-0.363,-0.927,0.36,0.94,-0.51,49.27795787663787,-122.910868048154,354.1985627725751,0.5479580163955688
2024-07-07 19:39:22.6390,0.024,-0.372,-0.946,0.37,0.97,-0.33,49.27795787663787,-122.910868048154,354.1985627725751,0.5479580163955688
2024-07-07 19:39:22.6490,0.025,-0.377,-0.968,0.39,1.04,-0.14,49.27795787663787,-122.910868048154,354.1985627725751,0.5479580163955688
2024-07-07 19:39:22.6600,0.029,-0.374,-0.994,0.41,1.08,0.09,49.27795787663787,-122.910868048154,354.1985627725751,0.5479580163955688
2024-07-07 19:39:22.6700,0.034,-0.369,-1.02,0.38,1.04,0.35,49.27795787663787,-122.910868048154,354.1985627725751,0.5479580163955688
2024-07-07 19:39:22.6800,0.039,-0.361,-1.056,0.36,0.98,0.62,49.27795787663787,-122.910868048154,354.1985627725751,0.5479580163955688
2024-07-07 19:39:22.6900,0.045,-0.345,-1.095,0.32,0.9,0.97,49.27795787663787,-122.910868048154,354.1985627725751,0.5479580163955688
2024-07-07 19:39:22.7000,0.051,-0.329,-1.128,0.28,0.75,1.35,49.27795787663787,-122.910868048154,354.1985627725751,0.5479580163955688
2024-07-07 19:39:22.7100,0.059,-0.322,-1.14,0.23,0.61,1.66,49.27795787663787,-122.910868048154,354.1985627725751,0.5479580163955688
2024-07-07 19:39:22.7200,0.07,-0.327,-1.148,0.16,0.57,1.75,49.27795787663787,-122.910868048154,354.1985627725751,0.5479580163955688
2024-07-07 19:39:22.7300,0.081,-0.34,-1.16,0.06,0.64,1.83,49.27795787663787,-122.910868048154,354.1985627725751,0.5479580163955688
2024-07-07 19:39:22.7400,0.09,-0.355,-1.169,-0.03,0.79,1.95,49.27795787663787,-122.910868048154,354.1985627725751,0.5479580163955688
2024-07-07 19:39:22.7500,0.096,-0.357,-1.175,-0.11,0.95,2.03,49.27795787663787,-122.910868048154,354.1985627725751,0.5479580163955688
2024-07-07 19:39:22.7600,0.096,-0.341,-1.167,-0.16,0.96,2.07,49.27795787663787,-122.910868048154,354.1985627725751,0.5479580163955688
2024-07-07 19:39:22.7700,0.093,-0.314,-1.153,-0.15,0.81,1.97,49.27795787663787,-122.910868048154,354.1985627725751,0.5479580163955688
2024-07-07 19:39:22.7800,0.089,-0.286,-1.142,-0.12,0.58,1.83,49.27795787663787,-122.910868048154,354.1985627725751,0.5479580163955688
2024-07-07 19:39:22.7900,0.087,-0.254,-1.137,-0.08,0.35,1.72,49.27795787663787,-122.910868048154,354.1985627725751,0.5479580163955688
2024-07-07 19:39:22.8010,0.091,-0.221,-1.135,-0.05,0.07,1.66,49.27795787663787,-122.910868048154,354.1985627725751,0.5479580163955688
2024-07-07 19:39:22.8110,0.102,-0.196,-1.155,-0.09,-0.19,1.64,49.27795787663787,-122.910868048154,354.1985627725751,0.5479580163955688
2024-07-07 19:39:22.8210,0.125,-0.176,-1.199,-0.2,-0.38,1.86,49.27795787663787,-122.910868048154,354.1985627725751,0.5479580163955688
2024-07-07 19:39:22.8310,0.148,-0.154,-1.243,-0.41,-0.53,2.3,49.27795787663787,-122.910868048154,354.1985627725751,0.5479580163955688
2024-07-07 19:39:22.8410,0.171,-0.126,-1.263,-0.64,-0.72,2.7,49.27795787663787,-122.910868048154,354.1985627725751,0.5479580163955688
2024-07-07 19:39:22.8510,0.195,-0.098,-1.261,-0.88,-0.97,2.86,49.27795787663787,-122.910868048154,354.1985627725751,0.5479580163955688
2024-07-07 19:39:22.8610,0.211,-0.075,-1.231,-1.13,-1.23,2.81,49.27795787663787,-122.910868048154,354.1985627725751,0.5479580163955688
2024-07-07 19:39:22.8710,0.218,-0.059,-1.173,-1.31,-1.45,2.47,49.27795787663787,-122.910868048154,354.1985627725751,0.5479580163955688
2024-07-07 19:39:22.8810,0.221,-0.058,-1.1,-1.4,-1.61,1.88,49.27795787663787,-122.910868048154,354.1985627725751,0.5479580163955688
2024-07-07 19:39:22.8910,0.226,-0.067,-1.032,-1.47,-1.63,1.16,49.27795787663787,-122.910868048154,354.1985627725751,0.5479580163955688
2024-07-07 19:39:22.9010,0.238,-0.078,-0.975,-1.54,-1.57,0.52,49.27795787663787,-122.910868048154,354.1985627725751,0.5479580163955688
2024-07-07 19:39:22.9120,0.254,-0.092,-0.92,-1.69,-1.51,-0.03,49.27795787663787,-122.910868048154,354.1985627725751,0.5479580163955688
2024-07-07 19:39:22.9220,0.268,-0.109,-0.873,-1.85,-1.42,-0.55,49.27795787663787,-122.910868048154,354.1985627725751,0.5479580163955688
2024-07-07 19:39:22.9320,0.282,-0.127,-0.837,-1.99,-1.32,-0.98,49.27795787663787,-122.910868048154,354.1985627725751,0.5479580163955688
2024-07-07 19:39:22.9420,0.294,-0.146,-0.803,-2.13,-1.21,-1.31,49.27795787663787,-122.910868048154,354.1985627725751,0.5479580163955688
2024-07-07 19:39:22.9520,0.297,-0.163,-0.774,-2.23,-1.09,-1.62,49.27795787663787,-122.910868048154,354.1985627725751,0.5479580163955688
2024-07-07 19:39:22.9620,0.293,-0.177,-0.758,-2.24,-0.99,-1.87,49.27795787663787,-122.910868048154,354.1985627725751,0.5479580163955688
2024-07-07 19:39:22.9720,0.287,-0.184,-0.755,-2.2,-0.92,-1.99,49.27795787663787,-122.910868048154,354.1985627725751,0.5479580163955688
2024-07-07 19:39:22.9840,0.276,-0.184,-0.754,-2.12,-0.92,-2.0,49.27795277962113,-122.91085776815835,354.15179137410934,0.5698509812355042
2024-07-07 19:39:22.9920,0.258,-0.188,-0.75,-2.01,-0.95,-2.01,49.27795277962113,-122.91085776815835,354.15179137410934,0.5698509812355042
2024-07-07 19:39:23.0020,0.237,-0.19,-0.748,-1.85,-0.94,-2.03,49.27795277962113,-122.91085776815835,354.15179137410934,0.5698509812355042
2024-07-07 19:39:23.0120,0.209,-0.196,-0.741,-1.65,-0.93,-2.05,49.27795277962113,-122.91085776815835,354.15179137410934,0.5698509812355042
2024-07-07 19:39:23.0220,0.184,-0.209,-0.734,-1.41,-0.86,-2.13,49.27795277962113,-122.91085776815835,354.15179137410934,0.5698509812355042
2024-07-07 19:39:23.0320,0.16,-0.216,-0.734,-1.2,-0.71,-2.21,49.27795277962113,-122.91085776815835,354.15179137410934,0.5698509812355042
2024-07-07 19:39:23.0420,0.132,-0.217,-0.732,-1.01,-0.62,-2.2,49.27795277962113,-122.91085776815835,354.15179137410934,0.5698509812355042
2024-07-07 19:39:23.0530,0.098,-0.211,-0.723,-0.78,-0.57,-2.26,49.27795277962113,-122.91085776815835,354.15179137410934,0.5698509812355042
2024-07-07 19:39:23.0630,0.069,-0.201,-0.727,-0.48,-0.58,-2.34,49.27795277962113,-122.91085776815835,354.15179137410934,0.5698509812355042
2024-07-07 19:39:23.0730,0.052,-0.19,-0.738,-0.25,-0.66,-2.31,49.27795277962113,-122.91085776815835,354.15179137410934,0.5698509812355042
2024-07-07 19:39:23.0830,0.037,-0.193,-0.745,-0.13,-0.71,-2.21,49.27795277962113,-122.91085776815835,354.15179137410934,0.5698509812355042
2024-07-07 19:39:23.0930,0.024,-0.208,-0.742,-0.01,-0.63,-2.17,49.27795277962113,-122.91085776815835,354.15179137410934,0.5698509812355042
2024-07-07 19:39:23.1030,0.015,-0.228,-0.742,0.1,-0.46,-2.2,49.27795277962113,-122.91085776815835,354.15179137410934,0.5698509812355042
2024-07-07 19:39:23.1130,0.015,-0.254,-0.745,0.17,-0.24,-2.21,49.27795277962113,-122.91085776815835,354.15179137410934,0.5698509812355042
2024-07-07 19:39:23.1230,0.014,-0.282,-0.76,0.17,0.04,-2.17,49.27795277962113,-122.91085776815835,354.15179137410934,0.5698509812355042
2024-07-07 19:39:23.1330,0.012,-0.301,-0.782,0.18,0.33,-2.01,49.27795277962113,-122.91085776815835,354.15179137410934,0.5698509812355042
2024-07-07 19:39:23.1430,0.015,-0.311,-0.8,0.19,0.53,-1.81,49.27795277962113,-122.91085776815835,354.15179137410934,0.5698509812355042
2024-07-07 19:39:23.1530,0.014,-0.319,-0.818,0.16,0.65,-1.64,49.27795277962113,-122.91085776815835,354.15179137410934,0.5698509812355042
2024-07-07 19:39:23.1630,0.01,-0.325,-0.842,0.17,0.76,-1.47,49.27795277962113,-122.91085776815835,354.15179137410934,0.5698509812355042
2024-07-07 19:39:23.1730,0.011,-0.324,-0.868,0.2,0.84,-1.23,49.27795277962113,-122.91085776815835,354.15179137410934,0.5698509812355042
2024-07-07 19:39:23.1830,0.008,-0.32,-0.884,0.18,0.85,-0.99,49.27795277962113,-122.91085776815835,354.15179137410934,0.5698509812355042
2024-07-07 19:39:23.1940,-0.001,-0.322,-0.892,0.22,0.84,-0.85,49.27795277962113,-122.91085776815835,354.15179137410934,0.5698509812355042
2024-07-07 19:39:23.2040,-0.01,-0.323,-0.901,0.3,0.89,-0.79,49.27795277962113,-122.91085776815835,354.15179137410934,0.5698509812355042
2024-07-07 19:39:23.2140,-0.017,-0.325,-0.908,0.36,0.92,-0.7,49.27795277962113,-122.91085776815835,354.15179137410934,0.5698509812355042
2024-07-07 19:39:23.2240,-0.025,-0.326,-0.907,0.42,0.96,-0.65,49.27795277962113,-122.91085776815835,354.15179137410934,0.5698509812355042
2024-07-07 19:39:23.2340,-0.032,-0.33,-0.905,0.49,0.99,-0.66,49.27795277962113,-122.91085776815835,354.15179137410934,0.5698509812355042
2024-07-07 19:39:23.2440,-0.034,-0.343,-0.906,0.53,1.05,-0.68,49.27795277962113,-122.91085776815835,354.15179137410934,0.5698509812355042
2024-07-07 19:39:23.2540,-0.034,-0.358,-0.912,0.53,1.2,-0.67,49.27795277962113,-122.91085776815835,354.15179137410934,0.5698509812355042
2024-07-07 19:39:23.2640,-0.038,-0.369,-0.92,0.53,1.36,-0.62,49.27795277962113,-122.91085776815835,354.15179137410934,0.5698509812355042
2024-07-07 19:39:23.2740,-0.041,-0.372,-0.935,0.55,1.46,-0.53,49.27795277962113,-122.91085776815835,354.15179137410934,0.5698509812355042
2024-07-07 19:39:23.2840,-0.045,-0.367,-0.946,0.56,1.48,-0.39,49.27795277962113,-122.91085776815835,354.15179137410934,0.5698509812355042
2024-07-07 19:39:23.2940,-0.053,-0.364,-0.953,0.59,1.43,-0.28,49.27795277962113,-122.91085776815835,354.15179137410934,0.5698509812355042
2024-07-07 19:39:23.3040,-0.061,-0.363,-0.961,0.66,1.41,-0.22,49.27795277962113,-122.91085776815835,354.15179137410934,0.5698509812355042
2024-07-07 19:39:23.3140,-0.066,-0.361,-0.974,0.72,1.39,-0.14,49.27795277962113,-122.91085776815835,354.15179137410934,0.5698509812355042
2024-07-07 19:39:23.3250,-0.066,-0.362,-0.99,0.75,1.37,0.01,49.27795277962113,-122.91085776815835,354.15179137410934,0.5698509812355042
2024-07-07 19:39:23.3350,-0.061,-0.37,-1.005,0.74,1.38,0.15,49.27795277962113,-122.91085776815835,354.15179137410934,0.5698509812355042
2024-07-07 19:39:23.3450,-0.05,-0.384,-1.029,0.68,1.46,0.32,49.27795277962113,-122.91085776815835,354.15179137410934,0.5698509812355042
2024-07-07 19:39:23.3550,-0.038,-0.396,-1.044,0.56,1.59,0.56,49.27795277962113,-122.91085776815835,354.15179137410934,0.5698509812355042
2024-07-07 19:39:23.3650,-0.033,-0.405,-1.047,0.46,1.69,0.68,49.27795277962113,-122.91085776815835,354.15179137410934,0.5698509812355042
2024-07-07 19:39:23.3750,-0.028,-0.406,-1.052,0.42,1.76,0.71,49.27795277962113,-122.91085776815835,354.15179137410934,0.5698509812355042
2024-07-07 19:39:23.3850,-0.024,-0.408,-1.076,0.39,1.76,0.77,49.27795277962113,-122.91085776815835,354.15179137410934,0.5698509812355042
2024-07-07 19:39:23.3950,-0.02,-0.418,-1.134,0.38,1.8,1.04,49.27795277962113,-122.91085776815835,354.15179137410934,0.5698509812355042
2024-07-07 19:39:23.4050,-0.022,-0.413,-1.214,0.37,1.93,1.65,49.27795277962113,-122.91085776815835,354.15179137410934,0.5698509812355042
2024-07-07 19:39:23.4150,-0.026,-0.374,-1.306,0.44,1.9,2.43,49.27795277962113,-122.91085776815835,354.15179137410934,0.5698509812355042
2024-07-07 19:39:23.4250,-0.022,-0.301,-1.405,0.49,1.53,3.34,49.27795277962113,-122.91085776815835,354.15179137410934,0.5698509812355042
2024-07-07 19:39:23.4360,-0.005,-0.208,-1.474,0.45,0.86,4.28,49.27795277962113,-122.91085776815835,354.15179137410934,0.5698509812355042
2024-07-07 19:39:23.4460,0.021,-0.12,-1.488,0.26,0.03,4.88,49.27795277962113,-122.91085776815835,354.15179137410934,0.5698509812355042
2024-07-07 19:39:23.4560,0.043,-0.064,-1.46,-0.02,-0.72,4.94,49.27795277962113,-122.91085776815835,354.15179137410934,0.5698509812355042
2024-07-07 19:39:23.4660,0.045,-0.04,-1.39,-0.24,-1.15,4.6,49.27795277962113,-122.91085776815835,354.15179137410934,0.5698509812355042
2024-07-07 19:39:23.4760,0.025,-0.026,-1.316,-0.26,-1.29,3.87,49.27795277962113,-122.91085776815835,354.15179137410934,0.5698509812355042
2024-07-07 19:39:23.4860,0.0,0.01,-1.281,-0.05,-1.4,3.16,49.27795277962113,-122.91085776815835,354.15179137410934,0.5698509812355042
2024-07-07 19:39:23.4960,-0.021,0.063,-1.261,0.19,-1.77,2.86,49.27795277962113,-122.91085776815835,354.15179137410934,0.5698509812355042
2024-07-07 19:39:23.5060,-0.046,0.102,-1.241,0.4,-2.29,2.67,49.27795277962113,-122.91085776815835,354.15179137410934,0.5698509812355042
2024-07-07 19:39:23.5160,-0.064,0.121,-1.192,0.65,-2.68,2.46,49.27795277962113,-122.91085776815835,354.15179137410934,0.5698509812355042
2024-07-07 19:39:23.5260,-0.077,0.112,-1.115,0.81,-2.89,1.94,49.27795277962113,-122.91085776815835,354.15179137410934,0.5698509812355042
2024-07-07 19:39:23.5360,-0.089,0.081,-1.034,0.96,-2.83,1.18,49.27795277962113,-122.91085776815835,354.15179137410934,0.5698509812355042
2024-07-07 19:39:23.5460,-0.091,0.038,-0.967,1.09,-2.58,0.41,49.27795277962113,-122.91085776815835,354.15179137410934,0.5698509812355042
2024-07-07 19:39:23.5560,-0.083,-0.001,-0.922,1.14,-2.23,-0.2,49.27795277962113,-122.91085776815835,354.15179137410934,0.5698509812355042
2024-07-07 19:39:23.5660,-0.071,-0.03,-0.909,1.11,-1.93,-0.6,49.27795277962113,-122.91085776815835,354.15179137410934,0.5698509812355042
2024-07-07 19:39:23.5760,-0.054,-0.048,-0.917,1.05,-1.74,-0.66,49.27795277962113,-122.91085776815835,354.15179137410934,0.5698509812355042
2024-07-07 19:39:23.5860,-0.035,-0.056,-0.925,0.94,-1.65,-0.57,49.27795277962113,-122.91085776815835,354.15179137410934,0.5698509812355042
2024-07-07 19:39:23.5970,-0.023,-0.059,-0.929,0.83,-1.65,-0.47,49.27795277962113,-122.91085776815835,354.15179137410934,0.5698509812355042
2024-07-07 19:39:23.6070,-0.011,-0.059,-0.939,0.78,-1.69,-0.41,49.27795277962113,-122.91085776815835,354.15179137410934,0.5698509812355042
2024-07-07 19:39:23.6170,0.007,-0.055,-0.949,0.71,-1.76,-0.29,49.27795277962113,-122.91085776815835,354.15179137410934,0.5698509812355042
2024-07-07 19:39:23.6270,0.016,-0.049,-0.951,0.58,-1.87,-0.18,49.27795277962113,-122.91085776815835,354.15179137410934,0.5698509812355042
2024-07-07 19:39:23.6370,0.017,-0.05,-0.935,0.52,-1.96,-0.17,49.27795277962113,-122.91085776815835,354.15179137410934,0.5698509812355042
2024-07-07 19:39:23.6470,0.014,-0.055,-0.909,0.55,-1.98,-0.33,49.27795277962113,-122.91085776815835,354.15179137410934,0.5698509812355042
2024-07-07 19:39:23.6570,0.015,-0.064,-0.88,0.59,-1.95,-0.58,49.27795277962113,-122.91085776815835,354.15179137410934,0.5698509812355042
2024-07-07 19:39:23.6680,0.016,-0.082,-0.857,0.58,-1.87,-0.86,49.27795277962113,-122.91085776815835,354.15179137410934,0.5698509812355042
2024-07-07 19:39:23.6770,0.02,-0.097,-0.841,0.56,-1.72,-1.07,49.27795277962113,-122.91085776815835,354.15179137410934,0.5698509812355042
2024-07-07 19:39:23.6870,0.025,-0.111,-0.821,0.53,-1.59,-1.23,49.27795277962113,-122.91085776815835,354.15179137410934,0.5698509812355042
2024-07-07 19:39:23.6970,0.031,-0.131,-0.806,0.48,-1.46,-1.41,49.27795277962113,-122.91085776815835,354.15179137410934,0.5698509812355042
2024-07-07 19:39:23.7070,0.035,-0.151,-0.793,0.42,-1.28,-1.55,49.27795277962113,-122.91085776815835,354.15179137410934,0.5698509812355042
2024-07-07 19:39:23.7180,0.039,-0.169,-0.78,0.38,-1.12,-1.67,49.27795277962113,-122.91085776815835,354.15179137410934,0.5698509812355042
2024-07-07 19:39:23.7280,0.04,-0.185,-0.76,0.33,-0.97,-1.79,49.27795277962113,-122.91085776815835,354.15179137410934,0.5698509812355042
2024-07-07 19:39:23.7380,0.04,-0.21,-0.742,0.32,-0.83,-1.99,49.27795277962113,-122.91085776815835,354.15179137410934,0.5698509812355042
2024-07-07 19:39:23.7480,0.042,-0.232,-0.735,0.32,-0.61,-2.15,49.27795277962113,-122.91085776815835,354.15179137410934,0.5698509812355042
2024-07-07 19:39:23.7580,0.046,-0.25,-0.733,0.29,-0.42,-2.2,49.27795277962113,-122.91085776815835,354.15179137410934,0.5698509812355042
2024-07-07 19:39:23.7680,0.049,-0.265,-0.741,0.24,-0.26,-2.21,49.27795277962113,-122.91085776815835,354.15179137410934,0.5698509812355042
2024-07-07 19:39:23.7780,0.045,-0.277,-0.756,0.21,-0.12,-2.12,49.27795277962113,-122.91085776815835,354.15179137410934,0.5698509812355042
2024-07-07 19:39:23.7880,0.043,-0.283,-0.769,0.24,-0.01,-1.96,49.27795277962113,-122.91085776815835,354.15179137410934,0.5698509812355042
2024-07-07 19:39:23.7980,0.039,-0.29,-0.782,0.24,0.05,-1.85,49.27795277962113,-122.91085776815835,354.15179137410934,0.5698509812355042
2024-07-07 19:39:23.8080,0.038,-0.29,-0.795,0.27,0.11,-1.72,49.27795277962113,-122.91085776815835,354.15179137410934,0.5698509812355042
2024-07-07 19:39:23.8180,0.036,-0.289,-0.795,0.25,0.1,-1.6,49.27795277962113,-122.91085776815835,354.15179137410934,0.5698509812355042
2024-07-07 19:39:23.8280,0.034,-0.297,-0.789,0.25,0.1,-1.61,49.27795277962113,-122.91085776815835,354.15179137410934,0.5698509812355042
2024-07-07 19:39:23.8380,0.036,-0.319,-0.792,0.25,0.19,-1.67,49.27795277962113,-122.91085776815835,354.15179137410934,0.5698509812355042
2024-07-07 19:39:23.8490,0.039,-0.34,-0.803,0.21,0.4,-1.62,49.27795277962113,-122.91085776815835,354.15179137410934,0.5698509812355042
2024-07-07 19:39:23.8590,0.041,-0.354,-0.814,0.16,0.6,-1.51,49.27795277962113,-122.91085776815835,354.15179137410934,0.5698509812355042
2024-07-07 19:39:23.8690,0.039,-0.362,-0.828,0.13,0.71,-1.4,49.27795277962113,-122.91085776815835,354.15179137410934,0.5698509812355042
2024-07-07 19:39:23.8790,0.039,-0.367,-0.835,0.14,0.77,-1.26,49.27795277962113,-122.91085776815835,354.15179137410934,0.5698509812355042
2024-07-07 19:39:23.8890,0.032,-0.375,-0.838,0.14,0.79,-1.2,49.27795277962113,-122.91085776815835,354.15179137410934,0.5698509812355042
2024-07-07 19:39:23.8990,0.023,-0.386,-0.843,0.22,0.86,-1.16,49.27795277962113,-122.91085776815835,354.15179137410934,0.5698509812355042
2024-07-07 19:39:23.9090,0.022,-0.395,-0.865,0.31,0.94,-1.09,49.27795277962113,-122.91085776815835,354.15179137410934,0.5698509812355042
2024-07-07 19:39:23.9200,0.031,-0.4,-0.896,0.31,1.0,-0.85,49.27795277962113,-122.91085776815835,354.15179137410934,0.5698509812355042
2024-07-07 19:39:23.9290,0.04,-0.407,-0.936,0.23,1.04,-0.53,49.27795277962113,-122.91085776815835,354.15179137410934,0.5698509812355042
2024-07-07 19:39:23.9390,0.05,-0.404,-0.986,0.16,1.09,-0.11,49.27795241850954,-122.91086467290026,354.12569127357415,0.5847844481468201
2024-07-07 19:39:23.9490,0.058,-0.388,-1.033,0.09,1.02,0.38,49.27795241850954,-122.91086467290026,354.12569127357415,0.5847844481468201
2024-07-07 19:39:23.9590,0.064,-0.372,-1.06,0.02,0.84,0.83,49.27795241850954,-122.91086467290026,354.12569127357415,0.5847844481468201
2024-07-07 19:39:23.9690,0.063,-0.366,-1.068,-0.02,0.68,1.08,49.27795241850954,-122.91086467290026,354.12569127357415,0.5847844481468201
2024-07-07 19:39:23.9800,0.064,-0.363,-1.069,0.0,0.62,1.14,49.27795241850954,-122.91086467290026,354.12569127357415,0.5847844481468201
2024-07-07 19:39:23.9900,0.07,-0.349,-1.081,0.01,0.56,1.17,49.27795241850954,-122.91086467290026,354.12569127357415,0.5847844481468201
2024-07-07 19:39:24.0000,0.081,-0.345,-1.09,-0.04,0.41,1.29,49.27795241850954,-122.91086467290026,354.12569127357415,0.5847844481468201
2024-07-07 19:39:24.0100,0.09,-0.362,-1.103,-0.12,0.39,1.39,49.27795241850954,-122.91086467290026,354.12569127357415,0.5847844481468201
2024-07-07 19:39:24.0200,0.107,-0.389,-1.128,-0.16,0.56,1.53,49.27795241850954,-122.91086467290026,354.12569127357415,0.5847844481468201
2024-07-07 19:39:24.0300,0.138,-0.414,-1.166,-0.3,0.82,1.8,49.27795241850954,-122.91086467290026,354.12569127357415,0.5847844481468201
2024-07-07 19:39:24.0400,0.17,-0.442,-1.208,-0.57,1.06,2.19,49.27795241850954,-122.91086467290026,354.12569127357415,0.5847844481468201
2024-07-07 19:39:24.0500,0.195,-0.468,-1.242,-0.84,1.33,2.61,49.27795241850954,-122.91086467290026,354.12569127357415,0.5847844481468201
2024-07-07 19:39:24.0600,0.212,-0.481,-1.258,-1.04,1.57,2.93,49.27795241850954,-122.91086467290026,354.12569127357415,0.5847844481468201
2024-07-07 19:39:24.0700,0.219,-0.47,-1.264,-1.17,1.69,3.06,49.27795241850954,-122.91086467290026,354.12569127357415,0.5847844481468201
2024-07-07 19:39:24.0800,0.22,-0.436,-1.281,-1.2,1.58,3.11,49.27795241850954,-122.91086467290026,354.12569127357415,0.5847844481468201
2024-07-07 19:39:24.0910,0.218,-0.386,-1.312,-1.19,1.26,3.3,49.27795241850954,-122.91086467290026,354.12569127357415,0.5847844481468201
2024-07-07 19:39:24.1010,0.211,-0.328,-1.336,-1.18,0.79,3.58,49.27795241850954,-122.91086467290026,354.12569127357415,0.5847844481468201
2024-07-07 19:39:24.1110,0.202,-0.268,-1.353,-1.12,0.26,3.79,49.27795241850954,-122.91086467290026,354.12569127357415,0.5847844481468201
2024-07-07 19:39:24.1210,0.198,-0.209,-1.341,-1.09,-0.3,3.93,49.27795241850954,-122.91086467290026,354.12569127357415,0.5847844481468201
2024-07-07 19:39:24.1310,0.191,-0.163,-1.278,-1.11,-0.84,3.74,49.27795241850954,-122.91086467290026,354.12569127357415,0.5847844481468201
2024-07-07 19:39:24.1400,0.178,-0.143,-1.175,-1.12,-1.24,3.05,49.27795241850954,-122.91086467290026,354.12569127357415,0.5847844481468201
2024-07-07 19:39:24.1510,0.161,-0.142,-1.059,-1.06,-1.41,2.0,49.27795241850954,-122.91086467290026,354.12569127357415,0.5847844481468201
2024-07-07 19:39:24.1610,0.149,-0.145,-0.953,-0.99,-1.42,0.86,49.27795241850954,-122.91086467290026,354.12569127357415,0.5847844481468201
2024-07-07 19:39:24.1710,0.144,-0.145,-0.863,-0.94,-1.41,-0.15,49.27795241850954,-122.91086467290026,354.12569127357415,0.5847844481468201
2024-07-07 19:39:24.1810,0.141,-0.15,-0.794,-0.96,-1.43,-1.01,49.27795241850954,-122.91086467290026,354.12569127357415,0.5847844481468201
2024-07-07 19:39:24.1910,0.139,-0.157,-0.748,-0.97,-1.42,-1.65,49.27795241850954,-122.91086467290026,354.12569127357415,0.5847844481468201
2024-07-07 19:39:24.2010,0.144,-0.162,-0.726,-0.99,-1.4,-2.05,49.27795241850954,-122.91086467290026,354.12569127357415,0.5847844481468201
2024-07-07 19:39:24.2110,0.151,-0.158,-0.717,-1.05,-1.41,-2.23,49.27795241850954,-122.91086467290026,354.12569127357415,0.5847844481468201
2024-07-07 19:39:24.2210,0.158,-0.154,-0.708,-1.13,-1.49,-2.31,49.27795241850954,-122.91086467290026,354.12569127357415,0.5847844481468201
2024-07-07 19:39:24.2310,0.159,-0.155,-0.707,-1.19,-1.57,-2.37,49.27795241850954,-122.91086467290026,354.12569127357415,0.5847844481468201
2024-07-07 19:39:24.2410,0.152,-0.16,-0.714,-1.18,-1.58,-2.37,49.27795241850954,-122.91086467290026,354.12569127357415,0.5847844481468201
2024-07-07 19:39:24.2520,0.138,-0.159,-0.727,-1.11,-1.55,-2.29,49.27795241850954,-122.91086467290026,354.12569127357415,0.5847844481468201
2024-07-07 19:39:24.2620,0.126,-0.153,-0.746,-0.97,-1.58,-2.15,49.27795241850954,-122.91086467290026,354.12569127357415,0.5847844481468201
2024-07-07 19:39:24.2720,0.116,-0.15,-0.752,-0.87,-1.62,-1.97,49.27795241850954,-122.91086467290026,354.12569127357415,0.5847844481468201
2024-07-07 19:39:24.2820,0.101,-0.158,-0.75,-0.79,-1.62,-1.92,49.27795241850954,-122.91086467290026,354.12569127357415,0.5847844481468201
2024-07-07 19:39:24.2920,0.085,-0.172,-0.739,-0.66,-1.5,-1.97,49.27795241850954,-122.91086467290026,354.12569127357415,0.5847844481468201
2024-07-07 19:39:24.3020,0.066,-0.185,-0.738,-0.52,-1.32,-2.09,49.27795241850954,-122.91086467290026,354.12569127357415,0.5847844481468201
2024-07-07 19:39:24.3120,0.052,-0.189,-0.748,-0.36,-1.16,-2.09,49.27795241850954,-122.91086467290026,354.12569127357415,0.5847844481468201
2024-07-07 19:39:24.3220,0.038,-0.195,-0.755,-0.25,-1.09,-2.01,49.27795241850954,-122.91086467290026,354.12569127357415,0.5847844481468201
2024-07-07 19:39:24.3320,0.02,-0.207,-0.765,-0.13,-0.97,-1.96,49.27795241850954,-122.91086467290026,354.12569127357415,0.5847844481468201
2024-07-07 19:39:24.3420,0.001,-0.217,-0.771,0.03,-0.81,-1.88,49.27795241850954,-122.91086467290026,354.12569127357415,0.5847844481468201
2024-07-07 19:39:24.3520,-0.017,-0.218,-0.779,0.19,-0.67,-1.83,49.27795241850954,-122.91086467290026,354.12569127357415,0.5847844481468201
2024-07-07 19:39:24.3620,-0.029,-0.215,-0.785,0.35,-0.63,-1.76,49.27795241850954,-122.91086467290026,354.12569127357415,0.5847844481468201
2024-07-07 19:39:24.3720,-0.035,-0.223,-0.786,0.44,-0.62,-1.73,49.27795241850954,-122.91086467290026,354.12569127357415,0.5847844481468201
2024-07-07 19:39:24.3830,-0.036,-0.246,-0.798,0.49,-0.49,-1.71,49.27795241850954,-122.91086467290026,354.12569127357415,0.5847844481468201
2024-07-07 19:39:24.3930,-0.035,-0.267,-0.811,0.49,-0.23,-1.59,49.27795241850954,-122.91086467290026,354.12569127357415,0.5847844481468201
2024-07-07 19:39:24.4030,-0.03,-0.284,-0.822,0.47,-0.01,-1.48,49.27795241850954,-122.91086467290026,354.12569127357415,0.5847844481468201
2024-07-07 19:39:24.4130,-0.025,-0.299,-0.839,0.43,0.18,-1.37,49.27795241850954,-122.91086467290026,354.12569127357415,0.5847844481468201
2024-07-07 19:39:24.4230,-0.02,-0.311,-0.851,0.38,0.33,-1.21,49.27795241850954,-122.91086467290026,354.12569127357415,0.5847844481468201
2024-07-07 19:39:24.4330,-0.019,-0.324,-0.865,0.32,0.48,-1.1,49.27795241850954,-122.91086467290026,354.12569127357415,0.5847844481468201
2024-07-07 19:39:24.4430,-0.018,-0.331,-0.875,0.31,0.62,-0.97,49.27795241850954,-122.91086467290026,354.12569127357415,0.5847844481468201
2024-07-07 19:39:24.4530,-0.019,-0.338,-0.884,0.29,0.7,-0.89,49.27795241850954,-122.91086467290026,354.12569127357415,0.5847844481468201
2024-07-07 19:39:24.4630,-0.022,-0.346,-0.898,0.29,0.8,-0.79,49.27795241850954,-122.91086467290026,354.12569127357415,0.5847844481468201
2024-07-07 19:39:24.4730,-0.026,-0.349,-0.905,0.3,0.9,-0.67,49.27795241850954,-122.91086467290026,354.12569127357415,0.5847844481468201
2024-07-07 19:39:24.4830,-0.034,-0.345,-0.908,0.33,0.94,-0.61,49.27795241850954,-122.91086467290026,354.12569127357415,0.5847844481468201
2024-07-07 19:39:24.4930,-0.04,-0.339,-0.913,0.38,0.91,-0.59,49.27795241850954,-122.91086467290026,354.12569127357415,0.5847844481468201
2024-07-07 19:39:24.5040,-0.044,-0.335,-0.919,0.42,0.86,-0.54,49.27795241850954,-122.91086467290026,354.12569127357415,0.5847844481468201
2024-07-07 19:39:24.5140,-0.049,-0.338,-0.921,0.44,0.83,-0.48,49.27795241850954,-122.91086467290026,354.12569127357415,0.5847844481468201
2024-07-07 19:39:24.5240,-0.053,-0.348,-0.922,0.46,0.87,-0.46,49.27795241850954,-122.91086467290026,354.12569127357415,0.5847844481468201
2024-07-07 19:39:24.5340,-0.055,-0.365,-0.927,0.49,0.97,-0.46,49.27795241850954,-122.91086467290026,354.12569127357415,0.5847844481468201
2024-07-07 19:39:24.5440,-0.053,-0.38,-0.939,0.48,1.12,-0.39,49.27795241850954,-122.91086467290026,354.12569127357415,0.5847844481468201
2024-07-07 19:39:24.5540,-0.048,-0.391,-0.95,0.44,1.25,-0.27,49.27795241850954,-122.91086467290026,354.12569127357415,0.5847844481468201
2024-07-07 19:39:24.5640,-0.041,-0.4,-0.965,0.38,1.33,-0.15,49.27795241850954,-122.91086467290026,354.12569127357415,0.5847844481468201
2024-07-07 19:39:24.5740,-0.037,-0.403,-0.987,0.31,1.39,0.01,49.27795241850954,-122.91086467290026,354.12569127357415,0.5847844481468201
2024-07-07 19:39:24.5840,-0.024,-0.401,-1.015,0.26,1.38,0.24,49.27795241850954,-122.91086467290026,354.12569127357415,0.5847844481468201
2024-07-07 19:39:24.5940,-0.007,-0.398,-1.045,0.12,1.33,0.53,49.27795241850954,-122.91086467290026,354.12569127357415,0.5847844481468201
2024-07-07 19:39:24.6040,0.004,-0.392,-1.075,-0.05,1.28,0.83,49.27795241850954,-122.91086467290026,354.12569127357415,0.5847844481468201
2024-07-07 19:39:24.6140,0.007,-0.378,-1.107,-0.15,1.17,1.13,49.27795241850954,-122.91086467290026,354.12569127357415,0.5847844481468201
2024-07-07 19:39:24.6240,0.004,-0.363,-1.14,-0.19,1.0,1.46,49.27795241850954,-122.91086467290026,354.12569127357415,0.5847844481468201
2024-07-07 19:39:24.6340,-0.001,-0.351,-1.16,-0.17,0.82,1.79,49.27795241850954,-122.91086467290026,354.12569127357415,0.5847844481468201
2024-07-07 19:39:24.6450,-0.009,-0.351,-1.142,-0.13,0.66,1.96,49.27795241850954,-122.91086467290026,354.12569127357415,0.5847844481468201
2024-07-07 19:39:24.6550,-0.028,-0.368,-1.096,-0.07,0.63,1.76,49.27795241850954,-122.91086467290026,354.12569127357415,0.5847844481468201
2024-07-07 19:39:24.6650,-0.055,-0.395,-1.053,0.13,0.77,1.31,49.27795241850954,-122.91086467290026,354.12569127357415,0.5847844481468201
2024-07-07 19:39:24.6750,-0.074,-0.426,-1.024,0.4,0.98,0.92,49.27795241850954,-122.91086467290026,354.12569127357415,0.5847844481468201
2024-07-07 19:39:24.6850,-0.081,-0.453,-1.021,0.59,1.26,0.66,49.27795241850954,-122.91086467290026,354.12569127357415,0.5847844481468201
2024-07-07 19:39:24.6950,-0.078,-0.451,-1.079,0.69,1.51,0.69,49.27795241850954,-122.91086467290026,354.12569127357415,0.5847844481468201
2024-07-07 19:39:24.7050,-0.056,-0.403,-1.185,0.67,1.49,1.32,49.27795241850954,-122.91086467290026,354.12569127357415,0.5847844481468201
2024-07-07 19:39:24.7150,-0.031,-0.307,-1.297,0.47,1.02,2.37,49.27795241850954,-122.91086467290026,354.12569127357415,0.5847844481468201
2024-07-07 19:39:24.7250,-0.015,-0.183,-1.381,0.26,0.1,3.43,49.27795241850954,-122.91086467290026,354.12569127357415,0.5847844481468201
2024-07-07 19:39:24.7350,0.002,-0.069,-1.422,0.12,-1.06,4.19,49.27795241850954,-122.91086467290026,354.12569127357415,0.5847844481468201
2024-07-07 19:39:24.7450,0.015,0.009,-1.41,-0.05,-2.11,4.51,49.27795241850954,-122.91086467290026,354.12569127357415,0.5847844481468201
2024-07-07 19:39:24.7560,0.012,0.025,-1.354,-0.18,-2.79,4.33,49.27795241850954,-122.91086467290026,354.12569127357415,0.5847844481468201
2024-07-07 19:39:24.7650,-0.013,-0.011,-1.269,-0.15,-2.88,3.75,49.27795241850954,-122.91086467290026,354.12569127357415,0.5847844481468201
2024-07-07 19:39:24.7760,-0.032,-0.056,-1.151,0.08,-2.53,2.87,49.27795241850954,-122.91086467290026,354.12569127357415,0.5847844481468201
2024-07-07 19:39:24.7860,-0.048,-0.095,-1.057,0.25,-2.14,1.73,49.27795241850954,-122.91086467290026,354.12569127357415,0.5847844481468201
2024-07-07 19:39:24.7960,-0.062,-0.127,-0.992,0.42,-1.83,0.87,49.27795241850954,-122.91086467290026,354.12569127357415,0.5847844481468201
2024-07-07 19:39:24.8060,-0.067,-0.154,-0.953,0.58,-1.59,0.28,49.27795241850954,-122.91086467290026,354.12569127357415,0.5847844481468201
2024-07-07 19:39:24.8160,-0.059,-0.169,-0.941,0.65,-1.41,-0.04,49.27795241850954,-122.91086467290026,354.12569127357415,0.5847844481468201
2024-07-07 19:39:24.8260,-0.039,-0.175,-0.942,0.61,-1.34,-0.11,49.27795241850954,-122.91086467290026,354.12569127357415,0.5847844481468201
2024-07-07 19:39:24.8360,-0.01,-0.185,-0.95,0.44,-1.36,-0.07,49.27795241850954,-122.91086467290026,354.12569127357415,0.5847844481468201
2024-07-07 19:39:24.8460,0.018,-0.202,-0.959,0.21,-1.33,0.04,49.27795241850954,-122.91086467290026,354.12569127357415,0.5847844481468201
2024-07-07 19:39:24.8560,0.044,-0.226,-0.957,-0.01,-1.21,0.14,49.27795241850954,-122.91086467290026,354.12569127357415,0.5847844481468201
2024-07-07 19:39:24.8670,0.064,-0.25,-0.946,-0.21,-1.04,0.14,49.27795241850954,-122.91086467290026,354.12569127357415,0.5847844481468201
2024-07-07 19:39:24.8770,0.076,-0.272,-0.928,-0.36,-0.87,0.04,49.27795241850954,-122.91086467290026,354.12569127357415,0.5847844481468201
2024-07-07 19:39:24.8860,0.085,-0.288,-0.91,-0.44,-0.72,-0.12,49.277958828387575,-122.91087440819945,354.1183303557739,0.7254204750061035
2024-07-07 19:39:24.8960,0.091,-0.297,-0.896,-0.5,-0.61,-0.27,49.277958828387575,-122.91087440819945,354.1183303557739,0.7254204750061035
2024-07-07 19:39:24.9070,0.099,-0.305,-0.888,-0.54,-0.56,-0.39,49.277958828387575,-122.91087440819945,354.1183303557739,0.7254204750061035
2024-07-07 19:39:24.9170,0.103,-0.31,-0.89,-0.61,-0.51,-0.45,49.277958828387575,-122.91087440819945,354.1183303557739,0.7254204750061035
2024-07-07 19:39:24.9270,0.103,-0.31,-0.882,-0.66,-0.47,-0.43,49.277958828387575,-122.91087440819945,354.1183303557739,0.7254204750061035
2024-07-07 19:39:24.9370,0.098,-0.312,-0.86,-0.67,-0.47,-0.53,49.277958828387575,-122.91087440819945,354.1183303557739,0.7254204750061035
2024-07-07 19:39:24.9470,0.089,-0.316,-0.835,-0.65,-0.43,-0.77,49.277958828387575,-122.91087440819945,354.1183303557739,0.7254204750061035
2024-07-07 19:39:24.9570,0.079,-0.32,-0.809,-0.6,-0.38,-1.01,49.277958828387575,-122.91087440819945,354.1183303557739,0.7254204750061035
2024-07-07 19:39:24.9670,0.068,-0.321,-0.78,-0.55,-0.33,-1.28,49.277958828387575,-122.91087440819945,354.1183303557739,0.7254204750061035
2024-07-07 19:39:24.9770,0.059,-0.323,-0.753,-0.5,-0.31,-1.57,49.277958828387575,-122.91087440819945,354.1183303557739,0.7254204750061035
2024-07-07 19:39:24.9880,0.053,-0.325,-0.73,-0.47,-0.28,-1.83,49.277958828387575,-122.91087440819945,354.1183303557739,0.7254204750061035
2024-07-07 19:39:24.9970,0.045,-0.327,-0.713,-0.45,-0.24,-2.06,49.277958828387575,-122.91087440819945,354.1183303557739,0.7254204750061035
2024-07-07 19:39:25.0080,0.037,-0.33,-0.7,-0.42,-0.2,-2.23,49.277958828387575,-122.91087440819945,354.1183303557739,0.7254204750061035
2024-07-07 19:39:25.0170,0.028,-0.335,-0.694,-0.38,-0.16,-2.36,49.277958828387575,-122.91087440819945,354.1183303557739,0.7254204750061035
2024-07-07 19:39:25.0280,0.02,-0.345,-0.69,-0.34,-0.08,-2.41,49.277958828387575,-122.91087440819945,354.1183303557739,0.7254204750061035
2024-07-07 19:39:25.0380,0.011,-0.351,-0.701,-0.29,0.05,-2.45,49.277958828387575,-122.91087440819945,354.1183303557739,0.7254204750061035
2024-07-07 19:39:25.0480,0.009,-0.345,-0.718,-0.23,0.11,-2.34,49.277958828387575,-122.91087440819945,354.1183303557739,0.7254204750061035
2024-07-07 19:39:25.0580,0.015,-0.334,-0.743,-0.26,0.07,-2.17,49.277958828387575,-122.91087440819945,354.1183303557739,0.7254204750061035
2024-07-07 19:39:25.0680,0.014,-0.322,-0.768,-0.34,-0.01,-1.93,49.277958828387575,-122.91087440819945,354.1183303557739,0.7254204750061035
2024-07-07 19:39:25.0780,0.005,-0.308,-0.79,-0.34,-0.12,-1.7,49.277958828387575,-122.91087440819945,354.1183303557739,0.7254204750061035
2024-07-07 19:39:25.0880,-0.006,-0.295,-0.801,-0.27,-0.26,-1.49,49.277958828387575,-122.91087440819945,354.1183303557739,0.7254204750061035
2024-07-07 19:39:25.0980,-0.025,-0.285,-0.814,-0.16,-0.38,-1.38,49.277958828387575,-122.91087440819945,354.1183303557739,0.7254204750061035
2024-07-07 19:39:25.1090,-0.042,-0.281,-0.815,0.01,-0.5,-1.25,49.277958828387575,-122.91087440819945,354.1183303557739,0.7254204750061035
2024-07-07 19:39:25.1180,-0.062,-0.289,-0.809,0.19,-0.56,-1.25,49.277958828387575,-122.91087440819945,354.1183303557739,0.7254204750061035
2024-07-07 19:39:25.1280,-0.068,-0.307,-0.819,0.4,-0.51,-1.28,49.277958828387575,-122.91087440819945,354.1183303557739,0.7254204750061035
2024-07-07 19:39:25.1390,-0.059,-0.327,-0.839,0.45,-0.38,-1.15,49.277958828387575,-122.91087440819945,354.1183303557739,0.7254204750061035
2024-07-07 19:39:25.1490,-0.051,-0.349,-0.885,0.39,-0.23,-0.9,49.277958828387575,-122.91087440819945,354.1183303557739,0.7254204750061035
2024-07-07 19:39:25.1590,-0.042,-0.371,-0.924,0.33,-0.08,-0.41,49.277958828387575,-122.91087440819945,354.1183303557739,0.7254204750061035
2024-07-07 19:39:25.1690,-0.044,-0.394,-0.932,0.27,0.07,-0.05,49.277958828387575,-122.91087440819945,354.1183303557739,0.7254204750061035
2024-07-07 19:39:25.1790,-0.054,-0.42,-0.922,0.32,0.24,0.02,49.277958828387575,-122.91087440819945,354.1183303557739,0.7254204750061035
2024-07-07 19:39:25.1890,-0.054,-0.437,-0.918,0.43,0.44,-0.06,49.277958828387575,-122.91087440819945,354.1183303557739,0.7254204750061035
2024-07-07 19:39:25.1990,-0.049,-0.442,-0.94,0.42,0.56,-0.06,49.277958828387575,-122.91087440819945,354.1183303557739,0.7254204750061035
2024-07-07 19:39:25.2090,-0.048,-0.442,-0.976,0.4,0.58,0.2,49.277958828387575,-122.91087440819945,354.1183303557739,0.7254204750061035
2024-07-07 19:39:25.2190,-0.053,-0.434,-1.011,0.39,0.55,0.56,49.277958828387575,-122.91087440819945,354.1183303557739,0.7254204750061035
2024-07-07 19:39:25.2290,-0.058,-0.421,-1.034,0.45,0.45,0.9,49.277958828387575,-122.91087440819945,354.1183303557739,0.7254204750061035
2024-07-07 19:39:25.2390,-0.06,-0.412,-1.028,0.49,0.31,1.09,49.277958828387575,-122.91087440819945,354.1183303557739,0.7254204750061035
2024-07-07 19:39:25.2490,-0.065,-0.405,-1.012,0.51,0.22,1.02,49.277958828387575,-122.91087440819945,354.1183303557739,0.7254204750061035
2024-07-07 19:39:25.2600,-0.065,-0.402,-0.994,0.58,0.15,0.87,49.277958828387575,-122.91087440819945,354.1183303557739,0.7254204750061035
2024-07-07 19:39:25.2700,-0.054,-0.41,-0.971,0.57,0.12,0.67,49.277958828387575,-122.91087440819945,354.1183303557739,0.7254204750061035
2024-07-07 19:39:25.2790,-0.04,-0.44,-0.965,0.5,0.21,0.47,49.277958828387575,-122.91087440819945,354.1183303557739,0.7254204750061035
2024-07-07 19:39:25.2890,-0.014,-0.484,-0.981,0.4,0.53,0.44,49.277958828387575,-122.91087440819945,354.1183303557739,0.7254204750061035
2024-07-07 19:39:25.2990,0.023,-0.52,-1.009,0.21,0.97,0.62,49.277958828387575,-122.91087440819945,354.1183303557739,0.7254204750061035
2024-07-07 19:39:25.3090,0.069,-0.533,-1.061,-0.1,1.32,0.89,49.277958828387575,-122.91087440819945,354.1183303557739,0.7254204750061035
2024-07-07 19:39:25.3200,0.108,-0.508,-1.157,-0.46,1.46,1.44,49.277958828387575,-122.91087440819945,354.1183303557739,0.7254204750061035
2024-07-07 19:39:25.3290,0.132,-0.442,-1.266,-0.77,1.22,2.4,49.277958828387575,-122.91087440819945,354.1183303557739,0.7254204750061035
2024-07-07 19:39:25.3400,0.137,-0.356,-1.36,-0.92,0.62,3.43,49.277958828387575,-122.91087440819945,354.1183303557739,0.7254204750061035
2024-07-07 19:39:25.3500,0.142,-0.257,-1.417,-0.94,-0.18,4.3,49.277958828387575,-122.91087440819945,354.1183303557739,0.7254204750061035
2024-07-07 19:39:25.3600,0.151,-0.171,-1.405,-1.0,-1.1,4.77,49.277958828387575,-122.91087440819945,354.1183303557739,0.7254204750061035
2024-07-07 19:39:25.3700,0.15,-0.13,-1.315,-1.12,-1.87,4.53,49.277958828387575,-122.91087440819945,354.1183303557739,0.7254204750061035
2024-07-07 19:39:25.3800,0.136,-0.143,-1.184,-1.13,-2.2,3.57,49.277958828387575,-122.91087440819945,354.1183303557739,0.7254204750061035
2024-07-07 19:39:25.3900,0.125,-0.184,-1.063,-1.02,-2.02,2.28,49.277958828387575,-122.91087440819945,354.1183303557739,0.7254204750061035
2024-07-07 19:39:25.4000,0.128,-0.219,-0.961,-0.95,-1.64,1.12,49.277958828387575,-122.91087440819945,354.1183303557739,0.7254204750061035
2024-07-07 19:39:25.4100,0.133,-0.247,-0.894,-0.99,-1.35,0.17,49.277958828387575,-122.91087440819945,354.1183303557739,0.7254204750061035
2024-07-07 19:39:25.4200,0.138,-0.27,-0.853,-1.03,-1.12,-0.43,49.277958828387575,-122.91087440819945,354.1183303557739,0.7254204750061035
2024-07-07 19:39:25.4310,0.146,-0.28,-0.832,-1.06,-0.95,-0.79,49.277958828387575,-122.91087440819945,354.1183303557739,0.7254204750061035
2024-07-07 19:39:25.4410,0.157,-0.274,-0.828,-1.11,-0.91,-0.95,49.277958828387575,-122.91087440819945,354.1183303557739,0.7254204750061035
2024-07-07 19:39:25.4510,0.169,-0.263,-0.829,-1.19,-1.03,-0.96,49.277958828387575,-122.91087440819945,354.1183303557739,0.7254204750061035
