time,gFx,gFy,gFz,ax,ay,az,latitude,longitude,altitude,speed
2024-07-07 19:37:56.8350,0.004,-0.614,-1.21,-0.14,2.37,2.51,49.27886565908125,-122.91035816797437,358.9539258694276,1.4552996158599474
2024-07-07 19:37:56.8410,-0.001,-0.599,-1.22,-0.18,2.4,2.86,49.27886565908125,-122.91035816797437,358.9539258694276,1.4552996158599474
2024-07-07 19:37:56.8520,-0.016,-0.577,-1.188,-0.1,2.2,2.64,49.27886565908125,-122.91035816797437,358.9539258694276,1.4552996158599474
2024-07-07 19:37:56.8630,-0.032,-0.541,-1.154,-0.01,1.94,2.28,49.27886565908125,-122.91035816797437,358.9539258694276,1.4552996158599474
2024-07-07 19:37:56.8720,-0.059,-0.511,-1.119,0.18,1.65,1.94,49.27886565908125,-122.91035816797437,358.9539258694276,1.4552996158599474
2024-07-07 19:37:56.8820,-0.073,-0.473,-1.08,0.37,1.42,1.51,49.27886565908125,-122.91035816797437,358.9539258694276,1.4552996158599474
2024-07-07 19:37:56.8920,-0.064,-0.41,-1.088,0.38,0.97,1.31,49.27886565908125,-122.91035816797437,358.9539258694276,1.4552996158599474
2024-07-07 19:37:56.9020,-0.05,-0.343,-1.192,0.27,0.41,1.94,49.27886565908125,-122.91035816797437,358.9539258694276,1.4552996158599474
2024-07-07 19:37:56.9130,-0.042,-0.293,-1.308,0.26,-0.04,3.12,49.27886565908125,-122.91035816797437,358.9539258694276,1.4552996158599474
2024-07-07 19:37:56.9230,-0.029,-0.236,-1.456,0.25,-0.34,4.34,49.27886565908125,-122.91035816797437,358.9539258694276,1.4552996158599474
2024-07-07 19:37:56.9330,-0.01,-0.149,-1.56,0.17,-1.06,5.63,49.27886565908125,-122.91035816797437,358.9539258694276,1.4552996158599474
2024-07-07 19:37:56.9430,0.009,-0.084,-1.59,0.02,-1.73,6.13,49.27886565908125,-122.91035816797437,358.9539258694276,1.4552996158599474
2024-07-07 19:37:56.9530,0.013,-0.043,-1.543,-0.06,-2.19,5.97,49.27886565908125,-122.91035816797437,358.9539258694276,1.4552996158599474
2024-07-07 19:37:56.9630,-0.009,-0.031,-1.42,0.05,-2.43,5.04,49.27886565908125,-122.91035816797437,358.9539258694276,1.4552996158599474
2024-07-07 19:37:56.9730,-0.049,-0.062,-1.271,0.39,-2.29,3.56,49.27886565908125,-122.91035816797437,358.9539258694276,1.4552996158599474
2024-07-07 19:37:56.9830,-0.079,-0.099,-1.148,0.73,-1.95,2.29,49.27886565908125,-122.91035816797437,358.9539258694276,1.4552996158599474
2024-07-07 19:37:56.9930,-0.1,-0.133,-1.037,0.93,-1.65,1.17,49.27886565908125,-122.91035816797437,358.9539258694276,1.4552996158599474
2024-07-07 19:37:57.0030,-0.119,-0.16,-0.949,1.12,-1.41,0.22,49.27886565908125,-122.91035816797437,358.9539258694276,1.4552996158599474
2024-07-07 19:37:57.0140,-0.137,-0.177,-0.895,1.33,-1.24,-0.43,49.27886565908125,-122.91035816797437,358.9539258694276,1.4552996158599474
2024-07-07 19:37:57.0230,-0.144,-0.183,-0.867,1.47,-1.19,-0.77,49.27886565908125,-122.91035816797437,358.9539258694276,1.4552996158599474
2024-07-07 19:37:57.0330,-0.134,-0.186,-0.849,1.47,-1.19,-0.96,49.27886565908125,-122.91035816797437,358.9539258694276,1.4552996158599474
2024-07-07 19:37:57.0440,-0.116,-0.19,-0.838,1.34,-1.21,-1.08,49.27886565908125,-122.91035816797437,358.9539258694276,1.4552996158599474
2024-07-07 19:37:57.0540,-0.104,-0.214,-0.827,1.25,-1.06,-1.16,49.27886565908125,-122.91035816797437,358.9539258694276,1.4552996158599474
2024-07-07 19:37:57.0640,-0.096,-0.208,-0.815,1.17,-1.04,-1.25,49.27886565908125,-122.91035816797437,358.9539258694276,1.4552996158599474
2024-07-07 19:37:57.0740,-0.093,-0.257,-0.759,1.18,-0.89,-1.58,49.27886565908125,-122.91035816797437,358.9539258694276,1.4552996158599474
2024-07-07 19:37:57.0840,-0.082,-0.275,-0.753,1.11,-0.38,-1.98,49.27886565908125,-122.91035816797437,358.9539258694276,1.4552996158599474
2024-07-07 19:37:57.0940,-0.076,-0.241,-0.769,1.05,-0.68,-1.79,49.27886565908125,-122.91035816797437,358.9539258694276,1.4552996158599474
2024-07-07 19:37:57.1040,-0.081,-0.221,-0.767,1.05,-0.89,-1.75,49.27886565908125,-122.91035816797437,358.9539258694276,1.4552996158599474
2024-07-07 19:37:57.1150,-0.092,-0.197,-0.761,1.14,-1.07,-1.83,49.27886565908125,-122.91035816797437,358.9539258694276,1.4552996158599474
2024-07-07 19:37:57.1240,-0.103,-0.168,-0.759,1.25,-1.3,-1.86,49.27886565908125,-122.91035816797437,358.9539258694276,1.4552996158599474
2024-07-07 19:37:57.1340,-0.105,-0.14,-0.742,1.29,-1.56,-1.99,49.27886565908125,-122.91035816797437,358.9539258694276,1.4552996158599474
2024-07-07 19:37:57.1450,-0.1,-0.125,-0.73,1.24,-1.74,-2.14,49.27886565908125,-122.91035816797437,358.9539258694276,1.4552996158599474
2024-07-07 19:37:57.1540,-0.098,-0.135,-0.713,1.19,-1.67,-2.29,49.27886565908125,-122.91035816797437,358.9539258694276,1.4552996158599474
2024-07-07 19:37:57.1640,-0.094,-0.141,-0.693,1.17,-1.57,-2.48,49.27886565908125,-122.91035816797437,358.9539258694276,1.4552996158599474
2024-07-07 19:37:57.1740,-0.079,-0.155,-0.675,1.04,-1.49,-2.69,49.27886104546658,-122.91036271758676,358.982864510268,1.217960715293862
2024-07-07 19:37:57.1840,-0.062,-0.191,-0.666,0.88,-1.2,-2.81,49.27886104546658,-122.91036271758676,358.982864510268,1.217960715293862
2024-07-07 19:37:57.1950,-0.041,-0.228,-0.66,0.71,-0.83,-2.85,49.27886104546658,-122.91036271758676,358.982864510268,1.217960715293862
2024-07-07 19:37:57.2050,-0.018,-0.258,-0.643,0.49,-0.54,-2.98,49.27886104546658,-122.91036271758676,358.982864510268,1.217960715293862
2024-07-07 19:37:57.2150,0.002,-0.291,-0.631,0.31,-0.24,-3.13,49.27886104546658,-122.91036271758676,358.982864510268,1.217960715293862
2024-07-07 19:37:57.2250,0.02,-0.314,-0.623,0.16,0.01,-3.19,49.27886104546658,-122.91036271758676,358.982864510268,1.217960715293862
2024-07-07 19:37:57.2350,0.032,-0.322,-0.624,0.06,0.12,-3.24,49.27886104546658,-122.91036271758676,358.982864510268,1.217960715293862
2024-07-07 19:37:57.2450,0.043,-0.319,-0.638,0.0,0.11,-3.13,49.27886104546658,-122.91036271758676,358.982864510268,1.217960715293862
2024-07-07 19:37:57.2550,0.055,-0.316,-0.662,-0.06,0.05,-2.94,49.27886104546658,-122.91036271758676,358.982864510268,1.217960715293862
2024-07-07 19:37:57.2650,0.065,-0.319,-0.702,-0.11,0.06,-2.58,49.27886104546658,-122.91036271758676,358.982864510268,1.217960715293862
2024-07-07 19:37:57.2750,0.08,-0.319,-0.748,-0.19,0.08,-2.15,49.27886104546658,-122.91036271758676,358.982864510268,1.217960715293862
2024-07-07 19:37:57.2850,0.092,-0.312,-0.791,-0.28,0.04,-1.7,49.27886104546658,-122.91036271758676,358.982864510268,1.217960715293862
2024-07-07 19:37:57.2960,0.106,-0.305,-0.827,-0.37,-0.04,-1.32,49.27886104546658,-122.91036271758676,358.982864510268,1.217960715293862
2024-07-07 19:37:57.3060,0.117,-0.311,-0.843,-0.47,-0.02,-1.06,49.27886104546658,-122.91036271758676,358.982864510268,1.217960715293862
2024-07-07 19:37:57.3160,0.12,-0.328,-0.838,-0.52,0.13,-1.07,49.27886104546658,-122.91036271758676,358.982864510268,1.217960715293862
2024-07-07 19:37:57.3260,0.12,-0.342,-0.833,-0.5,0.3,-1.12,49.27886104546658,-122.91036271758676,358.982864510268,1.217960715293862
2024-07-07 19:37:57.3360,0.128,-0.354,-0.822,-0.53,0.43,-1.21,49.27886104546658,-122.91036271758676,358.982864510268,1.217960715293862
2024-07-07 19:37:57.3460,0.135,-0.374,-0.819,-0.61,0.6,-1.3,49.27886104546658,-122.91036271758676,358.982864510268,1.217960715293862
2024-07-07 19:37:57.3560,0.137,-0.396,-0.829,-0.61,0.83,-1.24,49.27886104546658,-122.91036271758676,358.982864510268,1.217960715293862
2024-07-07 19:37:57.3660,0.138,-0.404,-0.86,-0.59,0.98,-1.02,49.27886104546658,-122.91036271758676,358.982864510268,1.217960715293862
2024-07-07 19:37:57.3760,0.142,-0.402,-0.904,-0.59,0.99,-0.63,49.27886104546658,-122.91036271758676,358.982864510268,1.217960715293862
2024-07-07 19:37:57.3860,0.146,-0.403,-0.952,-0.6,0.99,-0.16,49.27886104546658,-122.91036271758676,358.982864510268,1.217960715293862
2024-07-07 19:37:57.3960,0.154,-0.403,-0.993,-0.62,1.01,0.27,49.27886104546658,-122.91036271758676,358.982864510268,1.217960715293862
2024-07-07 19:37:57.4060,0.168,-0.404,-1.037,-0.72,1.05,0.67,49.27886104546658,-122.91036271758676,358.982864510268,1.217960715293862
2024-07-07 19:37:57.4160,0.19,-0.395,-1.089,-0.89,1.04,1.14,49.27886104546658,-122.91036271758676,358.982864510268,1.217960715293862
2024-07-07 19:37:57.4270,0.215,-0.377,-1.157,-1.12,0.91,1.76,49.27886104546658,-122.91036271758676,358.982864510268,1.217960715293862
2024-07-07 19:37:57.4370,0.253,-0.352,-1.196,-1.43,0.73,2.29,49.27886104546658,-122.91036271758676,358.982864510268,1.217960715293862
2024-07-07 19:37:57.4470,0.295,-0.346,-1.189,-1.9,0.62,2.33,49.27886104546658,-122.91036271758676,358.982864510268,1.217960715293862
2024-07-07 19:37:57.4570,0.298,-0.369,-1.189,-2.1,0.86,2.23,49.27886104546658,-122.91036271758676,358.982864510268,1.217960715293862
2024-07-07 19:37:57.4670,0.288,-0.373,-1.206,-2.03,1.13,2.32,49.27886104546658,-122.91036271758676,358.982864510268,1.217960715293862
2024-07-07 19:37:57.4770,0.301,-0.332,-1.265,-2.09,1.01,2.67,49.27886104546658,-122.91036271758676,358.982864510268,1.217960715293862
2024-07-07 19:37:57.4870,0.317,-0.266,-1.311,-2.34,0.56,3.27,49.27886104546658,-122.91036271758676,358.982864510268,1.217960715293862
2024-07-07 19:37:57.4970,0.299,-0.192,-1.321,-2.31,0.03,3.34,49.27886104546658,-122.91036271758676,358.982864510268,1.217960715293862
2024-07-07 19:37:57.5070,0.284,-0.112,-1.379,-2.17,-0.58,3.67,49.27886104546658,-122.91036271758676,358.982864510268,1.217960715293862
2024-07-07 19:37:57.5170,0.267,-0.04,-1.436,-2.08,-1.14,4.29,49.27886104546658,-122.91036271758676,358.982864510268,1.217960715293862
2024-07-07 19:37:57.5280,0.249,0.021,-1.46,-1.93,-1.63,4.59,49.27886104546658,-122.91036271758676,358.982864510268,1.217960715293862
2024-07-07 19:37:57.5370,0.241,0.059,-1.464,-1.89,-1.94,4.69,49.27886104546658,-122.91036271758676,358.982864510268,1.217960715293862
2024-07-07 19:37:57.5470,0.237,0.081,-1.432,-1.9,-2.08,4.5,49.27886104546658,-122.91036271758676,358.982864510268,1.217960715293862
2024-07-07 19:37:57.5580,0.241,0.09,-1.365,-2.0,-2.15,3.96,49.27886104546658,-122.91036271758676,358.982864510268,1.217960715293862
2024-07-07 19:37:57.5670,0.239,0.07,-1.258,-2.09,-2.02,3.04,49.27886104546658,-122.91036271758676,358.982864510268,1.217960715293862
2024-07-07 19:37:57.5770,0.23,0.029,-1.129,-2.08,-1.68,1.82,49.27886104546658,-122.91036271758676,358.982864510268,1.217960715293862
2024-07-07 19:37:57.5880,0.224,-0.018,-1.011,-2.05,-1.25,0.58,49.27886104546658,-122.91036271758676,358.982864510268,1.217960715293862
2024-07-07 19:37:57.5980,0.223,-0.06,-0.932,-2.05,-0.86,-0.33,49.27886104546658,-122.91036271758676,358.982864510268,1.217960715293862
2024-07-07 19:37:57.6080,0.22,-0.094,-0.878,-2.02,-0.57,-0.93,49.27886104546658,-122.91036271758676,358.982864510268,1.217960715293862
2024-07-07 19:37:57.6180,0.222,-0.126,-0.849,-1.98,-0.32,-1.3,49.27886104546658,-122.91036271758676,358.982864510268,1.217960715293862
2024-07-07 19:37:57.6280,0.234,-0.147,-0.838,-2.04,-0.14,-1.44,49.27886104546658,-122.91036271758676,358.982864510268,1.217960715293862
2024-07-07 19:37:57.6380,0.247,-0.158,-0.834,-2.11,-0.07,-1.49,49.27886104546658,-122.91036271758676,358.982864510268,1.217960715293862
2024-07-07 19:37:57.6480,0.258,-0.161,-0.84,-2.16,-0.07,-1.46,49.27886104546658,-122.91036271758676,358.982864510268,1.217960715293862
2024-07-07 19:37:57.6590,0.266,-0.156,-0.854,-2.19,-0.16,-1.33,49.27886104546658,-122.91036271758676,358.982864510268,1.217960715293862
2024-07-07 19:37:57.6680,0.269,-0.148,-0.859,-2.19,-0.3,-1.22,49.27886104546658,-122.91036271758676,358.982864510268,1.217960715293862
2024-07-07 19:37:57.6780,0.259,-0.148,-0.861,-2.1,-0.38,-1.19,49.27886104546658,-122.91036271758676,358.982864510268,1.217960715293862
2024-07-07 19:37:57.6880,0.243,-0.148,-0.856,-1.92,-0.4,-1.19,49.27886104546658,-122.91036271758676,358.982864510268,1.217960715293862
2024-07-07 19:37:57.6990,0.221,-0.147,-0.839,-1.72,-0.46,-1.31,49.27886104546658,-122.91036271758676,358.982864510268,1.217960715293862
2024-07-07 19:37:57.7090,0.191,-0.157,-0.807,-1.45,-0.42,-1.57,49.27886104546658,-122.91036271758676,358.982864510268,1.217960715293862
2024-07-07 19:37:57.7190,0.163,-0.166,-0.775,-1.16,-0.33,-1.88,49.27886104546658,-122.91036271758676,358.982864510268,1.217960715293862
2024-07-07 19:37:57.7290,0.135,-0.17,-0.74,-0.91,-0.3,-2.22,49.27886104546658,-122.91036271758676,358.982864510268,1.217960715293862
2024-07-07 19:37:57.7390,0.105,-0.177,-0.716,-0.65,-0.24,-2.51,49.27886104546658,-122.91036271758676,358.982864510268,1.217960715293862
2024-07-07 19:37:57.7490,0.079,-0.183,-0.698,-0.4,-0.17,-2.69,49.27886104546658,-122.91036271758676,358.982864510268,1.217960715293862
2024-07-07 19:37:57.7590,0.058,-0.189,-0.68,-0.21,-0.11,-2.88,49.27886104546658,-122.91036271758676,358.982864510268,1.217960715293862
2024-07-07 19:37:57.7690,0.031,-0.195,-0.668,0.0,-0.03,-3.03,49.27886104546658,-122.91036271758676,358.982864510268,1.217960715293862
2024-07-07 19:37:57.7790,0.011,-0.2,-0.656,0.21,0.03,-3.14,49.27886104546658,-122.91036271758676,358.982864510268,1.217960715293862
2024-07-07 19:37:57.7890,-0.006,-0.213,-0.649,0.34,0.15,-3.25,49.27886104546658,-122.91036271758676,358.982864510268,1.217960715293862
2024-07-07 19:37:57.7990,-0.021,-0.23,-0.655,0.49,0.34,-3.24,49.27886104546658,-122.91036271758676,358.982864510268,1.217960715293862
2024-07-07 19:37:57.8090,-0.025,-0.24,-0.672,0.58,0.49,-3.11,49.27886104546658,-122.91036271758676,358.982864510268,1.217960715293862
2024-07-07 19:37:57.8190,-0.024,-0.245,-0.696,0.56,0.56,-2.9,49.27886104546658,-122.91036271758676,358.982864510268,1.217960715293862
2024-07-07 19:37:57.8300,-0.027,-0.256,-0.721,0.58,0.66,-2.66,49.27886104546658,-122.91036271758676,358.982864510268,1.217960715293862
2024-07-07 19:37:57.8400,-0.027,-0.268,-0.746,0.61,0.77,-2.42,49.27886104546658,-122.91036271758676,358.982864510268,1.217960715293862
2024-07-07 19:37:57.8500,-0.026,-0.277,-0.769,0.62,0.86,-2.17,49.27886104546658,-122.91036271758676,358.982864510268,1.217960715293862
2024-07-07 19:37:57.8600,-0.031,-0.288,-0.781,0.64,0.94,-2.01,49.27886104546658,-122.91036271758676,358.982864510268,1.217960715293862
2024-07-07 19:37:57.8710,-0.041,-0.298,-0.788,0.75,1.03,-1.92,49.27886104546658,-122.91036271758676,358.982864510268,1.217960715293862
2024-07-07 19:37:57.8800,-0.05,-0.308,-0.795,0.87,1.09,-1.86,49.27886104546658,-122.91036271758676,358.982864510268,1.217960715293862
2024-07-07 19:37:57.8900,-0.06,-0.321,-0.811,0.97,1.19,-1.73,49.27886104546658,-122.91036271758676,358.982864510268,1.217960715293862
2024-07-07 19:37:57.9000,-0.07,-0.33,-0.836,1.09,1.29,-1.52,49.27886104546658,-122.91036271758676,358.982864510268,1.217960715293862
2024-07-07 19:37:57.9100,-0.078,-0.331,-0.872,1.21,1.3,-1.2,49.27886104546658,-122.91036271758676,358.982864510268,1.217960715293862
2024-07-07 19:37:57.9210,-0.079,-0.334,-0.91,1.26,1.31,-0.82,49.27886104546658,-122.91036271758676,358.982864510268,1.217960715293862
2024-07-07 19:37:57.9300,-0.081,-0.343,-0.954,1.29,1.38,-0.42,49.27886104546658,-122.91036271758676,358.982864510268,1.217960715293862
2024-07-07 19:37:57.9430,-0.08,-0.347,-1.005,1.31,1.46,0.07,49.27886104546658,-122.91036271758676,358.982864510268,1.217960715293862
2024-07-07 19:37:57.9500,-0.074,-0.344,-1.05,1.27,1.45,0.53,49.27886104546658,-122.91036271758676,358.982864510268,1.217960715293862
2024-07-07 19:37:57.9600,-0.069,-0.339,-1.097,1.22,1.4,0.98,49.27886104546658,-122.91036271758676,358.982864510268,1.217960715293862
2024-07-07 19:37:57.9700,-0.062,-0.332,-1.141,1.16,1.35,1.44,49.27886104546658,-122.91036271758676,358.982864510268,1.217960715293862
2024-07-07 19:37:57.9800,-0.058,-0.328,-1.171,1.08,1.27,1.78,49.27886104546658,-122.91036271758676,358.982864510268,1.217960715293862
2024-07-07 19:37:57.9910,-0.053,-0.327,-1.199,1.04,1.27,2.05,49.27886104546658,-122.91036271758676,358.982864510268,1.217960715293862
2024-07-07 19:37:58.0010,-0.046,-0.325,-1.214,0.95,1.23,2.27,49.27886104546658,-122.91036271758676,358.982864510268,1.217960715293862
2024-07-07 19:37:58.0110,-0.043,-0.329,-1.218,0.88,1.24,2.33,49.27886104546658,-122.91036271758676,358.982864510268,1.217960715293862
2024-07-07 19:37:58.0210,-0.037,-0.339,-1.216,0.82,1.3,2.35,49.27886104546658,-122.91036271758676,358.982864510268,1.217960715293862
2024-07-07 19:37:58.0310,-0.028,-0.355,-1.202,0.72,1.42,2.24,49.27886104546658,-122.91036271758676,358.982864510268,1.217960715293862
2024-07-07 19:37:58.0420,-0.024,-0.382,-1.207,0.65,1.65,2.18,49.27886104546658,-122.91036271758676,358.982864510268,1.217960715293862
2024-07-07 19:37:58.0510,-0.024,-0.408,-1.235,0.67,1.94,2.39,49.27886104546658,-122.91036271758676,358.982864510268,1.217960715293862
2024-07-07 19:37:58.0610,-0.013,-0.407,-1.275,0.63,2.08,2.74,49.27886104546658,-122.91036271758676,358.982864510268,1.217960715293862
2024-07-07 19:37:58.0710,0.005,-0.368,-1.327,0.51,1.86,3.2,49.27886104546658,-122.91036271758676,358.982864510268,1.217960715293862
2024-07-07 19:37:58.0810,0.027,-0.303,-1.376,0.33,1.34,3.72,49.27886104546658,-122.91036271758676,358.982864510268,1.217960715293862
2024-07-07 19:37:58.0920,0.047,-0.238,-1.406,0.15,0.72,4.07,49.27886104546658,-122.91036271758676,358.982864510268,1.217960715293862
2024-07-07 19:37:58.1020,0.055,-0.171,-1.426,0.08,0.12,4.31,49.27886104546658,-122.91036271758676,358.982864510268,1.217960715293862
2024-07-07 19:37:58.1120,0.061,-0.1,-1.418,0.03,-0.57,4.36,49.27886104546658,-122.91036271758676,358.982864510268,1.217960715293862
2024-07-07 19:37:58.1220,0.057,-0.048,-1.37,0.04,-1.17,4.03,49.27886104546658,-122.91036271758676,358.982864510268,1.217960715293862
2024-07-07 19:37:58.1320,0.041,-0.03,-1.294,0.18,-1.5,3.37,49.27886104546658,-122.91036271758676,358.982864510268,1.217960715293862
2024-07-07 19:37:58.1420,0.024,-0.045,-1.206,0.38,-1.5,2.55,49.27886104546658,-122.91036271758676,358.982864510268,1.217960715293862
2024-07-07 19:37:58.1530,0.011,-0.077,-1.115,0.55,-1.28,1.66,49.27886104546658,-122.91036271758676,358.982864510268,1.217960715293862
2024-07-07 19:37:58.1620,0.004,-0.106,-1.037,0.7,-1.01,0.85,49.2788580831091,-122.91037278728943,358.9865423804149,0.8878810405731115
2024-07-07 19:37:58.1720,0.008,-0.13,-0.981,0.75,-0.8,0.23,49.2788580831091,-122.91037278728943,358.9865423804149,0.8878810405731115
2024-07-07 19:37:58.1820,0.018,-0.145,-0.95,0.74,-0.66,-0.15,49.2788580831091,-122.91037278728943,358.9865423804149,0.8878810405731115
2024-07-07 19:37:58.1920,0.032,-0.155,-0.937,0.7,-0.58,-0.32,49.2788580831091,-122.91037278728943,358.9865423804149,0.8878810405731115
2024-07-07 19:37:58.2020,0.048,-0.156,-0.928,0.63,-0.57,-0.39,49.2788580831091,-122.91037278728943,358.9865423804149,0.8878810405731115
2024-07-07 19:37:58.2120,0.062,-0.152,-0.93,0.57,-0.6,-0.44,49.2788580831091,-122.91037278728943,358.9865423804149,0.8878810405731115
2024-07-07 19:37:58.2230,0.076,-0.131,-0.97,0.56,-0.75,-0.15,49.2788580831091,-122.91037278728943,358.9865423804149,0.8878810405731115
2024-07-07 19:37:58.2330,0.098,-0.099,-1.004,0.44,-1.07,0.27,49.2788580831091,-122.91037278728943,358.9865423804149,0.8878810405731115
2024-07-07 19:37:58.2430,0.106,-0.081,-1.016,0.37,-1.34,0.47,49.2788580831091,-122.91037278728943,358.9865423804149,0.8878810405731115
2024-07-07 19:37:58.2530,0.109,-0.073,-1.012,0.41,-1.44,0.5,49.2788580831091,-122.91037278728943,358.9865423804149,0.8878810405731115
2024-07-07 19:37:58.2630,0.109,-0.068,-0.993,0.44,-1.53,0.39,49.2788580831091,-122.91037278728943,358.9865423804149,0.8878810405731115
2024-07-07 19:37:58.2730,0.104,-0.068,-0.955,0.49,-1.56,0.09,49.2788580831091,-122.91037278728943,358.9865423804149,0.8878810405731115
2024-07-07 19:37:58.2830,0.097,-0.071,-0.914,0.58,-1.56,-0.31,49.2788580831091,-122.91037278728943,358.9865423804149,0.8878810405731115
2024-07-07 19:37:58.2930,0.094,-0.078,-0.875,0.64,-1.51,-0.7,49.2788580831091,-122.91037278728943,358.9865423804149,0.8878810405731115
2024-07-07 19:37:58.3030,0.091,-0.081,-0.838,0.67,-1.47,-1.07,49.2788580831091,-122.91037278728943,358.9865423804149,0.8878810405731115
2024-07-07 19:37:58.3130,0.086,-0.087,-0.798,0.71,-1.43,-1.44,49.2788580831091,-122.91037278728943,358.9865423804149,0.8878810405731115
2024-07-07 19:37:58.3230,0.085,-0.097,-0.755,0.72,-1.35,-1.87,49.2788580831091,-122.91037278728943,358.9865423804149,0.8878810405731115
2024-07-07 19:37:58.3330,0.083,-0.109,-0.718,0.73,-1.23,-2.26,49.2788580831091,-122.91037278728943,358.9865423804149,0.8878810405731115
2024-07-07 19:37:58.3440,0.084,-0.122,-0.684,0.7,-1.1,-2.6,49.2788580831091,-122.91037278728943,358.9865423804149,0.8878810405731115
2024-07-07 19:37:58.3540,0.087,-0.141,-0.657,0.68,-0.94,-2.91,49.2788580831091,-122.91037278728943,358.9865423804149,0.8878810405731115
2024-07-07 19:37:58.3640,0.094,-0.155,-0.645,0.61,-0.76,-3.08,49.2788580831091,-122.91037278728943,358.9865423804149,0.8878810405731115
2024-07-07 19:37:58.3740,0.103,-0.164,-0.646,0.52,-0.65,-3.12,49.2788580831091,-122.91037278728943,358.9865423804149,0.8878810405731115
2024-07-07 19:37:58.3840,0.107,-0.169,-0.651,0.46,-0.58,-3.07,49.2788580831091,-122.91037278728943,358.9865423804149,0.8878810405731115
2024-07-07 19:37:58.3940,0.114,-0.178,-0.652,0.42,-0.51,-3.05,49.2788580831091,-122.91037278728943,358.9865423804149,0.8878810405731115
2024-07-07 19:37:58.4040,0.122,-0.187,-0.662,0.32,-0.41,-3.0,49.2788580831091,-122.91037278728943,358.9865423804149,0.8878810405731115
2024-07-07 19:37:58.4140,0.131,-0.192,-0.683,0.26,-0.34,-2.81,49.2788580831091,-122.91037278728943,358.9865423804149,0.8878810405731115
2024-07-07 19:37:58.4240,0.144,-0.195,-0.7,0.15,-0.32,-2.63,49.2788580831091,-122.91037278728943,358.9865423804149,0.8878810405731115
2024-07-07 19:37:58.4340,0.152,-0.203,-0.715,0.06,-0.28,-2.48,49.2788580831091,-122.91037278728943,358.9865423804149,0.8878810405731115
2024-07-07 19:37:58.4440,0.159,-0.218,-0.727,0.0,-0.16,-2.34,49.2788580831091,-122.91037278728943,358.9865423804149,0.8878810405731115
2024-07-07 19:37:58.4540,0.167,-0.235,-0.738,-0.05,0.0,-2.22,49.2788580831091,-122.91037278728943,358.9865423804149,0.8878810405731115
2024-07-07 19:37:58.4640,0.181,-0.249,-0.744,-0.17,0.13,-2.16,49.2788580831091,-122.91037278728943,358.9865423804149,0.8878810405731115
2024-07-07 19:37:58.4750,0.189,-0.261,-0.757,-0.26,0.25,-2.05,49.2788580831091,-122.91037278728943,358.9865423804149,0.8878810405731115
2024-07-07 19:37:58.4850,0.199,-0.271,-0.774,-0.33,0.34,-1.89,49.2788580831091,-122.91037278728943,358.9865423804149,0.8878810405731115
2024-07-07 19:37:58.4950,0.21,-0.28,-0.79,-0.44,0.42,-1.71,49.2788580831091,-122.91037278728943,358.9865423804149,0.8878810405731115
2024-07-07 19:37:58.5050,0.217,-0.288,-0.794,-0.52,0.47,-1.62,49.2788580831091,-122.91037278728943,358.9865423804149,0.8878810405731115
2024-07-07 19:37:58.5150,0.213,-0.296,-0.8,-0.51,0.53,-1.58,49.2788580831091,-122.91037278728943,358.9865423804149,0.8878810405731115
2024-07-07 19:37:58.5250,0.203,-0.306,-0.814,-0.43,0.61,-1.46,49.2788580831091,-122.91037278728943,358.9865423804149,0.8878810405731115
2024-07-07 19:37:58.5350,0.188,-0.315,-0.829,-0.29,0.68,-1.3,49.2788580831091,-122.91037278728943,358.9865423804149,0.8878810405731115
2024-07-07 19:37:58.5450,0.168,-0.317,-0.839,-0.09,0.72,-1.19,49.2788580831091,-122.91037278728943,358.9865423804149,0.8878810405731115
2024-07-07 19:37:58.5550,0.155,-0.311,-0.86,0.08,0.66,-1.04,49.2788580831091,-122.91037278728943,358.9865423804149,0.8878810405731115
2024-07-07 19:37:58.5660,0.147,-0.315,-0.895,0.19,0.66,-0.73,49.2788580831091,-122.91037278728943,358.9865423804149,0.8878810405731115
2024-07-07 19:37:58.5750,0.141,-0.326,-0.95,0.28,0.74,-0.27,49.2788580831091,-122.91037278728943,358.9865423804149,0.8878810405731115
2024-07-07 19:37:58.5860,0.138,-0.345,-1.012,0.34,0.9,0.34,49.2788580831091,-122.91037278728943,358.9865423804149,0.8878810405731115
2024-07-07 19:37:58.5950,0.141,-0.371,-1.073,0.36,1.14,0.94,49.2788580831091,-122.91037278728943,358.9865423804149,0.8878810405731115
2024-07-07 19:37:58.6050,0.153,-0.392,-1.137,0.29,1.41,1.54,49.2788580831091,-122.91037278728943,358.9865423804149,0.8878810405731115
2024-07-07 19:37:58.6150,0.172,-0.4,-1.207,0.14,1.57,2.21,49.2788580831091,-122.91037278728943,358.9865423804149,0.8878810405731115
2024-07-07 19:37:58.6250,0.195,-0.396,-1.278,-0.07,1.64,2.89,49.2788580831091,-122.91037278728943,358.9865423804149,0.8878810405731115
2024-07-07 19:37:58.6360,0.216,-0.367,-1.353,-0.3,1.51,3.6,49.2788580831091,-122.91037278728943,358.9865423804149,0.8878810405731115
2024-07-07 19:37:58.6460,0.226,-0.334,-1.404,-0.44,1.24,4.22,49.2788580831091,-122.91037278728943,358.9865423804149,0.8878810405731115
2024-07-07 19:37:58.6560,0.237,-0.307,-1.409,-0.55,1.05,4.42,49.2788580831091,-122.91037278728943,358.9865423804149,0.8878810405731115
2024-07-07 19:37:58.6660,0.257,-0.266,-1.384,-0.75,0.78,4.22,49.2788580831091,-122.91037278728943,358.9865423804149,0.8878810405731115
2024-07-07 19:37:58.6760,0.279,-0.216,-1.37,-0.99,0.38,3.98,49.2788580831091,-122.91037278728943,358.9865423804149,0.8878810405731115
2024-07-07 19:37:58.6860,0.3,-0.177,-1.384,-1.23,0.03,4.0,49.2788580831091,-122.91037278728943,358.9865423804149,0.8878810405731115
2024-07-07 19:37:58.6960,0.313,-0.149,-1.402,-1.4,-0.21,4.19,49.2788580831091,-122.91037278728943,358.9865423804149,0.8878810405731115
2024-07-07 19:37:58.7060,0.328,-0.126,-1.405,-1.57,-0.38,4.26,49.2788580831091,-122.91037278728943,358.9865423804149,0.8878810405731115
2024-07-07 19:37:58.7160,0.338,-0.104,-1.38,-1.74,-0.57,4.13,49.2788580831091,-122.91037278728943,358.9865423804149,0.8878810405731115
2024-07-07 19:37:58.7260,0.337,-0.085,-1.324,-1.8,-0.75,3.67,49.2788580831091,-122.91037278728943,358.9865423804149,0.8878810405731115
2024-07-07 19:37:58.7360,0.332,-0.074,-1.243,-1.8,-0.88,2.95,49.2788580831091,-122.91037278728943,358.9865423804149,0.8878810405731115
2024-07-07 19:37:58.7460,0.33,-0.073,-1.148,-1.81,-0.94,2.04,49.2788580831091,-122.91037278728943,358.9865423804149,0.8878810405731115
2024-07-07 19:37:58.7570,0.327,-0.081,-1.062,-1.81,-0.91,1.15,49.2788580831091,-122.91037278728943,358.9865423804149,0.8878810405731115
2024-07-07 19:37:58.7670,0.323,-0.094,-0.986,-1.79,-0.84,0.38,49.2788580831091,-122.91037278728943,358.9865423804149,0.8878810405731115
2024-07-07 19:37:58.7770,0.32,-0.111,-0.926,-1.76,-0.71,-0.27,49.2788580831091,-122.91037278728943,358.9865423804149,0.8878810405731115
2024-07-07 19:37:58.7870,0.317,-0.119,-0.881,-1.72,-0.64,-0.75,49.2788580831091,-122.91037278728943,358.9865423804149,0.8878810405731115
2024-07-07 19:37:58.7970,0.314,-0.117,-0.836,-1.68,-0.67,-1.15,49.2788580831091,-122.91037278728943,358.9865423804149,0.8878810405731115
2024-07-07 19:37:58.8070,0.308,-0.118,-0.784,-1.62,-0.73,-1.65,49.2788580831091,-122.91037278728943,358.9865423804149,0.8878810405731115
2024-07-07 19:37:58.8170,0.296,-0.13,-0.742,-1.5,-0.7,-2.1,49.2788580831091,-122.91037278728943,358.9865423804149,0.8878810405731115
2024-07-07 19:37:58.8270,0.286,-0.143,-0.707,-1.36,-0.59,-2.45,49.2788580831091,-122.91037278728943,358.9865423804149,0.8878810405731115
2024-07-07 19:37:58.8370,0.274,-0.153,-0.68,-1.23,-0.51,-2.74,49.2788580831091,-122.91037278728943,358.9865423804149,0.8878810405731115
2024-07-07 19:37:58.8470,0.26,-0.158,-0.663,-1.08,-0.46,-2.92,49.2788580831091,-122.91037278728943,358.9865423804149,0.8878810405731115
2024-07-07 19:37:58.8570,0.239,-0.16,-0.643,-0.89,-0.44,-3.1,49.2788580831091,-122.91037278728943,358.9865423804149,0.8878810405731115
2024-07-07 19:37:58.8670,0.203,-0.152,-0.637,-0.57,-0.46,-3.23,49.2788580831091,-122.91037278728943,358.9865423804149,0.8878810405731115
2024-07-07 19:37:58.8780,0.171,-0.135,-0.647,-0.21,-0.58,-3.19,49.2788580831091,-122.91037278728943,358.9865423804149,0.8878810405731115
2024-07-07 19:37:58.8880,0.142,-0.114,-0.677,0.08,-0.74,-3.0,49.2788580831091,-122.91037278728943,358.9865423804149,0.8878810405731115
2024-07-07 19:37:58.8980,0.12,-0.093,-0.726,0.33,-0.9,-2.55,49.2788580831091,-122.91037278728943,358.9865423804149,0.8878810405731115
2024-07-07 19:37:58.9080,0.108,-0.081,-0.76,0.43,-1.01,-2.17,49.2788580831091,-122.91037278728943,358.9865423804149,0.8878810405731115
2024-07-07 19:37:58.9180,0.086,-0.08,-0.779,0.56,-0.99,-1.94,49.2788580831091,-122.91037278728943,358.9865423804149,0.8878810405731115
2024-07-07 19:37:58.9280,0.059,-0.084,-0.772,0.75,-0.93,-1.92,49.2788580831091,-122.91037278728943,358.9865423804149,0.8878810405731115
2024-07-07 19:37:58.9380,0.019,-0.106,-0.741,1.02,-0.73,-2.18,49.2788580831091,-122.91037278728943,358.9865423804149,0.8878810405731115
2024-07-07 19:37:58.9480,-0.022,-0.137,-0.706,1.36,-0.38,-2.56,49.2788580831091,-122.91037278728943,358.9865423804149,0.8878810405731115
2024-07-07 19:37:58.9580,-0.056,-0.16,-0.689,1.64,-0.05,-2.82,49.2788580831091,-122.91037278728943,358.9865423804149,0.8878810405731115
2024-07-07 19:37:58.9680,-0.089,-0.174,-0.69,1.88,0.17,-2.88,49.2788580831091,-122.91037278728943,358.9865423804149,0.8878810405731115
2024-07-07 19:37:58.9780,-0.129,-0.195,-0.695,2.17,0.4,-2.85,49.2788580831091,-122.91037278728943,358.9865423804149,0.8878810405731115
2024-07-07 19:37:58.9880,-0.164,-0.222,-0.701,2.48,0.73,-2.81,49.2788580831091,-122.91037278728943,358.9865423804149,0.8878810405731115
2024-07-07 19:37:58.9990,-0.183,-0.24,-0.713,2.66,1.03,-2.76,49.2788580831091,-122.91037278728943,358.9865423804149,0.8878810405731115
2024-07-07 19:37:59.0080,-0.192,-0.25,-0.738,2.72,1.22,-2.56,49.2788580831091,-122.91037278728943,358.9865423804149,0.8878810405731115
2024-07-07 19:37:59.0190,-0.197,-0.26,-0.761,2.71,1.38,-2.33,49.2788580831091,-122.91037278728943,358.9865423804149,0.8878810405731115
2024-07-07 19:37:59.0290,-0.204,-0.269,-0.778,2.71,1.53,-2.15,49.2788580831091,-122.91037278728943,358.9865423804149,0.8878810405731115
2024-07-07 19:37:59.0390,-0.21,-0.271,-0.789,2.73,1.63,-2.04,49.2788580831091,-122.91037278728943,358.9865423804149,0.8878810405731115
2024-07-07 19:37:59.0490,-0.217,-0.27,-0.798,2.75,1.66,-1.95,49.2788580831091,-122.91037278728943,358.9865423804149,0.8878810405731115
2024-07-07 19:37:59.0590,-0.226,-0.267,-0.809,2.81,1.66,-1.85,49.2788580831091,-122.91037278728943,358.9865423804149,0.8878810405731115
2024-07-07 19:37:59.0690,-0.226,-0.264,-0.826,2.83,1.65,-1.74,49.2788580831091,-122.91037278728943,358.9865423804149,0.8878810405731115
2024-07-07 19:37:59.0790,-0.22,-0.262,-0.865,2.78,1.63,-1.43,49.2788580831091,-122.91037278728943,358.9865423804149,0.8878810405731115
2024-07-07 19:37:59.0890,-0.208,-0.264,-0.912,2.67,1.65,-0.98,49.2788580831091,-122.91037278728943,358.9865423804149,0.8878810405731115
2024-07-07 19:37:59.0990,-0.188,-0.266,-0.956,2.49,1.67,-0.53,49.2788580831091,-122.91037278728943,358.9865423804149,0.8878810405731115
2024-07-07 19:37:59.1090,-0.161,-0.268,-0.991,2.25,1.67,-0.14,49.2788580831091,-122.91037278728943,358.9865423804149,0.8878810405731115
2024-07-07 19:37:59.1190,-0.125,-0.27,-1.017,1.91,1.67,0.13,49.2788580831091,-122.91037278728943,358.9865423804149,0.8878810405731115
2024-07-07 19:37:59.1290,-0.093,-0.278,-1.039,1.55,1.69,0.36,49.2788580831091,-122.91037278728943,358.9865423804149,0.8878810405731115
2024-07-07 19:37:59.1400,-0.068,-0.292,-1.064,1.27,1.77,0.6,49.2788580831091,-122.91037278728943,358.9865423804149,0.8878810405731115
2024-07-07 19:37:59.1500,-0.047,-0.309,-1.086,1.03,1.89,0.83,49.2788580831091,-122.91037278728943,358.9865423804149,0.8878810405731115
2024-07-07 19:37:59.1600,-0.032,-0.318,-1.127,0.89,1.99,1.14,49.2788580831091,-122.91037278728943,358.9865423804149,0.8878810405731115
2024-07-07 19:37:59.1700,-0.012,-0.3,-1.192,0.71,1.87,1.69,49.278853539294815,-122.91037611718662,358.98845962435007,0.9676909446716196
2024-07-07 19:37:59.1800,0.001,-0.272,-1.271,0.56,1.58,2.46,49.278853539294815,-122.91037611718662,358.98845962435007,0.9676909446716196
2024-07-07 19:37:59.1900,0.015,-0.246,-1.335,0.43,1.28,3.16,49.278853539294815,-122.91037611718662,358.98845962435007,0.9676909446716196
2024-07-07 19:37:59.2000,0.035,-0.231,-1.374,0.26,1.05,3.64,49.278853539294815,-122.91037611718662,358.98845962435007,0.9676909446716196
2024-07-07 19:37:59.2100,0.057,-0.234,-1.4,0.02,0.99,3.93,49.278853539294815,-122.91037611718662,358.98845962435007,0.9676909446716196
2024-07-07 19:37:59.2200,0.063,-0.253,-1.417,-0.12,1.12,4.12,49.278853539294815,-122.91037611718662,358.98845962435007,0.9676909446716196
2024-07-07 19:37:59.2300,0.065,-0.268,-1.441,-0.12,1.34,4.32,49.278853539294815,-122.91037611718662,358.98845962435007,0.9676909446716196
2024-07-07 19:37:59.2400,0.075,-0.237,-1.471,-0.21,1.26,4.58,49.278853539294815,-122.91037611718662,358.98845962435007,0.9676909446716196
2024-07-07 19:37:59.2500,0.079,-0.15,-1.519,-0.29,0.63,4.98,49.278853539294815,-122.91037611718662,358.98845962435007,0.9676909446716196
2024-07-07 19:37:59.2600,0.087,-0.048,-1.569,-0.35,-0.3,5.49,49.278853539294815,-122.91037611718662,358.98845962435007,0.9676909446716196
2024-07-07 19:37:59.2710,0.094,0.037,-1.594,-0.46,-1.16,5.84,49.278853539294815,-122.91037611718662,358.98845962435007,0.9676909446716196
2024-07-07 19:37:59.2810,0.089,0.102,-1.569,-0.48,-1.82,5.81,49.278853539294815,-122.91037611718662,358.98845962435007,0.9676909446716196
2024-07-07 19:37:59.2910,0.084,0.134,-1.496,-0.46,-2.22,5.21,49.278853539294815,-122.91037611718662,358.98845962435007,0.9676909446716196
2024-07-07 19:37:59.3010,0.065,0.142,-1.411,-0.36,-2.35,4.4,49.278853539294815,-122.91037611718662,358.98845962435007,0.9676909446716196
2024-07-07 19:37:59.3110,0.045,0.131,-1.315,-0.16,-2.29,3.5,49.278853539294815,-122.91037611718662,358.98845962435007,0.9676909446716196
2024-07-07 19:37:59.3210,0.033,0.113,-1.227,-0.01,-2.11,2.55,49.278853539294815,-122.91037611718662,358.98845962435007,0.9676909446716196
2024-07-07 19:37:59.3310,0.028,0.097,-1.187,0.09,-1.92,1.97,49.278853539294815,-122.91037611718662,358.98845962435007,0.9676909446716196
2024-07-07 19:37:59.3410,0.039,0.091,-1.164,0.07,-1.81,1.75,49.278853539294815,-122.91037611718662,358.98845962435007,0.9676909446716196
2024-07-07 19:37:59.3510,0.055,0.085,-1.14,-0.06,-1.73,1.5,49.278853539294815,-122.91037611718662,358.98845962435007,0.9676909446716196
2024-07-07 19:37:59.3610,0.066,0.076,-1.113,-0.14,-1.6,1.26,49.278853539294815,-122.91037611718662,358.98845962435007,0.9676909446716196
2024-07-07 19:37:59.3710,0.074,0.077,-1.081,-0.19,-1.53,0.95,49.278853539294815,-122.91037611718662,358.98845962435007,0.9676909446716196
2024-07-07 19:37:59.3810,0.075,0.086,-1.054,-0.18,-1.56,0.65,49.278853539294815,-122.91037611718662,358.98845962435007,0.9676909446716196
2024-07-07 19:37:59.3910,0.08,0.103,-1.03,-0.18,-1.68,0.44,49.278853539294815,-122.91037611718662,358.98845962435007,0.9676909446716196
2024-07-07 19:37:59.4010,0.084,0.113,-0.996,-0.21,-1.8,0.14,49.278853539294815,-122.91037611718662,358.98845962435007,0.9676909446716196
2024-07-07 19:37:59.4110,0.084,0.116,-0.949,-0.21,-1.85,-0.26,49.278853539294815,-122.91037611718662,358.98845962435007,0.9676909446716196
2024-07-07 19:37:59.4220,0.077,0.111,-0.89,-0.16,-1.84,-0.82,49.278853539294815,-122.91037611718662,358.98845962435007,0.9676909446716196
2024-07-07 19:37:59.4320,0.068,0.109,-0.831,-0.07,-1.81,-1.4,49.278853539294815,-122.91037611718662,358.98845962435007,0.9676909446716196
2024-07-07 19:37:59.4420,0.061,0.104,-0.777,0.01,-1.82,-1.95,49.278853539294815,-122.91037611718662,358.98845962435007,0.9676909446716196
2024-07-07 19:37:59.4520,0.055,0.09,-0.733,0.07,-1.75,-2.42,49.278853539294815,-122.91037611718662,358.98845962435007,0.9676909446716196
2024-07-07 19:37:59.4620,0.055,0.071,-0.694,0.09,-1.61,-2.81,49.278853539294815,-122.91037611718662,358.98845962435007,0.9676909446716196
2024-07-07 19:37:59.4720,0.06,0.051,-0.653,0.06,-1.46,-3.19,49.278853539294815,-122.91037611718662,358.98845962435007,0.9676909446716196
2024-07-07 19:37:59.4820,0.067,0.03,-0.622,0.0,-1.31,-3.56,49.278853539294815,-122.91037611718662,358.98845962435007,0.9676909446716196
2024-07-07 19:37:59.4920,0.078,-0.001,-0.607,-0.09,-1.1,-3.75,49.278853539294815,-122.91037611718662,358.98845962435007,0.9676909446716196
2024-07-07 19:37:59.5020,0.084,-0.027,-0.595,-0.17,-0.85,-3.86,49.278853539294815,-122.91037611718662,358.98845962435007,0.9676909446716196
2024-07-07 19:37:59.5120,0.083,-0.044,-0.594,-0.17,-0.71,-3.93,49.278853539294815,-122.91037611718662,358.98845962435007,0.9676909446716196
2024-07-07 19:37:59.5220,0.085,-0.05,-0.609,-0.16,-0.65,-3.81,49.278853539294815,-122.91037611718662,358.98845962435007,0.9676909446716196
2024-07-07 19:37:59.5320,0.087,-0.056,-0.62,-0.17,-0.67,-3.67,49.278853539294815,-122.91037611718662,358.98845962435007,0.9676909446716196
2024-07-07 19:37:59.5420,0.085,-0.069,-0.625,-0.15,-0.6,-3.6,49.278853539294815,-122.91037611718662,358.98845962435007,0.9676909446716196
2024-07-07 19:37:59.5530,0.088,-0.078,-0.634,-0.12,-0.53,-3.52,49.278853539294815,-122.91037611718662,358.98845962435007,0.9676909446716196
2024-07-07 19:37:59.5630,0.096,-0.089,-0.647,-0.18,-0.5,-3.41,49.278853539294815,-122.91037611718662,358.98845962435007,0.9676909446716196
2024-07-07 19:37:59.5730,0.106,-0.105,-0.667,-0.25,-0.4,-3.23,49.278853539294815,-122.91037611718662,358.98845962435007,0.9676909446716196
2024-07-07 19:37:59.5830,0.117,-0.117,-0.702,-0.34,-0.3,-2.94,49.278853539294815,-122.91037611718662,358.98845962435007,0.9676909446716196
2024-07-07 19:37:59.5930,0.128,-0.115,-0.739,-0.42,-0.32,-2.54,49.278853539294815,-122.91037611718662,358.98845962435007,0.9676909446716196
2024-07-07 19:37:59.6030,0.135,-0.114,-0.759,-0.52,-0.4,-2.29,49.278853539294815,-122.91037611718662,358.98845962435007,0.9676909446716196
2024-07-07 19:37:59.6130,0.13,-0.125,-0.777,-0.5,-0.36,-2.1,49.278853539294815,-122.91037611718662,358.98845962435007,0.9676909446716196
2024-07-07 19:37:59.6230,0.127,-0.135,-0.78,-0.46,-0.3,-2.0,49.278853539294815,-122.91037611718662,358.98845962435007,0.9676909446716196
2024-07-07 19:37:59.6330,0.126,-0.149,-0.768,-0.45,-0.23,-2.05,49.278853539294815,-122.91037611718662,358.98845962435007,0.9676909446716196
2024-07-07 19:37:59.6430,0.123,-0.176,-0.757,-0.44,-0.04,-2.2,49.278853539294815,-122.91037611718662,358.98845962435007,0.9676909446716196
2024-07-07 19:37:59.6540,0.125,-0.197,-0.764,-0.44,0.18,-2.19,49.278853539294815,-122.91037611718662,358.98845962435007,0.9676909446716196
2024-07-07 19:37:59.6630,0.129,-0.213,-0.786,-0.48,0.33,-2.02,49.278853539294815,-122.91037611718662,358.98845962435007,0.9676909446716196
2024-07-07 19:37:59.6730,0.133,-0.228,-0.815,-0.53,0.47,-1.75,49.278853539294815,-122.91037611718662,358.98845962435007,0.9676909446716196
2024-07-07 19:37:59.6830,0.133,-0.238,-0.846,-0.55,0.6,-1.47,49.278853539294815,-122.91037611718662,358.98845962435007,0.9676909446716196
2024-07-07 19:37:59.6940,0.13,-0.245,-0.885,-0.52,0.67,-1.11,49.278853539294815,-122.91037611718662,358.98845962435007,0.9676909446716196
2024-07-07 19:37:59.7040,0.124,-0.247,-0.932,-0.49,0.73,-0.67,49.278853539294815,-122.91037611718662,358.98845962435007,0.9676909446716196
2024-07-07 19:37:59.7140,0.11,-0.24,-0.967,-0.4,0.71,-0.27,49.278853539294815,-122.91037611718662,358.98845962435007,0.9676909446716196
2024-07-07 19:37:59.7240,0.089,-0.234,-0.991,-0.22,0.65,-0.02,49.278853539294815,-122.91037611718662,358.98845962435007,0.9676909446716196
2024-07-07 19:37:59.7340,0.068,-0.235,-1.014,-0.03,0.66,0.23,49.278853539294815,-122.91037611718662,358.98845962435007,0.9676909446716196
2024-07-07 19:37:59.7440,0.051,-0.246,-1.031,0.13,0.76,0.39,49.278853539294815,-122.91037611718662,358.98845962435007,0.9676909446716196
2024-07-07 19:37:59.7540,0.046,-0.261,-1.047,0.22,0.93,0.56,49.278853539294815,-122.91037611718662,358.98845962435007,0.9676909446716196
2024-07-07 19:37:59.7640,0.054,-0.286,-1.052,0.17,1.15,0.66,49.278853539294815,-122.91037611718662,358.98845962435007,0.9676909446716196
2024-07-07 19:37:59.7740,0.068,-0.326,-1.053,0.05,1.5,0.63,49.278853539294815,-122.91037611718662,358.98845962435007,0.9676909446716196
2024-07-07 19:37:59.7840,0.102,-0.372,-1.077,-0.19,1.97,0.78,49.278853539294815,-122.91037611718662,358.98845962435007,0.9676909446716196
2024-07-07 19:37:59.7940,0.148,-0.43,-1.12,-0.62,2.51,1.13,49.278853539294815,-122.91037611718662,358.98845962435007,0.9676909446716196
2024-07-07 19:37:59.8040,0.18,-0.498,-1.161,-1.01,3.2,1.56,49.278853539294815,-122.91037611718662,358.98845962435007,0.9676909446716196
2024-07-07 19:37:59.8140,0.193,-0.556,-1.195,-1.17,3.91,1.89,49.278853539294815,-122.91037611718662,358.98845962435007,0.9676909446716196
2024-07-07 19:37:59.8250,0.202,-0.549,-1.243,-1.25,4.23,2.27,49.278853539294815,-122.91037611718662,358.98845962435007,0.9676909446716196
2024-07-07 19:37:59.8350,0.192,-0.479,-1.344,-1.25,3.85,3.02,49.278853539294815,-122.91037611718662,358.98845962435007,0.9676909446716196
2024-07-07 19:37:59.8450,0.163,-0.358,-1.511,-0.97,3.02,4.4,49.278853539294815,-122.91037611718662,358.98845962435007,0.9676909446716196
2024-07-07 19:37:59.8550,0.176,-0.189,-1.686,-0.93,1.66,6.21,49.278853539294815,-122.91037611718662,358.98845962435007,0.9676909446716196
2024-07-07 19:37:59.8650,0.201,-0.036,-1.774,-1.28,0.19,7.43,49.278853539294815,-122.91037611718662,358.98845962435007,0.9676909446716196
2024-07-07 19:37:59.8750,0.191,0.051,-1.753,-1.42,-0.77,7.61,49.278853539294815,-122.91037611718662,358.98845962435007,0.9676909446716196
2024-07-07 19:37:59.8850,0.164,0.085,-1.651,-1.32,-1.1,6.82,49.278853539294815,-122.91037611718662,358.98845962435007,0.9676909446716196
2024-07-07 19:37:59.8950,0.141,0.109,-1.523,-1.2,-1.21,5.62,49.278853539294815,-122.91037611718662,358.98845962435007,0.9676909446716196
2024-07-07 19:37:59.9050,0.129,0.135,-1.397,-1.17,-1.36,4.35,49.278853539294815,-122.91037611718662,358.98845962435007,0.9676909446716196
2024-07-07 19:37:59.9150,0.12,0.153,-1.267,-1.18,-1.5,3.09,49.278853539294815,-122.91037611718662,358.98845962435007,0.9676909446716196
2024-07-07 19:37:59.9250,0.111,0.175,-1.163,-1.16,-1.65,1.93,49.278853539294815,-122.91037611718662,358.98845962435007,0.9676909446716196
2024-07-07 19:37:59.9350,0.108,0.204,-1.085,-1.14,-1.93,1.09,49.278853539294815,-122.91037611718662,358.98845962435007,0.9676909446716196
2024-07-07 19:37:59.9460,0.112,0.221,-1.023,-1.17,-2.2,0.41,49.278853539294815,-122.91037611718662,358.98845962435007,0.9676909446716196
2024-07-07 19:37:59.9560,0.116,0.218,-0.997,-1.18,-2.28,0.03,49.278853539294815,-122.91037611718662,358.98845962435007,0.9676909446716196
2024-07-07 19:37:59.9660,0.125,0.209,-0.98,-1.23,-2.27,-0.13,49.278853539294815,-122.91037611718662,358.98845962435007,0.9676909446716196
2024-07-07 19:37:59.9760,0.128,0.198,-0.959,-1.26,-2.23,-0.32,49.278853539294815,-122.91037611718662,358.98845962435007,0.9676909446716196
2024-07-07 19:37:59.9860,0.127,0.186,-0.923,-1.24,-2.2,-0.6,49.278853539294815,-122.91037611718662,358.98845962435007,0.9676909446716196
2024-07-07 19:37:59.9960,0.113,0.169,-0.877,-1.13,-2.13,-1.04,49.278853539294815,-122.91037611718662,358.98845962435007,0.9676909446716196
2024-07-07 19:38:00.0060,0.098,0.151,-0.831,-0.96,-2.02,-1.47,49.278853539294815,-122.91037611718662,358.98845962435007,0.9676909446716196
2024-07-07 19:38:00.0160,0.088,0.124,-0.776,-0.84,-1.89,-1.99,49.278853539294815,-122.91037611718662,358.98845962435007,0.9676909446716196
2024-07-07 19:38:00.0260,0.073,0.084,-0.725,-0.72,-1.61,-2.5,49.278853539294815,-122.91037611718662,358.98845962435007,0.9676909446716196
2024-07-07 19:38:00.0360,0.059,0.045,-0.68,-0.57,-1.28,-2.96,49.278853539294815,-122.91037611718662,358.98845962435007,0.9676909446716196
2024-07-07 19:38:00.0470,0.048,0.011,-0.636,-0.45,-1.0,-3.39,49.278853539294815,-122.91037611718662,358.98845962435007,0.9676909446716196
2024-07-07 19:38:00.0560,0.033,-0.011,-0.608,-0.32,-0.8,-3.73,49.278853539294815,-122.91037611718662,358.98845962435007,0.9676909446716196
2024-07-07 19:38:00.0670,0.014,-0.024,-0.605,-0.15,-0.7,-3.85,49.278853539294815,-122.91037611718662,358.98845962435007,0.9676909446716196
2024-07-07 19:38:00.0770,-0.004,-0.031,-0.611,0.04,-0.66,-3.8,49.278853539294815,-122.91037611718662,358.98845962435007,0.9676909446716196
2024-07-07 19:38:00.0870,-0.02,-0.038,-0.613,0.21,-0.63,-3.76,49.278853539294815,-122.91037611718662,358.98845962435007,0.9676909446716196
2024-07-07 19:38:00.0970,-0.032,-0.045,-0.622,0.35,-0.59,-3.71,49.278853539294815,-122.91037611718662,358.98845962435007,0.9676909446716196
2024-07-07 19:38:00.1070,-0.041,-0.049,-0.645,0.44,-0.58,-3.53,49.278853539294815,-122.91037611718662,358.98845962435007,0.9676909446716196
2024-07-07 19:38:00.1170,-0.05,-0.062,-0.663,0.52,-0.51,-3.3,49.278853539294815,-122.91037611718662,358.98845962435007,0.9676909446716196
2024-07-07 19:38:00.1270,-0.054,-0.077,-0.675,0.58,-0.39,-3.18,49.278853539294815,-122.91037611718662,358.98845962435007,0.9676909446716196
2024-07-07 19:38:00.1370,-0.057,-0.098,-0.682,0.59,-0.23,-3.08,49.278853539294815,-122.91037611718662,358.98845962435007,0.9676909446716196
2024-07-07 19:38:00.1470,-0.062,-0.122,-0.685,0.62,-0.02,-3.04,49.278853539294815,-122.91037611718662,358.98845962435007,0.9676909446716196
2024-07-07 19:38:00.1570,-0.07,-0.142,-0.685,0.66,0.18,-3.02,49.278853539294815,-122.91037611718662,358.98845962435007,0.9676909446716196
2024-07-07 19:38:00.1680,-0.083,-0.151,-0.687,0.75,0.29,-3.02,49.27884318992419,-122.91037559644188,358.9534076517448,1.0248936414718497
2024-07-07 19:38:00.1770,-0.095,-0.155,-0.689,0.86,0.33,-2.99,49.27884318992419,-122.91037559644188,358.9534076517448,1.0248936414718497
2024-07-07 19:38:00.1870,-0.103,-0.166,-0.691,0.94,0.38,-2.97,49.27884318992419,-122.91037559644188,358.9534076517448,1.0248936414718497
2024-07-07 19:38:00.1980,-0.108,-0.183,-0.7,0.99,0.53,-2.93,49.27884318992419,-122.91037559644188,358.9534076517448,1.0248936414718497
2024-07-07 19:38:00.2080,-0.105,-0.199,-0.726,0.98,0.69,-2.74,49.27884318992419,-122.91037559644188,358.9534076517448,1.0248936414718497
2024-07-07 19:38:00.2180,-0.101,-0.208,-0.758,0.92,0.78,-2.43,49.27884318992419,-122.91037559644188,358.9534076517448,1.0248936414718497
2024-07-07 19:38:00.2280,-0.099,-0.216,-0.793,0.9,0.85,-2.09,49.27884318992419,-122.91037559644188,358.9534076517448,1.0248936414718497
2024-07-07 19:38:00.2380,-0.101,-0.222,-0.821,0.87,0.91,-1.77,49.27884318992419,-122.91037559644188,358.9534076517448,1.0248936414718497
2024-07-07 19:38:00.2490,-0.116,-0.226,-0.835,0.95,0.94,-1.59,49.27884318992419,-122.91037559644188,358.9534076517448,1.0248936414718497
2024-07-07 19:38:00.2590,-0.134,-0.23,-0.859,1.11,0.98,-1.4,49.27884318992419,-122.91037559644188,358.9534076517448,1.0248936414718497
2024-07-07 19:38:00.2680,-0.146,-0.236,-0.881,1.23,1.03,-1.17,49.27884318992419,-122.91037559644188,358.9534076517448,1.0248936414718497
2024-07-07 19:38:00.2780,-0.149,-0.242,-0.906,1.26,1.08,-0.94,49.27884318992419,-122.91037559644188,358.9534076517448,1.0248936414718497
2024-07-07 19:38:00.2880,-0.15,-0.249,-0.938,1.25,1.16,-0.66,49.27884318992419,-122.91037559644188,358.9534076517448,1.0248936414718497
2024-07-07 19:38:00.2980,-0.15,-0.258,-0.978,1.22,1.25,-0.31,49.27884318992419,-122.91037559644188,358.9534076517448,1.0248936414718497
2024-07-07 19:38:00.3080,-0.149,-0.254,-1.033,1.22,1.28,0.19,49.27884318992419,-122.91037559644188,358.9534076517448,1.0248936414718497
2024-07-07 19:38:00.3180,-0.133,-0.24,-1.093,1.1,1.15,0.76,49.27884318992419,-122.91037559644188,358.9534076517448,1.0248936414718497
2024-07-07 19:38:00.3280,-0.116,-0.235,-1.184,0.89,1.04,1.51,49.27884318992419,-122.91037559644188,358.9534076517448,1.0248936414718497
2024-07-07 19:38:00.3390,-0.109,-0.24,-1.288,0.77,1.03,2.55,49.27884318992419,-122.91037559644188,358.9534076517448,1.0248936414718497
2024-07-07 19:38:00.3490,-0.105,-0.248,-1.356,0.67,1.05,3.39,49.27884318992419,-122.91037559644188,358.9534076517448,1.0248936414718497
2024-07-07 19:38:00.3590,-0.126,-0.269,-1.379,0.69,1.12,3.78,49.27884318992419,-122.91037559644188,358.9534076517448,1.0248936414718497
2024-07-07 19:38:00.3690,-0.171,-0.309,-1.378,0.98,1.41,3.86,49.27884318992419,-122.91037559644188,358.9534076517448,1.0248936414718497
2024-07-07 19:38:00.3790,-0.221,-0.343,-1.329,1.37,1.75,3.61,49.27884318992419,-122.91037559644188,358.9534076517448,1.0248936414718497
2024-07-07 19:38:00.3890,-0.288,-0.364,-1.288,1.88,2.05,2.98,49.27884318992419,-122.91037559644188,358.9534076517448,1.0248936414718497
2024-07-07 19:38:00.3990,-0.334,-0.31,-1.349,2.44,1.95,3.26,49.27884318992419,-122.91037559644188,358.9534076517448,1.0248936414718497
2024-07-07 19:38:00.4090,-0.325,-0.173,-1.432,2.49,0.91,4.04,49.27884318992419,-122.91037559644188,358.9534076517448,1.0248936414718497
2024-07-07 19:38:00.4190,-0.3,-0.047,-1.509,2.23,-0.35,4.83,49.27884318992419,-122.91037559644188,358.9534076517448,1.0248936414718497
2024-07-07 19:38:00.4290,-0.273,0.021,-1.56,1.96,-1.14,5.45,49.27884318992419,-122.91037559644188,358.9534076517448,1.0248936414718497
2024-07-07 19:38:00.4390,-0.233,0.054,-1.574,1.61,-1.49,5.72,49.27884318992419,-122.91037559644188,358.9534076517448,1.0248936414718497
2024-07-07 19:38:00.4490,-0.192,0.06,-1.541,1.18,-1.68,5.57,49.27884318992419,-122.91037559644188,358.9534076517448,1.0248936414718497
2024-07-07 19:38:00.4590,-0.173,0.02,-1.462,0.92,-1.49,4.94,49.27884318992419,-122.91037559644188,358.9534076517448,1.0248936414718497
2024-07-07 19:38:00.4700,-0.167,-0.031,-1.373,0.88,-1.06,4.09,49.27884318992419,-122.91037559644188,358.9534076517448,1.0248936414718497
2024-07-07 19:38:00.4800,-0.165,-0.057,-1.289,0.92,-0.81,3.24,49.27884318992419,-122.91037559644188,358.9534076517448,1.0248936414718497
2024-07-07 19:38:00.4900,-0.154,-0.068,-1.233,0.95,-0.78,2.57,49.27884318992419,-122.91037559644188,358.9534076517448,1.0248936414718497
2024-07-07 19:38:00.5000,-0.13,-0.072,-1.21,0.86,-0.83,2.23,49.27884318992419,-122.91037559644188,358.9534076517448,1.0248936414718497
2024-07-07 19:38:00.5100,-0.09,-0.07,-1.218,0.65,-0.93,2.23,49.27884318992419,-122.91037559644188,358.9534076517448,1.0248936414718497
2024-07-07 19:38:00.5200,-0.046,-0.06,-1.226,0.32,-1.1,2.36,49.27884318992419,-122.91037559644188,358.9534076517448,1.0248936414718497
2024-07-07 19:38:00.5300,-0.007,-0.053,-1.21,0.0,-1.3,2.32,49.27884318992419,-122.91037559644188,358.9534076517448,1.0248936414718497
2024-07-07 19:38:00.5400,0.019,-0.063,-1.162,-0.21,-1.33,1.98,49.27884318992419,-122.91037559644188,358.9534076517448,1.0248936414718497
2024-07-07 19:38:00.5500,0.037,-0.074,-1.093,-0.39,-1.28,1.36,49.27884318992419,-122.91037559644188,358.9534076517448,1.0248936414718497
2024-07-07 19:38:00.5600,0.044,-0.079,-1.026,-0.45,-1.25,0.71,49.27884318992419,-122.91037559644188,358.9534076517448,1.0248936414718497
2024-07-07 19:38:00.5700,0.051,-0.079,-0.955,-0.48,-1.27,0.04,49.27884318992419,-122.91037559644188,358.9534076517448,1.0248936414718497
2024-07-07 19:38:00.5800,0.061,-0.08,-0.883,-0.59,-1.3,-0.67,49.27884318992419,-122.91037559644188,358.9534076517448,1.0248936414718497
2024-07-07 19:38:00.5910,0.062,-0.088,-0.816,-0.64,-1.25,-1.35,49.27884318992419,-122.91037559644188,358.9534076517448,1.0248936414718497
2024-07-07 19:38:00.6010,0.062,-0.089,-0.757,-0.65,-1.22,-1.94,49.27884318992419,-122.91037559644188,358.9534076517448,1.0248936414718497
2024-07-07 19:38:00.6120,0.063,-0.091,-0.697,-0.68,-1.23,-2.54,49.27884318992419,-122.91037559644188,358.9534076517448,1.0248936414718497
2024-07-07 19:38:00.6210,0.059,-0.099,-0.653,-0.67,-1.17,-3.04,49.27884318992419,-122.91037559644188,358.9534076517448,1.0248936414718497
2024-07-07 19:38:00.6310,0.06,-0.103,-0.621,-0.67,-1.13,-3.38,49.27884318992419,-122.91037559644188,358.9534076517448,1.0248936414718497
2024-07-07 19:38:00.6410,0.06,-0.107,-0.591,-0.68,-1.13,-3.67,49.27884318992419,-122.91037559644188,358.9534076517448,1.0248936414718497
2024-07-07 19:38:00.6510,0.056,-0.114,-0.564,-0.65,-1.11,-3.94,49.27884318992419,-122.91037559644188,358.9534076517448,1.0248936414718497
2024-07-07 19:38:00.6610,0.052,-0.121,-0.546,-0.58,-1.08,-4.14,49.27884318992419,-122.91037559644188,358.9534076517448,1.0248936414718497
2024-07-07 19:38:00.6710,0.052,-0.128,-0.535,-0.55,-1.06,-4.26,49.27884318992419,-122.91037559644188,358.9534076517448,1.0248936414718497
2024-07-07 19:38:00.6810,0.051,-0.137,-0.53,-0.51,-1.04,-4.32,49.27884318992419,-122.91037559644188,358.9534076517448,1.0248936414718497
2024-07-07 19:38:00.6910,0.051,-0.151,-0.531,-0.47,-0.97,-4.33,49.27884318992419,-122.91037559644188,358.9534076517448,1.0248936414718497
2024-07-07 19:38:00.7010,0.053,-0.17,-0.539,-0.43,-0.85,-4.25,49.27884318992419,-122.91037559644188,358.9534076517448,1.0248936414718497
2024-07-07 19:38:00.7110,0.057,-0.189,-0.551,-0.42,-0.7,-4.13,49.27884318992419,-122.91037559644188,358.9534076517448,1.0248936414718497
2024-07-07 19:38:00.7210,0.061,-0.203,-0.576,-0.41,-0.58,-3.94,49.27884318992419,-122.91037559644188,358.9534076517448,1.0248936414718497
2024-07-07 19:38:00.7320,0.066,-0.215,-0.611,-0.4,-0.49,-3.61,49.27884318992419,-122.91037559644188,358.9534076517448,1.0248936414718497
2024-07-07 19:38:00.7420,0.071,-0.226,-0.642,-0.39,-0.4,-3.28,49.27884318992419,-122.91037559644188,358.9534076517448,1.0248936414718497
2024-07-07 19:38:00.7520,0.08,-0.233,-0.674,-0.44,-0.33,-2.96,49.27884318992419,-122.91037559644188,358.9534076517448,1.0248936414718497
2024-07-07 19:38:00.7620,0.085,-0.24,-0.7,-0.48,-0.29,-2.67,49.27884318992419,-122.91037559644188,358.9534076517448,1.0248936414718497
2024-07-07 19:38:00.7720,0.086,-0.256,-0.711,-0.48,-0.17,-2.5,49.27884318992419,-122.91037559644188,358.9534076517448,1.0248936414718497
2024-07-07 19:38:00.7820,0.086,-0.279,-0.713,-0.47,0.02,-2.45,49.27884318992419,-122.91037559644188,358.9534076517448,1.0248936414718497
2024-07-07 19:38:00.7920,0.085,-0.302,-0.708,-0.44,0.25,-2.48,49.27884318992419,-122.91037559644188,358.9534076517448,1.0248936414718497
2024-07-07 19:38:00.8020,0.083,-0.323,-0.712,-0.41,0.46,-2.49,49.27884318992419,-122.91037559644188,358.9534076517448,1.0248936414718497
2024-07-07 19:38:00.8120,0.082,-0.335,-0.731,-0.38,0.62,-2.36,49.27884318992419,-122.91037559644188,358.9534076517448,1.0248936414718497
2024-07-07 19:38:00.8220,0.078,-0.338,-0.765,-0.34,0.69,-2.09,49.27884318992419,-122.91037559644188,358.9534076517448,1.0248936414718497
2024-07-07 19:38:00.8320,0.07,-0.331,-0.812,-0.25,0.68,-1.66,49.27884318992419,-122.91037559644188,358.9534076517448,1.0248936414718497
2024-07-07 19:38:00.8430,0.066,-0.318,-0.851,-0.18,0.57,-1.24,49.27884318992419,-122.91037559644188,358.9534076517448,1.0248936414718497
2024-07-07 19:38:00.8530,0.056,-0.307,-0.886,-0.1,0.45,-0.9,49.27884318992419,-122.91037559644188,358.9534076517448,1.0248936414718497
2024-07-07 19:38:00.8620,0.05,-0.299,-0.919,0.0,0.37,-0.55,49.27884318992419,-122.91037559644188,358.9534076517448,1.0248936414718497
2024-07-07 19:38:00.8720,0.043,-0.299,-0.935,0.05,0.34,-0.32,49.27884318992419,-122.91037559644188,358.9534076517448,1.0248936414718497
2024-07-07 19:38:00.8830,0.029,-0.31,-0.934,0.16,0.42,-0.28,49.27884318992419,-122.91037559644188,358.9534076517448,1.0248936414718497
2024-07-07 19:38:00.8930,0.017,-0.324,-0.936,0.3,0.56,-0.3,49.27884318992419,-122.91037559644188,358.9534076517448,1.0248936414718497
2024-07-07 19:38:00.9030,0.008,-0.338,-0.949,0.41,0.72,-0.22,49.27884318992419,-122.91037559644188,358.9534076517448,1.0248936414718497
2024-07-07 19:38:00.9130,-0.0,-0.345,-0.984,0.51,0.84,0.01,49.27884318992419,-122.91037559644188,358.9534076517448,1.0248936414718497
2024-07-07 19:38:00.9230,0.006,-0.342,-1.044,0.54,0.88,0.54,49.27884318992419,-122.91037559644188,358.9534076517448,1.0248936414718497
2024-07-07 19:38:00.9330,0.028,-0.335,-1.094,0.37,0.86,1.08,49.27884318992419,-122.91037559644188,358.9534076517448,1.0248936414718497
2024-07-07 19:38:00.9430,0.057,-0.33,-1.135,0.14,0.84,1.5,49.27884318992419,-122.91037559644188,358.9534076517448,1.0248936414718497
2024-07-07 19:38:00.9540,0.092,-0.331,-1.176,-0.16,0.88,1.86,49.27884318992419,-122.91037559644188,358.9534076517448,1.0248936414718497
2024-07-07 19:38:00.9630,0.123,-0.339,-1.241,-0.46,1.01,2.39,49.27884318992419,-122.91037559644188,358.9534076517448,1.0248936414718497
2024-07-07 19:38:00.9730,0.147,-0.338,-1.321,-0.66,1.13,3.13,49.27884318992419,-122.91037559644188,358.9534076517448,1.0248936414718497
2024-07-07 19:38:00.9830,0.175,-0.315,-1.395,-0.88,1.06,3.86,49.27884318992419,-122.91037559644188,358.9534076517448,1.0248936414718497
2024-07-07 19:38:00.9940,0.193,-0.282,-1.464,-1.07,0.85,4.55,49.27884318992419,-122.91037559644188,358.9534076517448,1.0248936414718497
2024-07-07 19:38:01.0040,0.201,-0.243,-1.517,-1.14,0.6,5.12,49.27884318992419,-122.91037559644188,358.9534076517448,1.0248936414718497
2024-07-07 19:38:01.0140,0.213,-0.193,-1.553,-1.22,0.22,5.52,49.27884318992419,-122.91037559644188,358.9534076517448,1.0248936414718497
2024-07-07 19:38:01.0240,0.227,-0.148,-1.553,-1.36,-0.19,5.67,49.27884318992419,-122.91037559644188,358.9534076517448,1.0248936414718497
2024-07-07 19:38:01.0340,0.239,-0.124,-1.516,-1.51,-0.43,5.4,49.27884318992419,-122.91037559644188,358.9534076517448,1.0248936414718497
2024-07-07 19:38:01.0440,0.243,-0.109,-1.466,-1.6,-0.54,4.95,49.27884318992419,-122.91037559644188,358.9534076517448,1.0248936414718497
2024-07-07 19:38:01.0540,0.242,-0.098,-1.391,-1.64,-0.62,4.3,49.27884318992419,-122.91037559644188,358.9534076517448,1.0248936414718497
2024-07-07 19:38:01.0640,0.237,-0.095,-1.303,-1.65,-0.66,3.46,49.27884318992419,-122.91037559644188,358.9534076517448,1.0248936414718497
2024-07-07 19:38:01.0740,0.23,-0.102,-1.212,-1.61,-0.6,2.55,49.27884318992419,-122.91037559644188,358.9534076517448,1.0248936414718497
2024-07-07 19:38:01.0840,0.224,-0.111,-1.138,-1.58,-0.49,1.74,49.27884318992419,-122.91037559644188,358.9534076517448,1.0248936414718497
2024-07-07 19:38:01.0940,0.222,-0.111,-1.081,-1.55,-0.43,1.12,49.27884318992419,-122.91037559644188,358.9534076517448,1.0248936414718497
2024-07-07 19:38:01.1040,0.224,-0.106,-1.043,-1.56,-0.47,0.68,49.27884318992419,-122.91037559644188,358.9534076517448,1.0248936414718497
2024-07-07 19:38:01.1140,0.228,-0.102,-1.011,-1.58,-0.52,0.36,49.27884318992419,-122.91037559644188,358.9534076517448,1.0248936414718497
2024-07-07 19:38:01.1250,0.23,-0.102,-0.982,-1.62,-0.54,0.07,49.27884318992419,-122.91037559644188,358.9534076517448,1.0248936414718497
2024-07-07 19:38:01.1340,0.225,-0.107,-0.941,-1.6,-0.52,-0.27,49.27884318992419,-122.91037559644188,358.9534076517448,1.0248936414718497
2024-07-07 19:38:01.1450,0.217,-0.117,-0.898,-1.53,-0.44,-0.72,49.27884318992419,-122.91037559644188,358.9534076517448,1.0248936414718497
2024-07-07 19:38:01.1550,0.207,-0.127,-0.858,-1.45,-0.34,-1.11,49.27884318992419,-122.91037559644188,358.9534076517448,1.0248936414718497
2024-07-07 19:38:01.1670,0.198,-0.133,-0.823,-1.38,-0.28,-1.48,49.27883029721434,-122.91038381104643,358.9190470892936,1.0248936414718495
2024-07-07 19:38:01.1750,0.181,-0.137,-0.79,-1.27,-0.23,-1.8,49.27883029721434,-122.91038381104643,358.9190470892936,1.0248936414718495
2024-07-07 19:38:01.1850,0.16,-0.138,-0.755,-1.1,-0.21,-2.14,49.27883029721434,-122.91038381104643,358.9190470892936,1.0248936414718495
2024-07-07 19:38:01.1950,0.138,-0.139,-0.723,-0.92,-0.2,-2.47,49.27883029721434,-122.91038381104643,358.9190470892936,1.0248936414718495
2024-07-07 19:38:01.2050,0.113,-0.142,-0.696,-0.72,-0.18,-2.75,49.27883029721434,-122.91038381104643,358.9190470892936,1.0248936414718495
2024-07-07 19:38:01.2150,0.092,-0.144,-0.67,-0.52,-0.15,-3.01,49.27883029721434,-122.91038381104643,358.9190470892936,1.0248936414718495
2024-07-07 19:38:01.2250,0.074,-0.143,-0.65,-0.37,-0.14,-3.25,49.27883029721434,-122.91038381104643,358.9190470892936,1.0248936414718495
2024-07-07 19:38:01.2350,0.058,-0.141,-0.638,-0.24,-0.16,-3.39,49.27883029721434,-122.91038381104643,358.9190470892936,1.0248936414718495
2024-07-07 19:38:01.2450,0.044,-0.148,-0.625,-0.13,-0.13,-3.51,49.27883029721434,-122.91038381104643,358.9190470892936,1.0248936414718495
2024-07-07 19:38:01.2560,0.031,-0.162,-0.629,-0.02,0.0,-3.55,49.27883029721434,-122.91038381104643,358.9190470892936,1.0248936414718495
2024-07-07 19:38:01.2660,0.022,-0.168,-0.643,0.06,0.11,-3.43,49.27883029721434,-122.91038381104643,358.9190470892936,1.0248936414718495
2024-07-07 19:38:01.2760,0.013,-0.163,-0.657,0.12,0.08,-3.29,49.27883029721434,-122.91038381104643,358.9190470892936,1.0248936414718495
2024-07-07 19:38:01.2860,0.001,-0.163,-0.669,0.21,0.06,-3.17,49.27883029721434,-122.91038381104643,358.9190470892936,1.0248936414718495
2024-07-07 19:38:01.2960,-0.009,-0.164,-0.682,0.3,0.08,-3.05,49.27883029721434,-122.91038381104643,358.9190470892936,1.0248936414718495
2024-07-07 19:38:01.3060,-0.013,-0.161,-0.693,0.34,0.05,-2.93,49.27883029721434,-122.91038381104643,358.9190470892936,1.0248936414718495
2024-07-07 19:38:01.3160,-0.018,-0.166,-0.697,0.35,0.06,-2.87,49.27883029721434,-122.91038381104643,358.9190470892936,1.0248936414718495
2024-07-07 19:38:01.3260,-0.024,-0.177,-0.697,0.4,0.16,-2.86,49.27883029721434,-122.91038381104643,358.9190470892936,1.0248936414718495
2024-07-07 19:38:01.3360,-0.025,-0.191,-0.698,0.42,0.28,-2.86,49.27883029721434,-122.91038381104643,358.9190470892936,1.0248936414718495
2024-07-07 19:38:01.3460,-0.022,-0.204,-0.71,0.38,0.42,-2.79,49.27883029721434,-122.91038381104643,358.9190470892936,1.0248936414718495
2024-07-07 19:38:01.3560,-0.023,-0.214,-0.729,0.36,0.53,-2.61,49.27883029721434,-122.91038381104643,358.9190470892936,1.0248936414718495
2024-07-07 19:38:01.3670,-0.023,-0.217,-0.746,0.35,0.58,-2.44,49.27883029721434,-122.91038381104643,358.9190470892936,1.0248936414718495
2024-07-07 19:38:01.3780,-0.028,-0.223,-0.764,0.36,0.61,-2.27,49.27883029721434,-122.91038381104643,358.9190470892936,1.0248936414718495
2024-07-07 19:38:01.3860,-0.033,-0.235,-0.786,0.42,0.7,-2.06,49.27883029721434,-122.91038381104643,358.9190470892936,1.0248936414718495
2024-07-07 19:38:01.3970,-0.036,-0.244,-0.812,0.43,0.8,-1.82,49.27883029721434,-122.91038381104643,358.9190470892936,1.0248936414718495
2024-07-07 19:38:01.4070,-0.044,-0.246,-0.836,0.48,0.83,-1.56,49.27883029721434,-122.91038381104643,358.9190470892936,1.0248936414718495
2024-07-07 19:38:01.4170,-0.063,-0.246,-0.854,0.6,0.8,-1.36,49.27883029721434,-122.91038381104643,358.9190470892936,1.0248936414718495
2024-07-07 19:38:01.4270,-0.085,-0.254,-0.858,0.82,0.82,-1.26,49.27883029721434,-122.91038381104643,358.9190470892936,1.0248936414718495
2024-07-07 19:38:01.4370,-0.104,-0.269,-0.868,1.0,0.92,-1.22,49.27883029721434,-122.91038381104643,358.9190470892936,1.0248936414718495
2024-07-07 19:38:01.4470,-0.11,-0.28,-0.898,1.12,1.05,-0.98,49.27883029721434,-122.91038381104643,358.9190470892936,1.0248936414718495
2024-07-07 19:38:01.4570,-0.102,-0.276,-0.943,1.09,1.04,-0.6,49.27883029721434,-122.91038381104643,358.9190470892936,1.0248936414718495
2024-07-07 19:38:01.4670,-0.091,-0.27,-1.0,0.99,0.95,-0.08,49.27883029721434,-122.91038381104643,358.9190470892936,1.0248936414718495
2024-07-07 19:38:01.4770,-0.083,-0.261,-1.066,0.91,0.87,0.55,49.27883029721434,-122.91038381104643,358.9190470892936,1.0248936414718495
2024-07-07 19:38:01.4870,-0.074,-0.25,-1.132,0.85,0.73,1.21,49.27883029721434,-122.91038381104643,358.9190470892936,1.0248936414718495
2024-07-07 19:38:01.4970,-0.068,-0.247,-1.19,0.79,0.63,1.84,49.27883029721434,-122.91038381104643,358.9190470892936,1.0248936414718495
2024-07-07 19:38:01.5080,-0.063,-0.258,-1.218,0.74,0.63,2.24,49.27883029721434,-122.91038381104643,358.9190470892936,1.0248936414718495
2024-07-07 19:38:01.5170,-0.06,-0.276,-1.212,0.68,0.73,2.33,49.27883029721434,-122.91038381104643,358.9190470892936,1.0248936414718495
2024-07-07 19:38:01.5280,-0.09,-0.308,-1.186,0.83,0.93,2.11,49.27883029721434,-122.91038381104643,358.9190470892936,1.0248936414718495
2024-07-07 19:38:01.5380,-0.142,-0.343,-1.169,1.29,1.26,1.91,49.27883029721434,-122.91038381104643,358.9190470892936,1.0248936414718495
2024-07-07 19:38:01.5480,-0.184,-0.355,-1.178,1.78,1.5,1.85,49.27883029721434,-122.91038381104643,358.9190470892936,1.0248936414718495
2024-07-07 19:38:01.5580,-0.187,-0.327,-1.24,1.96,1.45,2.25,49.27883029721434,-122.91038381104643,358.9190470892936,1.0248936414718495
2024-07-07 19:38:01.5680,-0.159,-0.243,-1.345,1.8,0.93,3.13,49.27883029721434,-122.91038381104643,358.9190470892936,1.0248936414718495
2024-07-07 19:38:01.5780,-0.123,-0.132,-1.444,1.42,-0.02,4.2,49.27883029721434,-122.91038381104643,358.9190470892936,1.0248936414718495
2024-07-07 19:38:01.5880,-0.102,-0.05,-1.485,1.12,-0.85,4.8,49.27883029721434,-122.91038381104643,358.9190470892936,1.0248936414718495
2024-07-07 19:38:01.5980,-0.101,0.003,-1.476,1.02,-1.32,4.85,49.27883029721434,-122.91038381104643,358.9190470892936,1.0248936414718495
2024-07-07 19:38:01.6080,-0.108,0.047,-1.447,1.04,-1.69,4.59,49.27883029721434,-122.91038381104643,358.9190470892936,1.0248936414718495
2024-07-07 19:38:01.6180,-0.122,0.077,-1.409,1.11,-1.97,4.24,49.27883029721434,-122.91038381104643,358.9190470892936,1.0248936414718495
2024-07-07 19:38:01.6280,-0.139,0.09,-1.362,1.27,-2.09,3.82,49.27883029721434,-122.91038381104643,358.9190470892936,1.0248936414718495
2024-07-07 19:38:01.6390,-0.152,0.089,-1.313,1.4,-2.07,3.29,49.27883029721434,-122.91038381104643,358.9190470892936,1.0248936414718495
2024-07-07 19:38:01.6490,-0.16,0.081,-1.286,1.53,-1.97,2.95,49.27883029721434,-122.91038381104643,358.9190470892936,1.0248936414718495
2024-07-07 19:38:01.6590,-0.15,0.073,-1.276,1.54,-1.86,2.79,49.27883029721434,-122.91038381104643,358.9190470892936,1.0248936414718495
2024-07-07 19:38:01.6690,-0.122,0.066,-1.271,1.37,-1.76,2.73,49.27883029721434,-122.91038381104643,358.9190470892936,1.0248936414718495
2024-07-07 19:38:01.6790,-0.086,0.059,-1.266,1.07,-1.7,2.69,49.27883029721434,-122.91038381104643,358.9190470892936,1.0248936414718495
2024-07-07 19:38:01.6890,-0.055,0.043,-1.247,0.78,-1.58,2.56,49.27883029721434,-122.91038381104643,358.9190470892936,1.0248936414718495
2024-07-07 19:38:01.6990,-0.03,0.024,-1.216,0.56,-1.39,2.31,49.27883029721434,-122.91038381104643,358.9190470892936,1.0248936414718495
2024-07-07 19:38:01.7090,-0.01,0.011,-1.164,0.37,-1.25,1.89,49.27883029721434,-122.91038381104643,358.9190470892936,1.0248936414718495
2024-07-07 19:38:01.7190,0.002,-0.007,-1.101,0.25,-1.12,1.28,49.27883029721434,-122.91038381104643,358.9190470892936,1.0248936414718495
2024-07-07 19:38:01.7290,0.012,-0.029,-1.04,0.18,-0.91,0.67,49.27883029721434,-122.91038381104643,358.9190470892936,1.0248936414718495
2024-07-07 19:38:01.7390,0.021,-0.051,-0.987,0.1,-0.69,0.11,49.27883029721434,-122.91038381104643,358.9190470892936,1.0248936414718495
2024-07-07 19:38:01.7500,0.029,-0.061,-0.955,0.04,-0.53,-0.29,49.27883029721434,-122.91038381104643,358.9190470892936,1.0248936414718495
2024-07-07 19:38:01.7600,0.042,-0.058,-0.932,-0.06,-0.52,-0.51,49.27883029721434,-122.91038381104643,358.9190470892936,1.0248936414718495
2024-07-07 19:38:01.7700,0.049,-0.055,-0.902,-0.16,-0.56,-0.78,49.27883029721434,-122.91038381104643,358.9190470892936,1.0248936414718495
2024-07-07 19:38:01.7800,0.052,-0.058,-0.871,-0.19,-0.56,-1.09,49.27883029721434,-122.91038381104643,358.9190470892936,1.0248936414718495
2024-07-07 19:38:01.7900,0.059,-0.066,-0.839,-0.24,-0.51,-1.4,49.27883029721434,-122.91038381104643,358.9190470892936,1.0248936414718495
2024-07-07 19:38:01.8000,0.071,-0.08,-0.806,-0.37,-0.4,-1.71,49.27883029721434,-122.91038381104643,358.9190470892936,1.0248936414718495
2024-07-07 19:38:01.8100,0.075,-0.09,-0.767,-0.45,-0.31,-2.07,49.27883029721434,-122.91038381104643,358.9190470892936,1.0248936414718495
2024-07-07 19:38:01.8200,0.076,-0.103,-0.727,-0.47,-0.23,-2.46,49.27883029721434,-122.91038381104643,358.9190470892936,1.0248936414718495
2024-07-07 19:38:01.8300,0.076,-0.12,-0.691,-0.49,-0.1,-2.84,49.27883029721434,-122.91038381104643,358.9190470892936,1.0248936414718495
2024-07-07 19:38:01.8400,0.076,-0.135,-0.666,-0.49,0.03,-3.11,49.27883029721434,-122.91038381104643,358.9190470892936,1.0248936414718495
2024-07-07 19:38:01.8500,0.078,-0.146,-0.644,-0.5,0.11,-3.33,49.27883029721434,-122.91038381104643,358.9190470892936,1.0248936414718495
2024-07-07 19:38:01.8600,0.079,-0.156,-0.627,-0.51,0.16,-3.51,49.27883029721434,-122.91038381104643,358.9190470892936,1.0248936414718495
2024-07-07 19:38:01.8700,0.078,-0.169,-0.616,-0.49,0.22,-3.64,49.27883029721434,-122.91038381104643,358.9190470892936,1.0248936414718495
2024-07-07 19:38:01.8800,0.08,-0.177,-0.617,-0.49,0.28,-3.67,49.27883029721434,-122.91038381104643,358.9190470892936,1.0248936414718495
2024-07-07 19:38:01.8900,0.082,-0.182,-0.623,-0.49,0.27,-3.61,49.27883029721434,-122.91038381104643,358.9190470892936,1.0248936414718495
2024-07-07 19:38:01.9000,0.081,-0.19,-0.627,-0.46,0.29,-3.55,49.27883029721434,-122.91038381104643,358.9190470892936,1.0248936414718495
2024-07-07 19:38:01.9110,0.081,-0.2,-0.643,-0.44,0.34,-3.45,49.27883029721434,-122.91038381104643,358.9190470892936,1.0248936414718495
2024-07-07 19:38:01.9210,0.078,-0.2,-0.661,-0.39,0.33,-3.24,49.27883029721434,-122.91038381104643,358.9190470892936,1.0248936414718495
2024-07-07 19:38:01.9310,0.077,-0.201,-0.671,-0.37,0.29,-3.12,49.27883029721434,-122.91038381104643,358.9190470892936,1.0248936414718495
2024-07-07 19:38:01.9410,0.069,-0.205,-0.687,-0.29,0.28,-2.98,49.27883029721434,-122.91038381104643,358.9190470892936,1.0248936414718495
2024-07-07 19:38:01.9510,0.061,-0.206,-0.702,-0.2,0.27,-2.82,49.27883029721434,-122.91038381104643,358.9190470892936,1.0248936414718495
2024-07-07 19:38:01.9610,0.057,-0.205,-0.717,-0.13,0.24,-2.66,49.27883029721434,-122.91038381104643,358.9190470892936,1.0248936414718495
2024-07-07 19:38:01.9710,0.054,-0.207,-0.726,-0.09,0.2,-2.55,49.27883029721434,-122.91038381104643,358.9190470892936,1.0248936414718495
2024-07-07 19:38:01.9810,0.048,-0.221,-0.744,-0.02,0.26,-2.4,49.27883029721434,-122.91038381104643,358.9190470892936,1.0248936414718495
2024-07-07 19:38:01.9910,0.046,-0.236,-0.759,0.01,0.38,-2.22,49.27883029721434,-122.91038381104643,358.9190470892936,1.0248936414718495
2024-07-07 19:38:02.0010,0.036,-0.252,-0.771,0.11,0.49,-2.1,49.27883029721434,-122.91038381104643,358.9190470892936,1.0248936414718495
2024-07-07 19:38:02.0110,0.029,-0.265,-0.799,0.25,0.6,-1.9,49.27883029721434,-122.91038381104643,358.9190470892936,1.0248936414718495
2024-07-07 19:38:02.0210,0.031,-0.269,-0.856,0.31,0.63,-1.44,49.27883029721434,-122.91038381104643,358.9190470892936,1.0248936414718495
2024-07-07 19:38:02.0310,0.041,-0.266,-0.929,0.27,0.58,-0.75,49.27883029721434,-122.91038381104643,358.9190470892936,1.0248936414718495
2024-07-07 19:38:02.0410,0.043,-0.265,-1.019,0.26,0.54,0.07,49.27883029721434,-122.91038381104643,358.9190470892936,1.0248936414718495
2024-07-07 19:38:02.0510,0.045,-0.246,-1.113,0.3,0.42,1.03,49.27883029721434,-122.91038381104643,358.9190470892936,1.0248936414718495
2024-07-07 19:38:02.0620,0.051,-0.212,-1.161,0.27,0.08,1.72,49.27883029721434,-122.91038381104643,358.9190470892936,1.0248936414718495
2024-07-07 19:38:02.0720,0.058,-0.198,-1.178,0.21,-0.16,1.95,49.27883029721434,-122.91038381104643,358.9190470892936,1.0248936414718495
2024-07-07 19:38:02.0820,0.068,-0.193,-1.183,0.16,-0.21,2.07,49.27883029721434,-122.91038381104643,358.9190470892936,1.0248936414718495
2024-07-07 19:38:02.0920,0.083,-0.183,-1.193,-0.04,-0.32,1.99,49.27883029721434,-122.91038381104643,358.9190470892936,1.0248936414718495
2024-07-07 19:38:02.1020,0.058,-0.258,-1.322,0.21,0.14,2.91,49.27883029721434,-122.91038381104643,358.9190470892936,1.0248936414718495
2024-07-07 19:38:02.1120,0.094,-0.324,-1.364,0.09,1.08,3.73,49.27883029721434,-122.91038381104643,358.9190470892936,1.0248936414718495
2024-07-07 19:38:02.1220,0.121,-0.331,-1.46,-0.23,1.47,4.2,49.27883029721434,-122.91038381104643,358.9190470892936,1.0248936414718495
2024-07-07 19:38:02.1320,0.128,-0.285,-1.64,-0.32,1.39,5.76,49.27883029721434,-122.91038381104643,358.9190470892936,1.0248936414718495
2024-07-07 19:38:02.1420,0.138,-0.178,-1.833,-0.37,0.74,7.64,49.27883029721434,-122.91038381104643,358.9190470892936,1.0248936414718495
2024-07-07 19:38:02.1520,0.158,-0.027,-1.948,-0.58,-0.48,9.15,49.27883029721434,-122.91038381104643,358.9190470892936,1.0248936414718495
2024-07-07 19:38:02.1620,0.163,0.089,-1.93,-0.78,-1.68,9.43,49.27883029721434,-122.91038381104643,358.9190470892936,1.0248936414718495
2024-07-07 19:38:02.1720,0.15,0.135,-1.812,-0.81,-2.26,8.56,49.278818289275506,-122.91039192658138,358.9334045872092,1.2856006622314191
2024-07-07 19:38:02.1830,0.128,0.136,-1.648,-0.75,-2.28,7.04,49.278818289275506,-122.91039192658138,358.9334045872092,1.2856006622314191
2024-07-07 19:38:02.1930,0.113,0.115,-1.484,-0.68,-2.04,5.37,49.278818289275506,-122.91039192658138,358.9334045872092,1.2856006622314191
2024-07-07 19:38:02.2030,0.107,0.096,-1.342,-0.7,-1.76,3.88,49.278818289275506,-122.91039192658138,358.9334045872092,1.2856006622314191
2024-07-07 19:38:02.2130,0.114,0.083,-1.224,-0.81,-1.55,2.63,49.278818289275506,-122.91039192658138,358.9334045872092,1.2856006622314191
2024-07-07 19:38:02.2230,0.133,0.068,-1.122,-1.03,-1.4,1.58,49.278818289275506,-122.91039192658138,358.9334045872092,1.2856006622314191
2024-07-07 19:38:02.2330,0.155,0.046,-1.033,-1.28,-1.22,0.65,49.278818289275506,-122.91039192658138,358.9334045872092,1.2856006622314191
2024-07-07 19:38:02.2430,0.178,0.018,-0.959,-1.52,-0.98,-0.13,49.278818289275506,-122.91039192658138,358.9334045872092,1.2856006622314191
2024-07-07 19:38:02.2530,0.196,-0.011,-0.898,-1.72,-0.74,-0.77,49.278818289275506,-122.91039192658138,358.9334045872092,1.2856006622314191
2024-07-07 19:38:02.2630,0.208,-0.039,-0.85,-1.84,-0.52,-1.28,49.278818289275506,-122.91039192658138,358.9334045872092,1.2856006622314191
2024-07-07 19:38:02.2730,0.214,-0.061,-0.813,-1.88,-0.35,-1.68,49.278818289275506,-122.91039192658138,358.9334045872092,1.2856006622314191
2024-07-07 19:38:02.2830,0.214,-0.075,-0.781,-1.87,-0.27,-1.98,49.278818289275506,-122.91039192658138,358.9334045872092,1.2856006622314191
2024-07-07 19:38:02.2930,0.206,-0.096,-0.743,-1.78,-0.18,-2.33,49.278818289275506,-122.91039192658138,358.9334045872092,1.2856006622314191
2024-07-07 19:38:02.3030,0.193,-0.119,-0.704,-1.63,-0.03,-2.69,49.278818289275506,-122.91039192658138,358.9334045872092,1.2856006622314191
2024-07-07 19:38:02.3140,0.178,-0.136,-0.658,-1.46,0.09,-3.1,49.278818289275506,-122.91039192658138,358.9334045872092,1.2856006622314191
2024-07-07 19:38:02.3240,0.161,-0.148,-0.607,-1.27,0.16,-3.59,49.278818289275506,-122.91039192658138,358.9334045872092,1.2856006622314191
2024-07-07 19:38:02.3340,0.137,-0.16,-0.565,-1.04,0.21,-4.05,49.278818289275506,-122.91039192658138,358.9334045872092,1.2856006622314191
2024-07-07 19:38:02.3440,0.114,-0.171,-0.548,-0.77,0.28,-4.29,49.278818289275506,-122.91039192658138,358.9334045872092,1.2856006622314191
2024-07-07 19:38:02.3540,0.098,-0.177,-0.533,-0.59,0.32,-4.42,49.278818289275506,-122.91039192658138,358.9334045872092,1.2856006622314191
2024-07-07 19:38:02.3640,0.081,-0.182,-0.521,-0.42,0.35,-4.56,49.278818289275506,-122.91039192658138,358.9334045872092,1.2856006622314191
2024-07-07 19:38:02.3740,0.061,-0.184,-0.514,-0.23,0.35,-4.63,49.278818289275506,-122.91039192658138,358.9334045872092,1.2856006622314191
2024-07-07 19:38:02.3840,0.043,-0.183,-0.508,-0.05,0.35,-4.71,49.278818289275506,-122.91039192658138,358.9334045872092,1.2856006622314191
2024-07-07 19:38:02.3940,0.031,-0.175,-0.521,0.08,0.31,-4.66,49.278818289275506,-122.91039192658138,358.9334045872092,1.2856006622314191
2024-07-07 19:38:02.4040,0.023,-0.164,-0.548,0.15,0.21,-4.42,49.278818289275506,-122.91039192658138,358.9334045872092,1.2856006622314191
2024-07-07 19:38:02.4140,0.015,-0.164,-0.568,0.21,0.18,-4.19,49.278818289275506,-122.91039192658138,358.9334045872092,1.2856006622314191
2024-07-07 19:38:02.4240,0.008,-0.171,-0.574,0.25,0.26,-4.1,49.278818289275506,-122.91039192658138,358.9334045872092,1.2856006622314191
2024-07-07 19:38:02.4340,-0.006,-0.17,-0.588,0.34,0.31,-4.01,49.278818289275506,-122.91039192658138,358.9334045872092,1.2856006622314191
2024-07-07 19:38:02.4450,-0.012,-0.162,-0.605,0.42,0.27,-3.84,49.278818289275506,-122.91039192658138,358.9334045872092,1.2856006622314191
2024-07-07 19:38:02.4550,-0.011,-0.163,-0.617,0.39,0.26,-3.72,49.278818289275506,-122.91039192658138,358.9334045872092,1.2856006622314191
2024-07-07 19:38:02.4650,-0.014,-0.174,-0.636,0.39,0.35,-3.57,49.278818289275506,-122.91039192658138,358.9334045872092,1.2856006622314191
2024-07-07 19:38:02.4750,-0.008,-0.188,-0.659,0.35,0.5,-3.34,49.278818289275506,-122.91039192658138,358.9334045872092,1.2856006622314191
2024-07-07 19:38:02.4850,-0.005,-0.202,-0.676,0.29,0.64,-3.16,49.278818289275506,-122.91039192658138,358.9334045872092,1.2856006622314191
2024-07-07 19:38:02.4950,-0.006,-0.215,-0.697,0.3,0.78,-2.98,49.278818289275506,-122.91039192658138,358.9334045872092,1.2856006622314191
2024-07-07 19:38:02.5050,-0.001,-0.235,-0.727,0.3,0.93,-2.72,49.278818289275506,-122.91039192658138,358.9334045872092,1.2856006622314191
2024-07-07 19:38:02.5150,0.009,-0.265,-0.771,0.23,1.18,-2.34,49.278818289275506,-122.91039192658138,358.9334045872092,1.2856006622314191
2024-07-07 19:38:02.5250,0.017,-0.295,-0.83,0.17,1.48,-1.81,49.278818289275506,-122.91039192658138,358.9334045872092,1.2856006622314191
2024-07-07 19:38:02.5350,0.021,-0.307,-0.902,0.14,1.68,-1.14,49.278818289275506,-122.91039192658138,358.9334045872092,1.2856006622314191
2024-07-07 19:38:02.5450,0.02,-0.302,-0.966,0.14,1.69,-0.45,49.278818289275506,-122.91039192658138,358.9334045872092,1.2856006622314191
2024-07-07 19:38:02.5560,0.012,-0.289,-1.008,0.19,1.59,0.02,49.278818289275506,-122.91039192658138,358.9334045872092,1.2856006622314191
2024-07-07 19:38:02.5650,-0.003,-0.275,-1.059,0.32,1.49,0.45,49.278818289275506,-122.91039192658138,358.9334045872092,1.2856006622314191
2024-07-07 19:38:02.5760,-0.004,-0.249,-1.106,0.38,1.31,0.97,49.278818289275506,-122.91039192658138,358.9334045872092,1.2856006622314191
2024-07-07 19:38:02.5850,-0.005,-0.223,-1.143,0.34,1.07,1.34,49.278818289275506,-122.91039192658138,358.9334045872092,1.2856006622314191
2024-07-07 19:38:02.5960,-0.011,-0.209,-1.176,0.37,0.92,1.68,49.278818289275506,-122.91039192658138,358.9334045872092,1.2856006622314191
2024-07-07 19:38:02.6060,-0.012,-0.2,-1.219,0.4,0.86,2.02,49.278818289275506,-122.91039192658138,358.9334045872092,1.2856006622314191
2024-07-07 19:38:02.6160,0.0,-0.19,-1.282,0.3,0.79,2.58,49.278818289275506,-122.91039192658138,358.9334045872092,1.2856006622314191
2024-07-07 19:38:02.6260,0.014,-0.181,-1.337,0.14,0.7,3.2,49.278818289275506,-122.91039192658138,358.9334045872092,1.2856006622314191
2024-07-07 19:38:02.6360,0.018,-0.187,-1.351,0.04,0.67,3.51,49.278818289275506,-122.91039192658138,358.9334045872092,1.2856006622314191
2024-07-07 19:38:02.6460,0.01,-0.216,-1.33,0.06,0.86,3.39,49.278818289275506,-122.91039192658138,358.9334045872092,1.2856006622314191
2024-07-07 19:38:02.6560,-0.001,-0.252,-1.305,0.15,1.18,3.14,49.278818289275506,-122.91039192658138,358.9334045872092,1.2856006622314191
2024-07-07 19:38:02.6660,-0.017,-0.285,-1.284,0.3,1.49,2.94,49.278818289275506,-122.91039192658138,358.9334045872092,1.2856006622314191
2024-07-07 19:38:02.6760,-0.031,-0.303,-1.265,0.49,1.71,2.73,49.278818289275506,-122.91039192658138,358.9334045872092,1.2856006622314191
2024-07-07 19:38:02.6860,-0.035,-0.281,-1.259,0.62,1.67,2.61,49.278818289275506,-122.91039192658138,358.9334045872092,1.2856006622314191
2024-07-07 19:38:02.6960,-0.02,-0.213,-1.284,0.61,1.17,2.71,49.278818289275506,-122.91039192658138,358.9334045872092,1.2856006622314191
2024-07-07 19:38:02.7060,0.005,-0.128,-1.363,0.45,0.39,3.29,49.278818289275506,-122.91039192658138,358.9334045872092,1.2856006622314191
2024-07-07 19:38:02.7170,0.018,-0.053,-1.459,0.34,-0.35,4.23,49.278818289275506,-122.91039192658138,358.9334045872092,1.2856006622314191
2024-07-07 19:38:02.7270,0.015,0.025,-1.548,0.39,-1.03,5.13,49.278818289275506,-122.91039192658138,358.9334045872092,1.2856006622314191
2024-07-07 19:38:02.7370,0.013,0.115,-1.6,0.46,-1.85,5.84,49.278818289275506,-122.91039192658138,358.9334045872092,1.2856006622314191
2024-07-07 19:38:02.7470,-0.004,0.185,-1.577,0.58,-2.64,5.88,49.278818289275506,-122.91039192658138,358.9334045872092,1.2856006622314191
2024-07-07 19:38:02.7570,-0.032,0.206,-1.507,0.84,-3.03,5.34,49.278818289275506,-122.91039192658138,358.9334045872092,1.2856006622314191
2024-07-07 19:38:02.7670,-0.058,0.182,-1.413,1.13,-2.93,4.47,49.278818289275506,-122.91039192658138,358.9334045872092,1.2856006622314191
2024-07-07 19:38:02.7770,-0.066,0.139,-1.324,1.3,-2.54,3.56,49.278818289275506,-122.91039192658138,358.9334045872092,1.2856006622314191
2024-07-07 19:38:02.7870,-0.049,0.097,-1.263,1.24,-2.08,2.82,49.278818289275506,-122.91039192658138,358.9334045872092,1.2856006622314191
2024-07-07 19:38:02.7970,-0.02,0.072,-1.232,1.0,-1.74,2.44,49.278818289275506,-122.91039192658138,358.9334045872092,1.2856006622314191
2024-07-07 19:38:02.8070,0.01,0.056,-1.207,0.73,-1.53,2.19,49.278818289275506,-122.91039192658138,358.9334045872092,1.2856006622314191
2024-07-07 19:38:02.8170,0.036,0.039,-1.179,0.47,-1.34,1.93,49.278818289275506,-122.91039192658138,358.9334045872092,1.2856006622314191
2024-07-07 19:38:02.8270,0.053,0.027,-1.142,0.29,-1.19,1.6,49.278818289275506,-122.91039192658138,358.9334045872092,1.2856006622314191
2024-07-07 19:38:02.8370,0.064,0.019,-1.098,0.17,-1.12,1.19,49.278818289275506,-122.91039192658138,358.9334045872092,1.2856006622314191
2024-07-07 19:38:02.8480,0.07,0.009,-1.058,0.11,-1.04,0.78,49.278818289275506,-122.91039192658138,358.9334045872092,1.2856006622314191
2024-07-07 19:38:02.8580,0.075,0.002,-1.016,0.07,-1.0,0.39,49.278818289275506,-122.91039192658138,358.9334045872092,1.2856006622314191
2024-07-07 19:38:02.8680,0.078,-0.009,-0.975,0.03,-0.95,-0.02,49.278818289275506,-122.91039192658138,358.9334045872092,1.2856006622314191
2024-07-07 19:38:02.8780,0.074,-0.022,-0.935,0.04,-0.87,-0.41,49.278818289275506,-122.91039192658138,358.9334045872092,1.2856006622314191
2024-07-07 19:38:02.8880,0.068,-0.031,-0.893,0.07,-0.8,-0.8,49.278818289275506,-122.91039192658138,358.9334045872092,1.2856006622314191
2024-07-07 19:38:02.8980,0.059,-0.036,-0.844,0.13,-0.78,-1.26,49.278818289275506,-122.91039192658138,358.9334045872092,1.2856006622314191
2024-07-07 19:38:02.9080,0.049,-0.042,-0.792,0.19,-0.77,-1.75,49.278818289275506,-122.91039192658138,358.9334045872092,1.2856006622314191
2024-07-07 19:38:02.9180,0.04,-0.05,-0.739,0.25,-0.73,-2.28,49.278818289275506,-122.91039192658138,358.9334045872092,1.2856006622314191
2024-07-07 19:38:02.9280,0.038,-0.063,-0.69,0.25,-0.67,-2.78,49.278818289275506,-122.91039192658138,358.9334045872092,1.2856006622314191
2024-07-07 19:38:02.9380,0.039,-0.085,-0.648,0.21,-0.51,-3.22,49.278818289275506,-122.91039192658138,358.9334045872092,1.2856006622314191
2024-07-07 19:38:02.9480,0.043,-0.107,-0.624,0.15,-0.32,-3.53,49.278818289275506,-122.91039192658138,358.9334045872092,1.2856006622314191
2024-07-07 19:38:02.9580,0.05,-0.125,-0.609,0.07,-0.17,-3.68,49.278818289275506,-122.91039192658138,358.9334045872092,1.2856006622314191
2024-07-07 19:38:02.9690,0.056,-0.143,-0.598,-0.02,-0.04,-3.8,49.278818289275506,-122.91039192658138,358.9334045872092,1.2856006622314191
2024-07-07 19:38:02.9790,0.058,-0.16,-0.587,-0.06,0.09,-3.89,49.278818289275506,-122.91039192658138,358.9334045872092,1.2856006622314191
2024-07-07 19:38:02.9890,0.057,-0.17,-0.579,-0.08,0.17,-3.99,49.278818289275506,-122.91039192658138,358.9334045872092,1.2856006622314191
2024-07-07 19:38:02.9990,0.055,-0.173,-0.577,-0.06,0.17,-4.02,49.278818289275506,-122.91039192658138,358.9334045872092,1.2856006622314191
2024-07-07 19:38:03.0090,0.057,-0.175,-0.58,-0.07,0.14,-4.02,49.278818289275506,-122.91039192658138,358.9334045872092,1.2856006622314191
2024-07-07 19:38:03.0190,0.059,-0.173,-0.598,-0.09,0.09,-3.87,49.278818289275506,-122.91039192658138,358.9334045872092,1.2856006622314191
2024-07-07 19:38:03.0290,0.065,-0.165,-0.615,-0.12,-0.02,-3.7,49.278818289275506,-122.91039192658138,358.9334045872092,1.2856006622314191
2024-07-07 19:38:03.0390,0.07,-0.158,-0.64,-0.17,-0.14,-3.48,49.278818289275506,-122.91039192658138,358.9334045872092,1.2856006622314191
2024-07-07 19:38:03.0490,0.075,-0.156,-0.665,-0.21,-0.24,-3.19,49.278818289275506,-122.91039192658138,358.9334045872092,1.2856006622314191
2024-07-07 19:38:03.0590,0.08,-0.166,-0.679,-0.27,-0.24,-3.02,49.278818289275506,-122.91039192658138,358.9334045872092,1.2856006622314191
2024-07-07 19:38:03.0690,0.078,-0.184,-0.692,-0.27,-0.12,-2.88,49.278818289275506,-122.91039192658138,358.9334045872092,1.2856006622314191
2024-07-07 19:38:03.0790,0.08,-0.193,-0.699,-0.27,-0.05,-2.78,49.278818289275506,-122.91039192658138,358.9334045872092,1.2856006622314191
2024-07-07 19:38:03.0890,0.081,-0.195,-0.708,-0.29,-0.06,-2.7,49.278818289275506,-122.91039192658138,358.9334045872092,1.2856006622314191
2024-07-07 19:38:03.0990,0.075,-0.198,-0.719,-0.25,-0.09,-2.57,49.278818289275506,-122.91039192658138,358.9334045872092,1.2856006622314191
2024-07-07 19:38:03.1100,0.066,-0.209,-0.731,-0.16,-0.06,-2.47,49.278818289275506,-122.91039192658138,358.9334045872092,1.2856006622314191
2024-07-07 19:38:03.1200,0.059,-0.224,-0.751,-0.06,0.04,-2.29,49.278818289275506,-122.91039192658138,358.9334045872092,1.2856006622314191
2024-07-07 19:38:03.1300,0.055,-0.241,-0.768,0.0,0.17,-2.1,49.278818289275506,-122.91039192658138,358.9334045872092,1.2856006622314191
2024-07-07 19:38:03.1400,0.049,-0.249,-0.793,0.1,0.26,-1.89,49.278818289275506,-122.91039192658138,358.9334045872092,1.2856006622314191
2024-07-07 19:38:03.1500,0.051,-0.245,-0.842,0.15,0.23,-1.49,49.278818289275506,-122.91039192658138,358.9334045872092,1.2856006622314191
2024-07-07 19:38:03.1600,0.057,-0.231,-0.902,0.14,0.09,-0.92,49.278818289275506,-122.91039192658138,358.9334045872092,1.2856006622314191
2024-07-07 19:38:03.1700,0.062,-0.216,-0.97,0.14,-0.08,-0.27,49.27880531881468,-122.91039909095805,358.9304233677685,1.4049184322356836
2024-07-07 19:38:03.1800,0.069,-0.205,-1.03,0.13,-0.23,0.39,49.27880531881468,-122.91039909095805,358.9304233677685,1.4049184322356836
2024-07-07 19:38:03.1900,0.084,-0.196,-1.077,0.05,-0.34,0.89,49.27880531881468,-122.91039909095805,358.9304233677685,1.4049184322356836
2024-07-07 19:38:03.2000,0.107,-0.199,-1.105,-0.12,-0.36,1.27,49.27880531881468,-122.91039909095805,358.9304233677685,1.4049184322356836
2024-07-07 19:38:03.2100,0.135,-0.223,-1.103,-0.35,-0.18,1.33,49.27880531881468,-122.91039909095805,358.9304233677685,1.4049184322356836
2024-07-07 19:38:03.2210,0.158,-0.258,-1.12,-0.58,0.2,1.36,49.27880531881468,-122.91039909095805,358.9304233677685,1.4049184322356836
2024-07-07 19:38:03.2310,0.171,-0.291,-1.169,-0.7,0.63,1.73,49.27880531881468,-122.91039909095805,358.9304233677685,1.4049184322356836
2024-07-07 19:38:03.2410,0.182,-0.3,-1.238,-0.75,0.95,2.3,49.27880531881468,-122.91039909095805,358.9304233677685,1.4049184322356836
2024-07-07 19:38:03.2510,0.199,-0.265,-1.334,-0.85,0.92,3.13,49.27880531881468,-122.91039909095805,358.9304233677685,1.4049184322356836
2024-07-07 19:38:03.2610,0.217,-0.207,-1.429,-0.99,0.55,4.09,49.27880531881468,-122.91039909095805,358.9304233677685,1.4049184322356836
2024-07-07 19:38:03.2710,0.233,-0.141,-1.506,-1.11,0.07,4.85,49.27880531881468,-122.91039909095805,358.9304233677685,1.4049184322356836
2024-07-07 19:38:03.2810,0.255,-0.062,-1.57,-1.27,-0.54,5.58,49.27880531881468,-122.91039909095805,358.9304233677685,1.4049184322356836
2024-07-07 19:38:03.2910,0.283,0.005,-1.566,-1.53,-1.19,5.8,49.27880531881468,-122.91039909095805,358.9304233677685,1.4049184322356836
2024-07-07 19:38:03.3020,0.295,0.028,-1.508,-1.74,-1.54,5.37,49.27880531881468,-122.91039909095805,358.9304233677685,1.4049184322356836
2024-07-07 19:38:03.3110,0.281,0.016,-1.446,-1.67,-1.46,4.74,49.27880531881468,-122.91039909095805,358.9304233677685,1.4049184322356836
2024-07-07 19:38:03.3210,0.276,0.01,-1.397,-1.56,-1.31,4.2,49.27880531881468,-122.91039909095805,358.9304233677685,1.4049184322356836
2024-07-07 19:38:03.3310,0.283,0.018,-1.356,-1.61,-1.32,3.77,49.27880531881468,-122.91039909095805,358.9304233677685,1.4049184322356836
2024-07-07 19:38:03.3420,0.294,0.022,-1.313,-1.7,-1.35,3.36,49.27880531881468,-122.91039909095805,358.9304233677685,1.4049184322356836
2024-07-07 19:38:03.3510,0.313,0.013,-1.272,-1.86,-1.28,2.93,49.27880531881468,-122.91039909095805,358.9304233677685,1.4049184322356836
2024-07-07 19:38:03.3620,0.337,-0.009,-1.234,-2.09,-1.09,2.57,49.27880531881468,-122.91039909095805,358.9304233677685,1.4049184322356836
2024-07-07 19:38:03.3710,0.355,-0.038,-1.184,-2.3,-0.81,2.12,49.27880531881468,-122.91039909095805,358.9304233677685,1.4049184322356836
2024-07-07 19:38:03.3820,0.359,-0.067,-1.123,-2.41,-0.51,1.56,49.27880531881468,-122.91039909095805,358.9304233677685,1.4049184322356836
2024-07-07 19:38:03.3920,0.354,-0.088,-1.056,-2.39,-0.31,0.92,49.27880531881468,-122.91039909095805,358.9304233677685,1.4049184322356836
2024-07-07 19:38:03.4020,0.339,-0.104,-0.988,-2.29,-0.16,0.26,49.27880531881468,-122.91039909095805,358.9304233677685,1.4049184322356836
2024-07-07 19:38:03.4120,0.319,-0.116,-0.913,-2.13,-0.07,-0.44,49.27880531881468,-122.91039909095805,358.9304233677685,1.4049184322356836
2024-07-07 19:38:03.4220,0.293,-0.128,-0.833,-1.91,0.0,-1.21,49.27880531881468,-122.91039909095805,358.9304233677685,1.4049184322356836
2024-07-07 19:38:03.4320,0.265,-0.138,-0.757,-1.66,0.06,-1.98,49.27880531881468,-122.91039909095805,358.9304233677685,1.4049184322356836
2024-07-07 19:38:03.4420,0.237,-0.143,-0.692,-1.4,0.08,-2.66,49.27880531881468,-122.91039909095805,358.9304233677685,1.4049184322356836
2024-07-07 19:38:03.4520,0.211,-0.147,-0.641,-1.16,0.06,-3.21,49.27880531881468,-122.91039909095805,358.9304233677685,1.4049184322356836
2024-07-07 19:38:03.4620,0.184,-0.153,-0.6,-0.91,0.08,-3.64,49.27880531881468,-122.91039909095805,358.9304233677685,1.4049184322356836
2024-07-07 19:38:03.4720,0.155,-0.158,-0.58,-0.64,0.11,-3.92,49.27880531881468,-122.91039909095805,358.9304233677685,1.4049184322356836
2024-07-07 19:38:03.4820,0.132,-0.157,-0.583,-0.39,0.11,-3.97,49.27880531881468,-122.91039909095805,358.9304233677685,1.4049184322356836
2024-07-07 19:38:03.4920,0.113,-0.149,-0.589,-0.21,0.04,-3.9,49.27880531881468,-122.91039909095805,358.9304233677685,1.4049184322356836
2024-07-07 19:38:03.5020,0.092,-0.147,-0.591,-0.03,-0.02,-3.88,49.27880531881468,-122.91039909095805,358.9304233677685,1.4049184322356836
2024-07-07 19:38:03.5130,0.073,-0.147,-0.607,0.16,-0.01,-3.78,49.27880531881468,-122.91039909095805,358.9304233677685,1.4049184322356836
2024-07-07 19:38:03.5230,0.057,-0.145,-0.624,0.31,-0.03,-3.59,49.27880531881468,-122.91039909095805,358.9304233677685,1.4049184322356836
2024-07-07 19:38:03.5330,0.042,-0.145,-0.634,0.44,-0.04,-3.48,49.27880531881468,-122.91039909095805,358.9304233677685,1.4049184322356836
2024-07-07 19:38:03.5430,0.027,-0.149,-0.64,0.57,-0.01,-3.4,49.27880531881468,-122.91039909095805,358.9304233677685,1.4049184322356836
2024-07-07 19:38:03.5530,0.011,-0.161,-0.642,0.7,0.06,-3.38,49.27880531881468,-122.91039909095805,358.9304233677685,1.4049184322356836
2024-07-07 19:38:03.5630,0.0,-0.18,-0.653,0.81,0.23,-3.32,49.27880531881468,-122.91039909095805,358.9304233677685,1.4049184322356836
2024-07-07 19:38:03.5730,-0.007,-0.201,-0.669,0.88,0.43,-3.17,49.27880531881468,-122.91039909095805,358.9304233677685,1.4049184322356836
2024-07-07 19:38:03.5830,-0.011,-0.221,-0.684,0.92,0.64,-3.0,49.27880531881468,-122.91039909095805,358.9304233677685,1.4049184322356836
2024-07-07 19:38:03.5930,-0.016,-0.24,-0.702,0.95,0.84,-2.87,49.27880531881468,-122.91039909095805,358.9304233677685,1.4049184322356836
2024-07-07 19:38:03.6030,-0.021,-0.254,-0.737,0.99,1.01,-2.58,49.27880531881468,-122.91039909095805,358.9304233677685,1.4049184322356836
2024-07-07 19:38:03.6130,-0.02,-0.261,-0.77,1.0,1.12,-2.24,49.27880531881468,-122.91039909095805,358.9304233677685,1.4049184322356836
2024-07-07 19:38:03.6240,-0.02,-0.267,-0.806,0.97,1.19,-1.92,49.27880531881468,-122.91039909095805,358.9304233677685,1.4049184322356836
2024-07-07 19:38:03.6340,-0.022,-0.275,-0.842,0.97,1.29,-1.54,49.27880531881468,-122.91039909095805,358.9304233677685,1.4049184322356836
2024-07-07 19:38:03.6440,-0.019,-0.289,-0.86,0.93,1.41,-1.31,49.27880531881468,-122.91039909095805,358.9304233677685,1.4049184322356836
2024-07-07 19:38:03.6540,-0.019,-0.319,-0.869,0.9,1.65,-1.2,49.27880531881468,-122.91039909095805,358.9304233677685,1.4049184322356836
2024-07-07 19:38:03.6640,-0.019,-0.357,-0.877,0.87,2.01,-1.12,49.27880531881468,-122.91039909095805,358.9304233677685,1.4049184322356836
2024-07-07 19:38:03.6740,-0.024,-0.393,-0.884,0.88,2.39,-1.06,49.27880531881468,-122.91039909095805,358.9304233677685,1.4049184322356836
2024-07-07 19:38:03.6840,-0.03,-0.425,-0.903,0.93,2.71,-0.93,49.27880531881468,-122.91039909095805,358.9304233677685,1.4049184322356836
2024-07-07 19:38:03.6940,-0.028,-0.447,-0.932,0.93,2.96,-0.66,49.27880531881468,-122.91039909095805,358.9304233677685,1.4049184322356836
2024-07-07 19:38:03.7040,-0.024,-0.455,-0.954,0.88,3.08,-0.42,49.27880531881468,-122.91039909095805,358.9304233677685,1.4049184322356836
2024-07-07 19:38:03.7140,-0.024,-0.452,-0.976,0.84,3.07,-0.21,49.27880531881468,-122.91039909095805,358.9304233677685,1.4049184322356836
2024-07-07 19:38:03.7240,-0.026,-0.439,-0.999,0.86,2.97,0.0,49.27880531881468,-122.91039909095805,358.9304233677685,1.4049184322356836
2024-07-07 19:38:03.7340,-0.021,-0.42,-1.04,0.85,2.79,0.34,49.27880531881468,-122.91039909095805,358.9304233677685,1.4049184322356836
2024-07-07 19:38:03.7440,-0.003,-0.394,-1.099,0.74,2.55,0.84,49.27880531881468,-122.91039909095805,358.9304233677685,1.4049184322356836
2024-07-07 19:38:03.7550,0.022,-0.36,-1.187,0.53,2.23,1.61,49.27880531881468,-122.91039909095805,358.9304233677685,1.4049184322356836
2024-07-07 19:38:03.7640,0.045,-0.326,-1.278,0.31,1.86,2.54,49.27880531881468,-122.91039909095805,358.9304233677685,1.4049184322356836
2024-07-07 19:38:03.7750,0.064,-0.3,-1.346,0.13,1.56,3.31,49.27880531881468,-122.91039909095805,358.9304233677685,1.4049184322356836
2024-07-07 19:38:03.7850,0.076,-0.288,-1.375,-0.02,1.36,3.75,49.27880531881468,-122.91039909095805,358.9304233677685,1.4049184322356836
2024-07-07 19:38:03.7950,0.067,-0.296,-1.381,0.0,1.33,3.86,49.27880531881468,-122.91039909095805,358.9304233677685,1.4049184322356836
2024-07-07 19:38:03.8050,0.053,-0.312,-1.389,0.17,1.47,3.93,49.27880531881468,-122.91039909095805,358.9304233677685,1.4049184322356836
2024-07-07 19:38:03.8150,0.053,-0.306,-1.391,0.25,1.52,3.98,49.27880531881468,-122.91039909095805,358.9304233677685,1.4049184322356836
2024-07-07 19:38:03.8250,0.072,-0.27,-1.394,0.16,1.28,3.99,49.27880531881468,-122.91039909095805,358.9304233677685,1.4049184322356836
2024-07-07 19:38:03.8350,0.105,-0.211,-1.426,-0.09,0.81,4.16,49.27880531881468,-122.91039909095805,358.9304233677685,1.4049184322356836
2024-07-07 19:38:03.8460,0.138,-0.138,-1.486,-0.39,0.18,4.66,49.27880531881468,-122.91039909095805,358.9304233677685,1.4049184322356836
2024-07-07 19:38:03.8550,0.174,-0.061,-1.548,-0.71,-0.52,5.3,49.27880531881468,-122.91039909095805,358.9304233677685,1.4049184322356836
2024-07-07 19:38:03.8650,0.202,0.001,-1.571,-1.04,-1.14,5.71,49.27880531881468,-122.91039909095805,358.9304233677685,1.4049184322356836
2024-07-07 19:38:03.8760,0.204,0.034,-1.537,-1.18,-1.53,5.57,49.27880531881468,-122.91039909095805,358.9304233677685,1.4049184322356836
2024-07-07 19:38:03.8850,0.185,0.038,-1.446,-1.09,-1.59,4.88,49.27880531881468,-122.91039909095805,358.9304233677685,1.4049184322356836
2024-07-07 19:38:03.8950,0.152,0.033,-1.326,-0.85,-1.49,3.72,49.27880531881468,-122.91039909095805,358.9304233677685,1.4049184322356836
2024-07-07 19:38:03.9060,0.126,0.034,-1.222,-0.6,-1.4,2.63,49.27880531881468,-122.91039909095805,358.9304233677685,1.4049184322356836
2024-07-07 19:38:03.9160,0.105,0.043,-1.137,-0.42,-1.38,1.69,49.27880531881468,-122.91039909095805,358.9304233677685,1.4049184322356836
2024-07-07 19:38:03.9260,0.087,0.068,-1.086,-0.26,-1.47,1.07,49.27880531881468,-122.91039909095805,358.9304233677685,1.4049184322356836
2024-07-07 19:38:03.9360,0.075,0.112,-1.057,-0.15,-1.74,0.67,49.27880531881468,-122.91039909095805,358.9304233677685,1.4049184322356836
2024-07-07 19:38:03.9460,0.067,0.174,-1.07,-0.06,-2.18,0.64,49.27880531881468,-122.91039909095805,358.9304233677685,1.4049184322356836
2024-07-07 19:38:03.9560,0.067,0.246,-1.1,-0.04,-2.77,0.91,49.27880531881468,-122.91039909095805,358.9304233677685,1.4049184322356836
2024-07-07 19:38:03.9660,0.074,0.316,-1.104,-0.14,-3.44,1.09,49.27880531881468,-122.91039909095805,358.9304233677685,1.4049184322356836
2024-07-07 19:38:03.9770,0.077,0.359,-1.073,-0.23,-3.93,0.89,49.27880531881468,-122.91039909095805,358.9304233677685,1.4049184322356836
2024-07-07 19:38:03.9860,0.06,0.364,-1.015,-0.24,-4.12,0.4,49.27880531881468,-122.91039909095805,358.9304233677685,1.4049184322356836
2024-07-07 19:38:03.9960,0.02,0.328,-0.932,0.04,-3.9,-0.3,49.27880531881468,-122.91039909095805,358.9304233677685,1.4049184322356836
2024-07-07 19:38:04.0060,-0.011,0.277,-0.836,0.33,-3.43,-1.26,49.27880531881468,-122.91039909095805,358.9304233677685,1.4049184322356836
2024-07-07 19:38:04.0160,-0.024,0.233,-0.766,0.46,-2.99,-2.04,49.27880531881468,-122.91039909095805,358.9304233677685,1.4049184322356836
2024-07-07 19:38:04.0270,-0.027,0.195,-0.705,0.46,-2.63,-2.67,49.27880531881468,-122.91039909095805,358.9304233677685,1.4049184322356836
2024-07-07 19:38:04.0370,-0.023,0.149,-0.661,0.4,-2.25,-3.17,49.27880531881468,-122.91039909095805,358.9304233677685,1.4049184322356836
2024-07-07 19:38:04.0470,-0.019,0.1,-0.63,0.32,-1.8,-3.52,49.27880531881468,-122.91039909095805,358.9304233677685,1.4049184322356836
2024-07-07 19:38:04.0570,-0.016,0.054,-0.61,0.28,-1.36,-3.74,49.27880531881468,-122.91039909095805,358.9304233677685,1.4049184322356836
2024-07-07 19:38:04.0670,-0.006,0.022,-0.594,0.2,-1.03,-3.9,49.27880531881468,-122.91039909095805,358.9304233677685,1.4049184322356836
2024-07-07 19:38:04.0770,0.005,-0.002,-0.581,0.08,-0.83,-4.04,49.27880531881468,-122.91039909095805,358.9304233677685,1.4049184322356836
2024-07-07 19:38:04.0870,0.016,-0.027,-0.574,-0.02,-0.65,-4.14,49.27880531881468,-122.91039909095805,358.9304233677685,1.4049184322356836
2024-07-07 19:38:04.0970,0.024,-0.058,-0.574,-0.09,-0.42,-4.15,49.27880531881468,-122.91039909095805,358.9304233677685,1.4049184322356836
2024-07-07 19:38:04.1070,0.032,-0.088,-0.574,-0.14,-0.17,-4.14,49.27880531881468,-122.91039909095805,358.9304233677685,1.4049184322356836
2024-07-07 19:38:04.1170,0.041,-0.115,-0.573,-0.18,0.04,-4.14,49.27880531881468,-122.91039909095805,358.9304233677685,1.4049184322356836
2024-07-07 19:38:04.1280,0.048,-0.143,-0.578,-0.21,0.24,-4.12,49.27880531881468,-122.91039909095805,358.9304233677685,1.4049184322356836
2024-07-07 19:38:04.1380,0.055,-0.167,-0.603,-0.21,0.43,-3.95,49.27880531881468,-122.91039909095805,358.9304233677685,1.4049184322356836
2024-07-07 19:38:04.1480,0.065,-0.184,-0.638,-0.25,0.56,-3.61,49.27880531881468,-122.91039909095805,358.9304233677685,1.4049184322356836
2024-07-07 19:38:04.1580,0.074,-0.199,-0.664,-0.29,0.64,-3.29,49.27880531881468,-122.91039909095805,358.9304233677685,1.4049184322356836
2024-07-07 19:38:04.1690,0.078,-0.213,-0.688,-0.28,0.73,-3.06,49.27879726843055,-122.91040913413272,358.9050389463082,1.4049184322356838
2024-07-07 19:38:04.1770,0.081,-0.22,-0.718,-0.24,0.78,-2.77,49.27879726843055,-122.91040913413272,358.9050389463082,1.4049184322356838
2024-07-07 19:38:04.1880,0.087,-0.216,-0.749,-0.24,0.73,-2.46,49.27879726843055,-122.91040913413272,358.9050389463082,1.4049184322356838
2024-07-07 19:38:04.1980,0.089,-0.21,-0.785,-0.24,0.63,-2.11,49.27879726843055,-122.91040913413272,358.9050389463082,1.4049184322356838
2024-07-07 19:38:04.2080,0.084,-0.209,-0.815,-0.16,0.56,-1.79,49.27879726843055,-122.91040913413272,358.9050389463082,1.4049184322356838
2024-07-07 19:38:04.2180,0.079,-0.217,-0.843,-0.07,0.58,-1.5,49.27879726843055,-122.91040913413272,358.9050389463082,1.4049184322356838
2024-07-07 19:38:04.2280,0.08,-0.221,-0.865,-0.02,0.6,-1.25,49.27879726843055,-122.91040913413272,358.9050389463082,1.4049184322356838
2024-07-07 19:38:04.2380,0.087,-0.23,-0.884,-0.04,0.61,-1.04,49.27879726843055,-122.91040913413272,358.9050389463082,1.4049184322356838
2024-07-07 19:38:04.2480,0.089,-0.246,-0.896,-0.06,0.71,-0.9,49.27879726843055,-122.91040913413272,358.9050389463082,1.4049184322356838
2024-07-07 19:38:04.2590,0.084,-0.266,-0.898,-0.01,0.85,-0.81,49.27879726843055,-122.91040913413272,358.9050389463082,1.4049184322356838
2024-07-07 19:38:04.2680,0.08,-0.291,-0.89,0.06,1.05,-0.87,49.27879726843055,-122.91040913413272,358.9050389463082,1.4049184322356838
2024-07-07 19:38:04.2790,0.077,-0.315,-0.899,0.12,1.26,-0.86,49.27879726843055,-122.91040913413272,358.9050389463082,1.4049184322356838
2024-07-07 19:38:04.2890,0.079,-0.334,-0.931,0.17,1.46,-0.62,49.27879726843055,-122.91040913413272,358.9050389463082,1.4049184322356838
2024-07-07 19:38:04.2990,0.087,-0.333,-0.979,0.15,1.52,-0.19,49.27879726843055,-122.91040913413272,358.9050389463082,1.4049184322356838
2024-07-07 19:38:04.3090,0.098,-0.317,-1.032,0.08,1.41,0.33,49.27879726843055,-122.91040913413272,358.9050389463082,1.4049184322356838
2024-07-07 19:38:04.3190,0.106,-0.298,-1.089,0.05,1.22,0.87,49.27879726843055,-122.91040913413272,358.9050389463082,1.4049184322356838
2024-07-07 19:38:04.3290,0.118,-0.289,-1.145,-0.01,1.09,1.45,49.27879726843055,-122.91040913413272,358.9050389463082,1.4049184322356838
2024-07-07 19:38:04.3390,0.136,-0.291,-1.185,-0.13,1.08,1.91,49.27879726843055,-122.91040913413272,358.9050389463082,1.4049184322356838
2024-07-07 19:38:04.3490,0.159,-0.297,-1.204,-0.3,1.14,2.18,49.27879726843055,-122.91040913413272,358.9050389463082,1.4049184322356838
2024-07-07 19:38:04.3590,0.182,-0.3,-1.222,-0.5,1.22,2.32,49.27879726843055,-122.91040913413272,358.9050389463082,1.4049184322356838
2024-07-07 19:38:04.3690,0.197,-0.297,-1.259,-0.65,1.25,2.6,49.27879726843055,-122.91040913413272,358.9050389463082,1.4049184322356838
2024-07-07 19:38:04.3790,0.199,-0.288,-1.308,-0.68,1.27,3.06,49.27879726843055,-122.91040913413272,358.9050389463082,1.4049184322356838
2024-07-07 19:38:04.3890,0.199,-0.255,-1.357,-0.63,1.16,3.51,49.27879726843055,-122.91040913413272,358.9050389463082,1.4049184322356838
2024-07-07 19:38:04.3990,0.204,-0.185,-1.423,-0.64,0.73,4.07,49.27879726843055,-122.91040913413272,358.9050389463082,1.4049184322356838
2024-07-07 19:38:04.4100,0.22,-0.083,-1.49,-0.73,-0.05,4.75,49.27879726843055,-122.91040913413272,358.9050389463082,1.4049184322356838
2024-07-07 19:38:04.4200,0.244,0.029,-1.535,-0.95,-1.03,5.28,49.27879726843055,-122.91040913413272,358.9050389463082,1.4049184322356838
2024-07-07 19:38:04.4300,0.274,0.117,-1.534,-1.24,-1.92,5.46,49.27879726843055,-122.91040913413272,358.9050389463082,1.4049184322356838
2024-07-07 19:38:04.4400,0.306,0.159,-1.475,-1.6,-2.43,5.05,49.27879726843055,-122.91040913413272,358.9050389463082,1.4049184322356838
2024-07-07 19:38:04.4500,0.331,0.154,-1.39,-1.92,-2.51,4.27,49.27879726843055,-122.91040913413272,358.9050389463082,1.4049184322356838
2024-07-07 19:38:04.4600,0.353,0.115,-1.306,-2.17,-2.2,3.4,49.27879726843055,-122.91040913413272,358.9050389463082,1.4049184322356838
2024-07-07 19:38:04.4700,0.383,0.073,-1.243,-2.46,-1.78,2.71,49.27879726843055,-122.91040913413272,358.9050389463082,1.4049184322356838
2024-07-07 19:38:04.4800,0.426,0.034,-1.186,-2.87,-1.39,2.14,49.27879726843055,-122.91040913413272,358.9050389463082,1.4049184322356838
2024-07-07 19:38:04.4900,0.466,0.0,-1.137,-3.32,-1.06,1.61,49.27879726843055,-122.91040913413272,358.9050389463082,1.4049184322356838
2024-07-07 19:38:04.5000,0.492,-0.03,-1.1,-3.64,-0.78,1.22,49.27879726843055,-122.91040913413272,358.9050389463082,1.4049184322356838
2024-07-07 19:38:04.5110,0.509,-0.055,-1.057,-3.87,-0.55,0.83,49.27879726843055,-122.91040913413272,358.9050389463082,1.4049184322356838
2024-07-07 19:38:04.5200,0.518,-0.071,-1.016,-4.01,-0.4,0.4,49.27879726843055,-122.91040913413272,358.9050389463082,1.4049184322356838
2024-07-07 19:38:04.5300,0.509,-0.079,-0.985,-4.03,-0.32,0.06,49.27879726843055,-122.91040913413272,358.9050389463082,1.4049184322356838
2024-07-07 19:38:04.5400,0.482,-0.083,-0.952,-3.87,-0.29,-0.23,49.27879726843055,-122.91040913413272,358.9050389463082,1.4049184322356838
2024-07-07 19:38:04.5510,0.437,-0.086,-0.909,-3.55,-0.28,-0.63,49.27879726843055,-122.91040913413272,358.9050389463082,1.4049184322356838
2024-07-07 19:38:04.5610,0.383,-0.088,-0.868,-3.1,-0.24,-1.06,49.27879726843055,-122.91040913413272,358.9050389463082,1.4049184322356838
2024-07-07 19:38:04.5710,0.33,-0.087,-0.82,-2.67,-0.23,-1.48,49.27879726843055,-122.91040913413272,358.9050389463082,1.4049184322356838
2024-07-07 19:38:04.5810,0.274,-0.084,-0.762,-2.22,-0.24,-2.05,49.27879726843055,-122.91040913413272,358.9050389463082,1.4049184322356838
2024-07-07 19:38:04.5910,0.224,-0.088,-0.711,-1.79,-0.2,-2.58,49.27879726843055,-122.91040913413272,358.9050389463082,1.4049184322356838
2024-07-07 19:38:04.6010,0.181,-0.096,-0.662,-1.44,-0.1,-3.08,49.27879726843055,-122.91040913413272,358.9050389463082,1.4049184322356838
2024-07-07 19:38:04.6110,0.14,-0.11,-0.62,-1.12,0.04,-3.53,49.27879726843055,-122.91040913413272,358.9050389463082,1.4049184322356838
2024-07-07 19:38:04.6210,0.101,-0.124,-0.592,-0.8,0.22,-3.87,49.27879726843055,-122.91040913413272,358.9050389463082,1.4049184322356838
2024-07-07 19:38:04.6310,0.066,-0.139,-0.576,-0.5,0.39,-4.08,49.27879726843055,-122.91040913413272,358.9050389463082,1.4049184322356838
2024-07-07 19:38:04.6410,0.037,-0.149,-0.576,-0.22,0.54,-4.13,49.27879726843055,-122.91040913413272,358.9050389463082,1.4049184322356838
2024-07-07 19:38:04.6510,0.011,-0.156,-0.584,0.01,0.63,-4.08,49.27879726843055,-122.91040913413272,358.9050389463082,1.4049184322356838
2024-07-07 19:38:04.6620,-0.02,-0.158,-0.604,0.29,0.67,-3.93,49.27879726843055,-122.91040913413272,358.9050389463082,1.4049184322356838
2024-07-07 19:38:04.6720,-0.046,-0.157,-0.627,0.59,0.66,-3.7,49.27879726843055,-122.91040913413272,358.9050389463082,1.4049184322356838
2024-07-07 19:38:04.6820,-0.068,-0.154,-0.65,0.82,0.63,-3.49,49.27879726843055,-122.91040913413272,358.9050389463082,1.4049184322356838
2024-07-07 19:38:04.6920,-0.085,-0.152,-0.677,1.02,0.59,-3.22,49.27879726843055,-122.91040913413272,358.9050389463082,1.4049184322356838
2024-07-07 19:38:04.7020,-0.094,-0.153,-0.695,1.16,0.57,-3.0,49.27879726843055,-122.91040913413272,358.9050389463082,1.4049184322356838
2024-07-07 19:38:04.7120,-0.101,-0.162,-0.706,1.26,0.62,-2.88,49.27879726843055,-122.91040913413272,358.9050389463082,1.4049184322356838
2024-07-07 19:38:04.7220,-0.099,-0.184,-0.718,1.29,0.77,-2.78,49.27879726843055,-122.91040913413272,358.9050389463082,1.4049184322356838
2024-07-07 19:38:04.7320,-0.095,-0.209,-0.743,1.27,1.01,-2.59,49.27879726843055,-122.91040913413272,358.9050389463082,1.4049184322356838
2024-07-07 19:38:04.7420,-0.089,-0.228,-0.78,1.25,1.22,-2.25,49.27879726843055,-122.91040913413272,358.9050389463082,1.4049184322356838
2024-07-07 19:38:04.7520,-0.086,-0.241,-0.812,1.2,1.35,-1.9,49.27879726843055,-122.91040913413272,358.9050389463082,1.4049184322356838
2024-07-07 19:38:04.7620,-0.089,-0.254,-0.832,1.22,1.47,-1.67,49.27879726843055,-122.91040913413272,358.9050389463082,1.4049184322356838
2024-07-07 19:38:04.7720,-0.095,-0.26,-0.849,1.27,1.56,-1.5,49.27879726843055,-122.91040913413272,358.9050389463082,1.4049184322356838
2024-07-07 19:38:04.7820,-0.105,-0.253,-0.868,1.35,1.52,-1.31,49.27879726843055,-122.91040913413272,358.9050389463082,1.4049184322356838
2024-07-07 19:38:04.7930,-0.117,-0.244,-0.882,1.45,1.4,-1.15,49.27879726843055,-122.91040913413272,358.9050389463082,1.4049184322356838
2024-07-07 19:38:04.8030,-0.129,-0.24,-0.895,1.56,1.31,-1.03,49.27879726843055,-122.91040913413272,358.9050389463082,1.4049184322356838
2024-07-07 19:38:04.8130,-0.136,-0.239,-0.907,1.63,1.26,-0.88,49.27879726843055,-122.91040913413272,358.9050389463082,1.4049184322356838
2024-07-07 19:38:04.8230,-0.144,-0.245,-0.915,1.69,1.26,-0.8,49.27879726843055,-122.91040913413272,358.9050389463082,1.4049184322356838
2024-07-07 19:38:04.8330,-0.15,-0.257,-0.92,1.75,1.32,-0.73,49.27879726843055,-122.91040913413272,358.9050389463082,1.4049184322356838
2024-07-07 19:38:04.8430,-0.151,-0.271,-0.929,1.77,1.42,-0.68,49.27879726843055,-122.91040913413272,358.9050389463082,1.4049184322356838
2024-07-07 19:38:04.8530,-0.142,-0.283,-0.952,1.73,1.51,-0.49,49.27879726843055,-122.91040913413272,358.9050389463082,1.4049184322356838
2024-07-07 19:38:04.8630,-0.126,-0.289,-0.981,1.59,1.56,-0.23,49.27879726843055,-122.91040913413272,358.9050389463082,1.4049184322356838
2024-07-07 19:38:04.8730,-0.108,-0.278,-1.024,1.43,1.48,0.15,49.27879726843055,-122.91040913413272,358.9050389463082,1.4049184322356838
2024-07-07 19:38:04.8830,-0.084,-0.259,-1.075,1.23,1.27,0.64,49.27879726843055,-122.91040913413272,358.9050389463082,1.4049184322356838
2024-07-07 19:38:04.8940,-0.059,-0.239,-1.124,0.98,1.03,1.15,49.27879726843055,-122.91040913413272,358.9050389463082,1.4049184322356838
2024-07-07 19:38:04.9030,-0.041,-0.231,-1.158,0.79,0.85,1.55,49.27879726843055,-122.91040913413272,358.9050389463082,1.4049184322356838
2024-07-07 19:38:04.9130,-0.029,-0.234,-1.179,0.67,0.81,1.8,49.27879726843055,-122.91040913413272,358.9050389463082,1.4049184322356838
2024-07-07 19:38:04.9240,-0.007,-0.234,-1.209,0.54,0.8,2.03,49.27879726843055,-122.91040913413272,358.9050389463082,1.4049184322356838
2024-07-07 19:38:04.9330,0.021,-0.223,-1.267,0.3,0.69,2.51,49.27879726843055,-122.91040913413272,358.9050389463082,1.4049184322356838
2024-07-07 19:38:04.9440,0.04,-0.221,-1.327,0.12,0.6,3.13,49.27879726843055,-122.91040913413272,358.9050389463082,1.4049184322356838
2024-07-07 19:38:04.9540,0.055,-0.217,-1.366,0.01,0.59,3.6,49.27879726843055,-122.91040913413272,358.9050389463082,1.4049184322356838
2024-07-07 19:38:04.9640,0.082,-0.197,-1.393,-0.14,0.48,3.9,49.27879726843055,-122.91040913413272,358.9050389463082,1.4049184322356838
2024-07-07 19:38:04.9740,0.122,-0.157,-1.423,-0.46,0.18,4.14,49.27879726843055,-122.91040913413272,358.9050389463082,1.4049184322356838
2024-07-07 19:38:04.9840,0.153,-0.11,-1.507,-0.77,-0.21,4.72,49.27879726843055,-122.91040913413272,358.9050389463082,1.4049184322356838
2024-07-07 19:38:04.9940,0.177,-0.057,-1.614,-0.98,-0.64,5.77,49.27879726843055,-122.91040913413272,358.9050389463082,1.4049184322356838
2024-07-07 19:38:05.0040,0.199,-0.002,-1.67,-1.22,-1.11,6.56,49.27879726843055,-122.91040913413272,358.9050389463082,1.4049184322356838
2024-07-07 19:38:05.0140,0.201,0.049,-1.651,-1.36,-1.59,6.64,49.27879726843055,-122.91040913413272,358.9050389463082,1.4049184322356838
2024-07-07 19:38:05.0240,0.175,0.075,-1.546,-1.3,-1.93,5.93,49.27879726843055,-122.91040913413272,358.9050389463082,1.4049184322356838
2024-07-07 19:38:05.0340,0.113,0.06,-1.381,-0.9,-1.92,4.45,49.27879726843055,-122.91040913413272,358.9050389463082,1.4049184322356838
2024-07-07 19:38:05.0450,0.05,0.023,-1.22,-0.32,-1.61,2.81,49.27879726843055,-122.91040913413272,358.9050389463082,1.4049184322356838
2024-07-07 19:38:05.0540,0.008,-0.01,-1.089,0.1,-1.26,1.38,49.27879726843055,-122.91040913413272,358.9050389463082,1.4049184322356838
2024-07-07 19:38:05.0640,-0.016,-0.038,-0.999,0.35,-0.98,0.36,49.27879726843055,-122.91040913413272,358.9050389463082,1.4049184322356838
2024-07-07 19:38:05.0750,-0.031,-0.058,-0.943,0.51,-0.75,-0.32,49.27879726843055,-122.91040913413272,358.9050389463082,1.4049184322356838
2024-07-07 19:38:05.0850,-0.034,-0.066,-0.917,0.58,-0.62,-0.66,49.27879726843055,-122.91040913413272,358.9050389463082,1.4049184322356838
2024-07-07 19:38:05.0950,-0.022,-0.058,-0.923,0.54,-0.64,-0.74,49.27879726843055,-122.91040913413272,358.9050389463082,1.4049184322356838
2024-07-07 19:38:05.1050,0.001,-0.034,-0.95,0.38,-0.84,-0.52,49.27879726843055,-122.91040913413272,358.9050389463082,1.4049184322356838
2024-07-07 19:38:05.1150,0.021,-0.004,-0.978,0.19,-1.15,-0.21,49.27879726843055,-122.91040913413272,358.9050389463082,1.4049184322356838
2024-07-07 19:38:05.1250,0.029,0.013,-0.984,0.09,-1.4,-0.07,49.27879726843055,-122.91040913413272,358.9050389463082,1.4049184322356838
2024-07-07 19:38:05.1350,0.028,0.012,-0.972,0.1,-1.48,-0.12,49.27879726843055,-122.91040913413272,358.9050389463082,1.4049184322356838
2024-07-07 19:38:05.1460,0.022,0.005,-0.946,0.17,-1.45,-0.32,49.27879726843055,-122.91040913413272,358.9050389463082,1.4049184322356838
2024-07-07 19:38:05.1550,0.014,-0.0,-0.917,0.26,-1.42,-0.6,49.27879726843055,-122.91040913413272,358.9050389463082,1.4049184322356838
2024-07-07 19:38:05.1680,0.007,-0.006,-0.884,0.34,-1.4,-0.9,49.278789564737544,-122.91041710452136,358.84038258716464,1.3317834138869948
2024-07-07 19:38:05.1750,-0.0,-0.012,-0.849,0.42,-1.36,-1.24,49.278789564737544,-122.91041710452136,358.84038258716464,1.3317834138869948
2024-07-07 19:38:05.1860,-0.003,-0.024,-0.821,0.46,-1.3,-1.54,49.278789564737544,-122.91041710452136,358.84038258716464,1.3317834138869948
2024-07-07 19:38:05.1960,0.0,-0.039,-0.789,0.44,-1.16,-1.83,49.278789564737544,-122.91041710452136,358.84038258716464,1.3317834138869948
2024-07-07 19:38:05.2060,0.002,-0.057,-0.756,0.39,-1.0,-2.15,49.278789564737544,-122.91041710452136,358.84038258716464,1.3317834138869948
2024-07-07 19:38:05.2160,0.004,-0.076,-0.719,0.37,-0.84,-2.5,49.278789564737544,-122.91041710452136,358.84038258716464,1.3317834138869948
2024-07-07 19:38:05.2260,0.01,-0.101,-0.691,0.31,-0.64,-2.82,49.278789564737544,-122.91041710452136,358.84038258716464,1.3317834138869948
2024-07-07 19:38:05.2360,0.015,-0.127,-0.669,0.24,-0.39,-3.04,49.278789564737544,-122.91041710452136,358.84038258716464,1.3317834138869948
2024-07-07 19:38:05.2460,0.021,-0.148,-0.649,0.17,-0.19,-3.25,49.278789564737544,-122.91041710452136,358.84038258716464,1.3317834138869948
2024-07-07 19:38:05.2560,0.023,-0.166,-0.64,0.14,-0.02,-3.38,49.278789564737544,-122.91041710452136,358.84038258716464,1.3317834138869948
2024-07-07 19:38:05.2660,0.022,-0.177,-0.636,0.14,0.09,-3.42,49.278789564737544,-122.91041710452136,358.84038258716464,1.3317834138869948
2024-07-07 19:38:05.2760,0.02,-0.184,-0.63,0.16,0.14,-3.48,49.278789564737544,-122.91041710452136,358.84038258716464,1.3317834138869948
2024-07-07 19:38:05.2860,0.017,-0.19,-0.634,0.2,0.18,-3.47,49.278789564737544,-122.91041710452136,358.84038258716464,1.3317834138869948
2024-07-07 19:38:05.2960,0.016,-0.195,-0.644,0.23,0.22,-3.39,49.278789564737544,-122.91041710452136,358.84038258716464,1.3317834138869948
2024-07-07 19:38:05.3060,0.02,-0.197,-0.665,0.23,0.25,-3.23,49.278789564737544,-122.91041710452136,358.84038258716464,1.3317834138869948
2024-07-07 19:38:05.3160,0.032,-0.198,-0.693,0.15,0.25,-2.97,49.278789564737544,-122.91041710452136,358.84038258716464,1.3317834138869948
2024-07-07 19:38:05.3270,0.042,-0.198,-0.728,0.05,0.26,-2.65,49.278789564737544,-122.91041710452136,358.84038258716464,1.3317834138869948
2024-07-07 19:38:05.3370,0.053,-0.194,-0.763,-0.03,0.24,-2.3,49.278789564737544,-122.91041710452136,358.84038258716464,1.3317834138869948
2024-07-07 19:38:05.3470,0.065,-0.188,-0.794,-0.15,0.17,-1.97,49.278789564737544,-122.91041710452136,358.84038258716464,1.3317834138869948
2024-07-07 19:38:05.3570,0.072,-0.188,-0.807,-0.24,0.14,-1.77,49.278789564737544,-122.91041710452136,358.84038258716464,1.3317834138869948
2024-07-07 19:38:05.3670,0.078,-0.19,-0.805,-0.29,0.14,-1.74,49.278789564737544,-122.91041710452136,358.84038258716464,1.3317834138869948
2024-07-07 19:38:05.3770,0.084,-0.198,-0.81,-0.36,0.18,-1.74,49.278789564737544,-122.91041710452136,358.84038258716464,1.3317834138869948
2024-07-07 19:38:05.3870,0.084,-0.211,-0.816,-0.38,0.26,-1.66,49.278789564737544,-122.91041710452136,358.84038258716464,1.3317834138869948
2024-07-07 19:38:05.3970,0.08,-0.226,-0.822,-0.37,0.38,-1.6,49.278789564737544,-122.91041710452136,358.84038258716464,1.3317834138869948
2024-07-07 19:38:05.4070,0.074,-0.24,-0.825,-0.3,0.5,-1.55,49.278789564737544,-122.91041710452136,358.84038258716464,1.3317834138869948
2024-07-07 19:38:05.4170,0.064,-0.247,-0.838,-0.22,0.57,-1.49,49.278789564737544,-122.91041710452136,358.84038258716464,1.3317834138869948
2024-07-07 19:38:05.4270,0.054,-0.244,-0.875,-0.09,0.56,-1.2,49.278789564737544,-122.91041710452136,358.84038258716464,1.3317834138869948
2024-07-07 19:38:05.4370,0.054,-0.228,-0.928,-0.04,0.43,-0.72,49.278789564737544,-122.91041710452136,358.84038258716464,1.3317834138869948
2024-07-07 19:38:05.4470,0.053,-0.209,-0.973,-0.04,0.2,-0.22,49.278789564737544,-122.91041710452136,358.84038258716464,1.3317834138869948
2024-07-07 19:38:05.4580,0.045,-0.207,-0.999,0.04,0.07,0.11,49.278789564737544,-122.91041710452136,358.84038258716464,1.3317834138869948
2024-07-07 19:38:05.4670,0.041,-0.22,-1.006,0.12,0.13,0.27,49.278789564737544,-122.91041710452136,358.84038258716464,1.3317834138869948
2024-07-07 19:38:05.4780,0.049,-0.244,-0.995,0.12,0.27,0.23,49.278789564737544,-122.91041710452136,358.84038258716464,1.3317834138869948
2024-07-07 19:38:05.4880,0.069,-0.29,-0.978,0.0,0.58,0.08,49.278789564737544,-122.91041710452136,358.84038258716464,1.3317834138869948
2024-07-07 19:38:05.4980,0.092,-0.349,-0.977,-0.16,1.12,-0.04,49.278789564737544,-122.91041710452136,358.84038258716464,1.3317834138869948
2024-07-07 19:38:05.5080,0.113,-0.387,-1.039,-0.27,1.59,0.33,49.278789564737544,-122.91041710452136,358.84038258716464,1.3317834138869948
2024-07-07 19:38:05.5180,0.15,-0.394,-1.141,-0.47,1.78,1.27,49.278789564737544,-122.91041710452136,358.84038258716464,1.3317834138869948
2024-07-07 19:38:05.5280,0.196,-0.371,-1.222,-0.83,1.71,2.17,49.278789564737544,-122.91041710452136,358.84038258716464,1.3317834138869948
2024-07-07 19:38:05.5380,0.239,-0.312,-1.274,-1.17,1.3,2.78,49.278789564737544,-122.91041710452136,358.84038258716464,1.3317834138869948
2024-07-07 19:38:05.5480,0.286,-0.233,-1.319,-1.54,0.63,3.18,49.278789564737544,-122.91041710452136,358.84038258716464,1.3317834138869948
2024-07-07 19:38:05.5580,0.325,-0.155,-1.41,-1.88,-0.07,3.9,49.278789564737544,-122.91041710452136,358.84038258716464,1.3317834138869948
2024-07-07 19:38:05.5680,0.354,-0.079,-1.493,-2.14,-0.73,4.82,49.278789564737544,-122.91041710452136,358.84038258716464,1.3317834138869948
2024-07-07 19:38:05.5780,0.372,-0.007,-1.538,-2.32,-1.36,5.36,49.278789564737544,-122.91041710452136,358.84038258716464,1.3317834138869948
2024-07-07 19:38:05.5880,0.373,0.061,-1.563,-2.39,-1.96,5.69,49.278789564737544,-122.91041710452136,358.84038258716464,1.3317834138869948
2024-07-07 19:38:05.5980,0.362,0.114,-1.532,-2.33,-2.48,5.62,49.278789564737544,-122.91041710452136,358.84038258716464,1.3317834138869948
2024-07-07 19:38:05.6080,0.345,0.131,-1.43,-2.21,-2.76,4.85,49.278789564737544,-122.91041710452136,358.84038258716464,1.3317834138869948
2024-07-07 19:38:05.6180,0.319,0.111,-1.308,-2.01,-2.65,3.63,49.278789564737544,-122.91041710452136,358.84038258716464,1.3317834138869948
2024-07-07 19:38:05.6290,0.305,0.077,-1.198,-1.82,-2.33,2.52,49.278789564737544,-122.91041710452136,358.84038258716464,1.3317834138869948
2024-07-07 19:38:05.6390,0.307,0.044,-1.104,-1.79,-2.0,1.51,49.278789564737544,-122.91041710452136,358.84038258716464,1.3317834138869948
2024-07-07 19:38:05.6490,0.314,0.007,-1.063,-1.82,-1.65,0.88,49.278789564737544,-122.91041710452136,358.84038258716464,1.3317834138869948
2024-07-07 19:38:05.6590,0.328,-0.024,-1.065,-1.91,-1.32,0.8,49.278789564737544,-122.91041710452136,358.84038258716464,1.3317834138869948
2024-07-07 19:38:05.6690,0.336,-0.046,-1.065,-1.99,-1.09,0.85,49.278789564737544,-122.91041710452136,358.84038258716464,1.3317834138869948
2024-07-07 19:38:05.6790,0.332,-0.061,-1.035,-1.97,-0.96,0.69,49.278789564737544,-122.91041710452136,358.84038258716464,1.3317834138869948
2024-07-07 19:38:05.6890,0.311,-0.081,-0.983,-1.81,-0.83,0.25,49.278789564737544,-122.91041710452136,358.84038258716464,1.3317834138869948
