time,gFx,gFy,gFz,ax,ay,az,latitude,longitude,altitude,speed
2024-07-07 19:39:28.6350,0.072,-0.456,-1.279,-0.29,0.52,3.55,49.27808626817057,-122.91125991206958,355.83862760011107,1.0213917139739603
2024-07-07 19:39:58.4280,0.055,-0.416,-1.251,-0.29,0.52,3.55,49.27808626817057,-122.91125991206958,355.83862760011107,1.0213917139739603
2024-07-07 19:39:58.4310,0.047,-0.377,-1.163,-0.16,0.21,3.16,49.27808626817057,-122.91125991206958,355.83862760011107,1.0213917139739603
2024-07-07 19:39:58.4410,0.027,-0.34,-1.051,-0.11,-0.11,2.22,49.27808626817057,-122.91125991206958,355.83862760011107,1.0213917139739603
2024-07-07 19:39:58.4510,-0.007,-0.318,-0.945,0.1,-0.43,1.09,49.27808626817057,-122.91125991206958,355.83862760011107,1.0213917139739603
2024-07-07 19:39:58.4610,-0.032,-0.304,-0.864,0.43,-0.62,0.07,49.27808626817057,-122.91125991206958,355.83862760011107,1.0213917139739603
2024-07-07 19:39:58.4720,-0.054,-0.285,-0.826,0.69,-0.78,-0.67,49.27808626817057,-122.91125991206958,355.83862760011107,1.0213917139739603
2024-07-07 19:39:58.4820,-0.07,-0.267,-0.825,0.94,-1.0,-0.97,49.27808626817057,-122.91125991206958,355.83862760011107,1.0213917139739603
2024-07-07 19:39:58.4930,-0.077,-0.252,-0.849,1.15,-1.2,-0.93,49.27808626817057,-122.91125991206958,355.83862760011107,1.0213917139739603
2024-07-07 19:39:58.5030,-0.066,-0.243,-0.897,1.28,-1.37,-0.65,49.27808626817057,-122.91125991206958,355.83862760011107,1.0213917139739603
2024-07-07 19:39:58.5120,-0.035,-0.24,-0.96,1.21,-1.47,-0.13,49.27808626817057,-122.91125991206958,355.83862760011107,1.0213917139739603
2024-07-07 19:39:58.5220,-0.003,-0.233,-1.013,0.96,-1.52,0.49,49.27808626817057,-122.91125991206958,355.83862760011107,1.0213917139739603
2024-07-07 19:39:58.5320,0.019,-0.222,-1.045,0.7,-1.6,1.0,49.27808626817057,-122.91125991206958,355.83862760011107,1.0213917139739603
2024-07-07 19:39:58.5430,0.029,-0.216,-1.041,0.53,-1.72,1.28,49.27808626817057,-122.91125991206958,355.83862760011107,1.0213917139739603
2024-07-07 19:39:58.5520,0.031,-0.217,-1.004,0.47,-1.77,1.2,49.27808626817057,-122.91125991206958,355.83862760011107,1.0213917139739603
2024-07-07 19:39:58.5630,0.033,-0.224,-0.95,0.45,-1.75,0.8,49.27808626817057,-122.91125991206958,355.83862760011107,1.0213917139739603
2024-07-07 19:39:58.5720,0.038,-0.234,-0.9,0.42,-1.67,0.27,49.27808626817057,-122.91125991206958,355.83862760011107,1.0213917139739603
2024-07-07 19:39:58.5820,0.045,-0.245,-0.853,0.36,-1.56,-0.22,49.27808626817057,-122.91125991206958,355.83862760011107,1.0213917139739603
2024-07-07 19:39:58.5930,0.051,-0.255,-0.81,0.27,-1.43,-0.69,49.27808626817057,-122.91125991206958,355.83862760011107,1.0213917139739603
2024-07-07 19:39:58.6030,0.054,-0.261,-0.771,0.21,-1.33,-1.11,49.27808626817057,-122.91125991206958,355.83862760011107,1.0213917139739603
2024-07-07 19:39:58.6130,0.056,-0.27,-0.741,0.17,-1.26,-1.49,49.27808626817057,-122.91125991206958,355.83862760011107,1.0213917139739603
2024-07-07 19:39:58.6230,0.056,-0.276,-0.725,0.14,-1.17,-1.76,49.27808626817057,-122.91125991206958,355.83862760011107,1.0213917139739603
2024-07-07 19:39:58.6330,0.054,-0.283,-0.714,0.14,-1.11,-1.91,49.27808626817057,-122.91125991206958,355.83862760011107,1.0213917139739603
2024-07-07 19:39:58.6430,0.054,-0.295,-0.697,0.16,-1.04,-2.03,49.27808626817057,-122.91125991206958,355.83862760011107,1.0213917139739603
2024-07-07 19:39:58.6530,0.047,-0.311,-0.685,0.16,-0.93,-2.19,49.27808626817057,-122.91125991206958,355.83862760011107,1.0213917139739603
2024-07-07 19:39:58.6630,0.042,-0.333,-0.674,0.22,-0.77,-2.3,49.27808626817057,-122.91125991206958,355.83862760011107,1.0213917139739603
2024-07-07 19:39:58.6730,0.039,-0.357,-0.661,0.28,-0.56,-2.4,49.27808626817057,-122.91125991206958,355.83862760011107,1.0213917139739603
2024-07-07 19:39:58.6830,0.035,-0.373,-0.652,0.31,-0.34,-2.52,49.27808626817057,-122.91125991206958,355.83862760011107,1.0213917139739603
2024-07-07 19:39:58.6940,0.036,-0.385,-0.649,0.36,-0.2,-2.6,49.27808626817057,-122.91125991206958,355.83862760011107,1.0213917139739603
2024-07-07 19:39:58.7040,0.039,-0.39,-0.659,0.35,-0.08,-2.62,49.27808626817057,-122.91125991206958,355.83862760011107,1.0213917139739603
2024-07-07 19:39:58.7140,0.042,-0.383,-0.678,0.34,-0.05,-2.5,49.27808626817057,-122.91125991206958,355.83862760011107,1.0213917139739603
2024-07-07 19:39:58.7240,0.043,-0.372,-0.697,0.33,-0.13,-2.31,49.27808626817057,-122.91125991206958,355.83862760011107,1.0213917139739603
2024-07-07 19:39:58.7340,0.044,-0.363,-0.72,0.33,-0.22,-2.12,49.27808626817057,-122.91125991206958,355.83862760011107,1.0213917139739603
2024-07-07 19:39:58.7440,0.051,-0.362,-0.734,0.34,-0.31,-1.91,49.27808626817057,-122.91125991206958,355.83862760011107,1.0213917139739603
2024-07-07 19:39:58.7540,0.063,-0.375,-0.753,0.27,-0.29,-1.78,49.27808626817057,-122.91125991206958,355.83862760011107,1.0213917139739603
2024-07-07 19:39:58.7640,0.076,-0.392,-0.766,0.16,-0.14,-1.58,49.27808626817057,-122.91125991206958,355.83862760011107,1.0213917139739603
2024-07-07 19:39:58.7740,0.082,-0.406,-0.772,0.05,0.02,-1.47,49.27808626817057,-122.91125991206958,355.83862760011107,1.0213917139739603
2024-07-07 19:39:58.7840,0.079,-0.415,-0.775,0.01,0.17,-1.42,49.27808626817057,-122.91125991206958,355.83862760011107,1.0213917139739603
2024-07-07 19:39:58.7940,0.069,-0.421,-0.777,0.06,0.25,-1.4,49.27808626817057,-122.91125991206958,355.83862760011107,1.0213917139739603
2024-07-07 19:39:58.8040,0.062,-0.428,-0.778,0.16,0.32,-1.38,49.27808626817057,-122.91125991206958,355.83862760011107,1.0213917139739603
2024-07-07 19:39:58.8140,0.051,-0.437,-0.785,0.24,0.39,-1.37,49.27808626817057,-122.91125991206958,355.83862760011107,1.0213917139739603
2024-07-07 19:39:58.8250,0.043,-0.447,-0.787,0.37,0.5,-1.3,49.27808626817057,-122.91125991206958,355.83862760011107,1.0213917139739603
2024-07-07 19:39:58.8340,0.038,-0.456,-0.793,0.45,0.6,-1.29,49.27808626817057,-122.91125991206958,355.83862760011107,1.0213917139739603
2024-07-07 19:39:58.8450,0.027,-0.468,-0.819,0.53,0.71,-1.21,49.27808626817057,-122.91125991206958,355.83862760011107,1.0213917139739603
2024-07-07 19:39:58.8560,0.019,-0.476,-0.858,0.66,0.84,-0.94,49.27808626817057,-122.91125991206958,355.83862760011107,1.0213917139739603
2024-07-07 19:39:58.8650,0.018,-0.481,-0.893,0.76,0.93,-0.55,49.27808626817057,-122.91125991206958,355.83862760011107,1.0213917139739603
2024-07-07 19:39:58.8750,0.015,-0.484,-0.919,0.8,0.98,-0.23,49.27808626817057,-122.91125991206958,355.83862760011107,1.0213917139739603
2024-07-07 19:39:58.8850,0.014,-0.49,-0.954,0.86,1.04,0.02,49.27808626817057,-122.91125991206958,355.83862760011107,1.0213917139739603
2024-07-07 19:39:58.8950,0.014,-0.495,-0.983,0.9,1.13,0.36,49.27808626817057,-122.91125991206958,355.83862760011107,1.0213917139739603
2024-07-07 19:39:58.9050,0.031,-0.488,-1.015,0.92,1.2,0.63,49.27808626817057,-122.91125991206958,355.83862760011107,1.0213917139739603
2024-07-07 19:39:58.9150,0.061,-0.476,-1.034,0.76,1.16,0.93,49.27808626817057,-122.91125991206958,355.83862760011107,1.0213917139739603
2024-07-07 19:39:58.9250,0.098,-0.469,-1.048,0.5,1.09,1.08,49.27808626817057,-122.91125991206958,355.83862760011107,1.0213917139739603
2024-07-07 19:39:58.9360,0.136,-0.472,-1.086,0.19,1.11,1.21,49.27808626817057,-122.91125991206958,355.83862760011107,1.0213917139739603
2024-07-07 19:39:58.9450,0.17,-0.473,-1.176,-0.12,1.25,1.61,49.27808626817057,-122.91125991206958,355.83862760011107,1.0213917139739603
2024-07-07 19:39:58.9560,0.211,-0.449,-1.283,-0.4,1.37,2.5,49.27808626817057,-122.91125991206958,355.83862760011107,1.0213917139739603
2024-07-07 19:39:58.9650,0.249,-0.399,-1.382,-0.77,1.25,3.5,49.27808626817057,-122.91125991206958,355.83862760011107,1.0213917139739603
2024-07-07 19:39:58.9760,0.275,-0.335,-1.459,-1.1,0.89,4.41,49.27808626817057,-122.91125991206958,355.83862760011107,1.0213917139739603
2024-07-07 19:39:58.9860,0.29,-0.269,-1.483,-1.34,0.39,5.07,49.27808626817057,-122.91125991206958,355.83862760011107,1.0213917139739603
2024-07-07 19:39:58.9960,0.295,-0.218,-1.459,-1.49,-0.14,5.2,49.27808626817057,-122.91125991206958,355.83862760011107,1.0213917139739603
2024-07-07 19:39:59.0070,0.283,-0.199,-1.388,-1.57,-0.52,4.89,49.27808626817057,-122.91125991206958,355.83862760011107,1.0213917139739603
2024-07-07 19:39:59.0160,0.26,-0.205,-1.273,-1.47,-0.63,4.12,49.27808626817057,-122.91125991206958,355.83862760011107,1.0213917139739603
2024-07-07 19:39:59.0260,0.239,-0.209,-1.16,-1.27,-0.56,2.95,49.27808626817057,-122.91125991206958,355.83862760011107,1.0213917139739603
2024-07-07 19:39:59.0360,0.229,-0.204,-1.073,-1.11,-0.54,1.87,49.27808626817057,-122.91125991206958,355.83862760011107,1.0213917139739603
2024-07-07 19:39:59.0460,0.215,-0.201,-1.013,-1.03,-0.6,1.05,49.27808626817057,-122.91125991206958,355.83862760011107,1.0213917139739603
2024-07-07 19:39:59.0560,0.204,-0.201,-0.978,-0.89,-0.64,0.49,49.27808626817057,-122.91125991206958,355.83862760011107,1.0213917139739603
2024-07-07 19:39:59.0660,0.208,-0.197,-0.971,-0.78,-0.64,0.19,49.27808626817057,-122.91125991206958,355.83862760011107,1.0213917139739603
2024-07-07 19:39:59.0760,0.234,-0.187,-0.981,-0.83,-0.69,0.15,49.27808626817057,-122.91125991206958,355.83862760011107,1.0213917139739603
2024-07-07 19:39:59.0870,0.265,-0.183,-0.984,-1.08,-0.8,0.26,49.27808626817057,-122.91125991206958,355.83862760011107,1.0213917139739603
2024-07-07 19:39:59.0970,0.285,-0.189,-0.978,-1.35,-0.82,0.28,49.27808626817057,-122.91125991206958,355.83862760011107,1.0213917139739603
2024-07-07 19:39:59.1070,0.298,-0.187,-0.975,-1.51,-0.76,0.22,49.27808626817057,-122.91125991206958,355.83862760011107,1.0213917139739603
2024-07-07 19:39:59.1170,0.309,-0.175,-0.975,-1.62,-0.79,0.2,49.27808626817057,-122.91125991206958,355.83862760011107,1.0213917139739603
2024-07-07 19:39:59.1270,0.307,-0.165,-0.981,-1.71,-0.89,0.19,49.27808626817057,-122.91125991206958,355.83862760011107,1.0213917139739603
2024-07-07 19:39:59.1370,0.293,-0.147,-0.979,-1.68,-0.98,0.25,49.27808626817057,-122.91125991206958,355.83862760011107,1.0213917139739603
2024-07-07 19:39:59.1470,0.269,-0.127,-0.961,-1.55,-1.15,0.2,49.27808626817057,-122.91125991206958,355.83862760011107,1.0213917139739603
2024-07-07 19:39:59.1580,0.24,-0.121,-0.93,-1.32,-1.3,-0.01,49.27808626817057,-122.91125991206958,355.83862760011107,1.0213917139739603
2024-07-07 19:39:59.1670,0.211,-0.128,-0.89,-1.06,-1.31,-0.33,49.278089109892356,-122.9112803888647,356.01111386623234,1.4102823127328623
2024-07-07 19:39:59.1770,0.184,-0.141,-0.841,-0.81,-1.22,-0.74,49.278089109892356,-122.9112803888647,356.01111386623234,1.4102823127328623
2024-07-07 19:39:59.1870,0.161,-0.161,-0.788,-0.59,-1.08,-1.24,49.278089109892356,-122.9112803888647,356.01111386623234,1.4102823127328623
2024-07-07 19:39:59.1970,0.138,-0.182,-0.742,-0.39,-0.88,-1.76,49.278089109892356,-122.9112803888647,356.01111386623234,1.4102823127328623
2024-07-07 19:39:59.2080,0.121,-0.206,-0.706,-0.19,-0.68,-2.19,49.278089109892356,-122.9112803888647,356.01111386623234,1.4102823127328623
2024-07-07 19:39:59.2190,0.105,-0.234,-0.681,-0.04,-0.44,-2.54,49.278089109892356,-122.9112803888647,356.01111386623234,1.4102823127328623
2024-07-07 19:39:59.2280,0.096,-0.255,-0.665,0.11,-0.21,-2.77,49.278089109892356,-122.9112803888647,356.01111386623234,1.4102823127328623
2024-07-07 19:39:59.2380,0.086,-0.27,-0.662,0.18,-0.03,-2.9,49.278089109892356,-122.9112803888647,356.01111386623234,1.4102823127328623
2024-07-07 19:39:59.2480,0.077,-0.277,-0.666,0.29,0.08,-2.91,49.278089109892356,-122.9112803888647,356.01111386623234,1.4102823127328623
2024-07-07 19:39:59.2580,0.065,-0.283,-0.671,0.39,0.12,-2.86,49.278089109892356,-122.9112803888647,356.01111386623234,1.4102823127328623
2024-07-07 19:39:59.2680,0.055,-0.285,-0.682,0.51,0.16,-2.8,49.278089109892356,-122.9112803888647,356.01111386623234,1.4102823127328623
2024-07-07 19:39:59.2780,0.053,-0.281,-0.697,0.61,0.15,-2.68,49.278089109892356,-122.9112803888647,356.01111386623234,1.4102823127328623
2024-07-07 19:39:59.2880,0.053,-0.285,-0.718,0.63,0.11,-2.52,49.278089109892356,-122.9112803888647,356.01111386623234,1.4102823127328623
2024-07-07 19:39:59.2980,0.059,-0.291,-0.743,0.62,0.13,-2.29,49.278089109892356,-122.9112803888647,356.01111386623234,1.4102823127328623
2024-07-07 19:39:59.3090,0.069,-0.297,-0.753,0.56,0.18,-2.06,49.278089109892356,-122.9112803888647,356.01111386623234,1.4102823127328623
2024-07-07 19:39:59.3180,0.074,-0.311,-0.757,0.47,0.22,-1.98,49.278089109892356,-122.9112803888647,356.01111386623234,1.4102823127328623
2024-07-07 19:39:59.3280,0.081,-0.331,-0.761,0.42,0.36,-1.93,49.278089109892356,-122.9112803888647,356.01111386623234,1.4102823127328623
2024-07-07 19:39:59.3390,0.093,-0.348,-0.767,0.34,0.53,-1.89,49.278089109892356,-122.9112803888647,356.01111386623234,1.4102823127328623
2024-07-07 19:39:59.3480,0.102,-0.361,-0.778,0.23,0.67,-1.81,49.278089109892356,-122.9112803888647,356.01111386623234,1.4102823127328623
2024-07-07 19:39:59.3590,0.107,-0.37,-0.795,0.15,0.78,-1.7,49.278089109892356,-122.9112803888647,356.01111386623234,1.4102823127328623
2024-07-07 19:39:59.3690,0.112,-0.375,-0.821,0.1,0.84,-1.52,49.278089109892356,-122.9112803888647,356.01111386623234,1.4102823127328623
2024-07-07 19:39:59.3790,0.113,-0.374,-0.854,0.04,0.86,-1.23,49.278089109892356,-122.9112803888647,356.01111386623234,1.4102823127328623
2024-07-07 19:39:59.3890,0.111,-0.372,-0.879,0.03,0.84,-0.91,49.278089109892356,-122.9112803888647,356.01111386623234,1.4102823127328623
2024-07-07 19:39:59.3990,0.111,-0.376,-0.891,0.04,0.81,-0.68,49.278089109892356,-122.9112803888647,356.01111386623234,1.4102823127328623
2024-07-07 19:39:59.4090,0.111,-0.38,-0.912,0.02,0.85,-0.57,49.278089109892356,-122.9112803888647,356.01111386623234,1.4102823127328623
2024-07-07 19:39:59.4190,0.109,-0.372,-0.953,0.0,0.89,-0.35,49.278089109892356,-122.9112803888647,356.01111386623234,1.4102823127328623
2024-07-07 19:39:59.4290,0.11,-0.357,-1.003,0.0,0.81,0.07,49.278089109892356,-122.9112803888647,356.01111386623234,1.4102823127328623
2024-07-07 19:39:59.4390,0.114,-0.342,-1.053,-0.04,0.66,0.55,49.278089109892356,-122.9112803888647,356.01111386623234,1.4102823127328623
2024-07-07 19:39:59.4500,0.107,-0.333,-1.098,-0.09,0.53,1.03,49.278089109892356,-122.9112803888647,356.01111386623234,1.4102823127328623
2024-07-07 19:39:59.4590,0.101,-0.325,-1.129,-0.03,0.45,1.47,49.278089109892356,-122.9112803888647,356.01111386623234,1.4102823127328623
2024-07-07 19:39:59.4700,0.099,-0.32,-1.145,-0.01,0.35,1.75,49.278089109892356,-122.9112803888647,356.01111386623234,1.4102823127328623
2024-07-07 19:39:59.4810,0.104,-0.314,-1.158,0.0,0.27,1.91,49.278089109892356,-122.9112803888647,356.01111386623234,1.4102823127328623
2024-07-07 19:39:59.4900,0.116,-0.319,-1.172,-0.08,0.18,2.04,49.278089109892356,-122.9112803888647,356.01111386623234,1.4102823127328623
2024-07-07 19:39:59.5000,0.123,-0.35,-1.173,-0.21,0.21,2.2,49.278089109892356,-122.9112803888647,356.01111386623234,1.4102823127328623
2024-07-07 19:39:59.5100,0.131,-0.392,-1.138,-0.28,0.48,2.18,49.278089109892356,-122.9112803888647,356.01111386623234,1.4102823127328623
2024-07-07 19:39:59.5200,0.143,-0.426,-1.094,-0.39,0.82,1.83,49.278089109892356,-122.9112803888647,356.01111386623234,1.4102823127328623
2024-07-07 19:39:59.5290,0.139,-0.462,-1.081,-0.49,1.1,1.43,49.278089109892356,-122.9112803888647,356.01111386623234,1.4102823127328623
2024-07-07 19:39:59.5400,0.126,-0.504,-1.084,-0.44,1.42,1.36,49.278089109892356,-122.9112803888647,356.01111386623234,1.4102823127328623
2024-07-07 19:39:59.5500,0.111,-0.533,-1.087,-0.31,1.81,1.39,49.278089109892356,-122.9112803888647,356.01111386623234,1.4102823127328623
2024-07-07 19:39:59.5600,0.101,-0.524,-1.097,-0.17,2.08,1.42,49.278089109892356,-122.9112803888647,356.01111386623234,1.4102823127328623
2024-07-07 19:39:59.5700,0.095,-0.471,-1.132,-0.08,1.99,1.52,49.278089109892356,-122.9112803888647,356.01111386623234,1.4102823127328623
2024-07-07 19:39:59.5800,0.096,-0.391,-1.188,-0.04,1.52,1.86,49.278089109892356,-122.9112803888647,356.01111386623234,1.4102823127328623
2024-07-07 19:39:59.5900,0.098,-0.314,-1.238,-0.08,0.84,2.39,49.278089109892356,-122.9112803888647,356.01111386623234,1.4102823127328623
2024-07-07 19:39:59.6000,0.085,-0.256,-1.253,-0.11,0.22,2.81,49.278089109892356,-122.9112803888647,356.01111386623234,1.4102823127328623
2024-07-07 19:39:59.6100,0.07,-0.221,-1.252,0.01,-0.2,2.88,49.278089109892356,-122.9112803888647,356.01111386623234,1.4102823127328623
2024-07-07 19:39:59.6200,0.065,-0.199,-1.233,0.12,-0.43,2.84,49.278089109892356,-122.9112803888647,356.01111386623234,1.4102823127328623
2024-07-07 19:39:59.6300,0.059,-0.192,-1.189,0.15,-0.58,2.6,49.278089109892356,-122.9112803888647,356.01111386623234,1.4102823127328623
2024-07-07 19:39:59.6400,0.045,-0.207,-1.129,0.21,-0.59,2.14,49.278089109892356,-122.9112803888647,356.01111386623234,1.4102823127328623
2024-07-07 19:39:59.6500,0.024,-0.229,-1.062,0.35,-0.43,1.53,49.278089109892356,-122.9112803888647,356.01111386623234,1.4102823127328623
2024-07-07 19:39:59.6600,0.003,-0.239,-1.011,0.58,-0.23,0.89,49.278089109892356,-122.9112803888647,356.01111386623234,1.4102823127328623
2024-07-07 19:39:59.6700,-0.012,-0.235,-0.99,0.82,-0.19,0.43,49.278089109892356,-122.9112803888647,356.01111386623234,1.4102823127328623
2024-07-07 19:39:59.6810,-0.015,-0.225,-0.991,1.0,-0.27,0.27,49.278089109892356,-122.9112803888647,356.01111386623234,1.4102823127328623
2024-07-07 19:39:59.6910,-0.011,-0.209,-1.006,1.08,-0.4,0.31,49.278089109892356,-122.9112803888647,356.01111386623234,1.4102823127328623
2024-07-07 19:39:59.7010,-0.002,-0.188,-1.02,1.1,-0.58,0.49,49.278089109892356,-122.9112803888647,356.01111386623234,1.4102823127328623
2024-07-07 19:39:59.7110,0.015,-0.17,-1.028,1.06,-0.81,0.63,49.278089109892356,-122.9112803888647,356.01111386623234,1.4102823127328623
2024-07-07 19:39:59.7210,0.029,-0.156,-1.023,0.93,-1.01,0.71,49.278089109892356,-122.9112803888647,356.01111386623234,1.4102823127328623
2024-07-07 19:39:59.7310,0.033,-0.152,-1.0,0.85,-1.13,0.64,49.278089109892356,-122.9112803888647,356.01111386623234,1.4102823127328623
2024-07-07 19:39:59.7410,0.035,-0.146,-0.963,0.85,-1.17,0.39,49.278089109892356,-122.9112803888647,356.01111386623234,1.4102823127328623
2024-07-07 19:39:59.7520,0.034,-0.138,-0.922,0.85,-1.22,0.02,49.278089109892356,-122.9112803888647,356.01111386623234,1.4102823127328623
2024-07-07 19:39:59.7620,0.028,-0.133,-0.879,0.87,-1.27,-0.39,49.278089109892356,-122.9112803888647,356.01111386623234,1.4102823127328623
2024-07-07 19:39:59.7720,0.021,-0.127,-0.847,0.93,-1.3,-0.81,49.278089109892356,-122.9112803888647,356.01111386623234,1.4102823127328623
2024-07-07 19:39:59.7830,0.014,-0.118,-0.821,0.99,-1.32,-1.13,49.278089109892356,-122.9112803888647,356.01111386623234,1.4102823127328623
2024-07-07 19:39:59.7920,0.007,-0.102,-0.8,1.05,-1.38,-1.39,49.278089109892356,-122.9112803888647,356.01111386623234,1.4102823127328623
2024-07-07 19:39:59.8020,0.003,-0.08,-0.794,1.1,-1.51,-1.59,49.278089109892356,-122.9112803888647,356.01111386623234,1.4102823127328623
2024-07-07 19:39:59.8120,-0.003,-0.065,-0.767,1.11,-1.7,-1.66,49.278089109892356,-122.9112803888647,356.01111386623234,1.4102823127328623
2024-07-07 19:39:59.8220,-0.011,-0.071,-0.721,1.14,-1.82,-1.97,49.278089109892356,-122.9112803888647,356.01111386623234,1.4102823127328623
2024-07-07 19:39:59.8320,-0.018,-0.092,-0.672,1.2,-1.73,-2.43,49.278089109892356,-122.9112803888647,356.01111386623234,1.4102823127328623
2024-07-07 19:39:59.8420,-0.023,-0.117,-0.621,1.25,-1.51,-2.92,49.278089109892356,-122.9112803888647,356.01111386623234,1.4102823127328623
2024-07-07 19:39:59.8530,-0.023,-0.145,-0.583,1.28,-1.28,-3.41,49.278089109892356,-122.9112803888647,356.01111386623234,1.4102823127328623
2024-07-07 19:39:59.8620,-0.017,-0.178,-0.563,1.28,-1.01,-3.75,49.278089109892356,-122.9112803888647,356.01111386623234,1.4102823127328623
2024-07-07 19:39:59.8730,-0.012,-0.205,-0.555,1.25,-0.7,-3.93,49.278089109892356,-122.9112803888647,356.01111386623234,1.4102823127328623
2024-07-07 19:39:59.8830,-0.005,-0.221,-0.562,1.22,-0.47,-3.98,49.278089109892356,-122.9112803888647,356.01111386623234,1.4102823127328623
2024-07-07 19:39:59.8920,0.005,-0.234,-0.585,1.2,-0.35,-3.88,49.278089109892356,-122.9112803888647,356.01111386623234,1.4102823127328623
2024-07-07 19:39:59.9030,0.018,-0.244,-0.61,1.13,-0.23,-3.64,49.278089109892356,-122.9112803888647,356.01111386623234,1.4102823127328623
2024-07-07 19:39:59.9130,0.026,-0.255,-0.642,1.05,-0.15,-3.37,49.278089109892356,-122.9112803888647,356.01111386623234,1.4102823127328623
2024-07-07 19:39:59.9230,0.035,-0.262,-0.682,1.04,-0.06,-3.04,49.278089109892356,-122.9112803888647,356.01111386623234,1.4102823127328623
2024-07-07 19:39:59.9330,0.048,-0.271,-0.723,0.99,-0.01,-2.63,49.278089109892356,-122.9112803888647,356.01111386623234,1.4102823127328623
2024-07-07 19:39:59.9430,0.062,-0.286,-0.763,0.9,0.07,-2.22,49.278089109892356,-122.9112803888647,356.01111386623234,1.4102823127328623
2024-07-07 19:39:59.9530,0.08,-0.302,-0.798,0.8,0.2,-1.82,49.278089109892356,-122.9112803888647,356.01111386623234,1.4102823127328623
2024-07-07 19:39:59.9630,0.096,-0.315,-0.82,0.65,0.35,-1.48,49.278089109892356,-122.9112803888647,356.01111386623234,1.4102823127328623
2024-07-07 19:39:59.9730,0.102,-0.327,-0.833,0.54,0.45,-1.27,49.278089109892356,-122.9112803888647,356.01111386623234,1.4102823127328623
2024-07-07 19:39:59.9830,0.102,-0.339,-0.837,0.52,0.57,-1.15,49.278089109892356,-122.9112803888647,356.01111386623234,1.4102823127328623
2024-07-07 19:39:59.9940,0.101,-0.339,-0.852,0.53,0.67,-1.1,49.278089109892356,-122.9112803888647,356.01111386623234,1.4102823127328623
2024-07-07 19:40:00.0040,0.104,-0.333,-0.874,0.57,0.66,-0.94,49.278089109892356,-122.9112803888647,356.01111386623234,1.4102823127328623
2024-07-07 19:40:00.0140,0.112,-0.329,-0.902,0.55,0.6,-0.72,49.278089109892356,-122.9112803888647,356.01111386623234,1.4102823127328623
2024-07-07 19:40:00.0240,0.116,-0.332,-0.932,0.5,0.57,-0.43,49.278089109892356,-122.9112803888647,356.01111386623234,1.4102823127328623
2024-07-07 19:40:00.0330,0.123,-0.329,-0.979,0.49,0.6,-0.12,49.278089109892356,-122.9112803888647,356.01111386623234,1.4102823127328623
2024-07-07 19:40:00.0440,0.131,-0.315,-1.05,0.46,0.56,0.39,49.278089109892356,-122.9112803888647,356.01111386623234,1.4102823127328623
2024-07-07 19:40:00.0540,0.143,-0.297,-1.12,0.41,0.41,1.11,49.278089109892356,-122.9112803888647,356.01111386623234,1.4102823127328623
2024-07-07 19:40:00.0640,0.159,-0.282,-1.166,0.3,0.23,1.76,49.278089109892356,-122.9112803888647,356.01111386623234,1.4102823127328623
2024-07-07 19:40:00.0740,0.169,-0.28,-1.188,0.17,0.1,2.19,49.278089109892356,-122.9112803888647,356.01111386623234,1.4102823127328623
2024-07-07 19:40:00.0840,0.17,-0.295,-1.186,0.09,0.08,2.38,49.278089109892356,-122.9112803888647,356.01111386623234,1.4102823127328623
2024-07-07 19:40:00.0940,0.171,-0.331,-1.163,0.11,0.26,2.33,49.278089109892356,-122.9112803888647,356.01111386623234,1.4102823127328623
2024-07-07 19:40:00.1040,0.182,-0.374,-1.14,0.12,0.65,2.1,49.278089109892356,-122.9112803888647,356.01111386623234,1.4102823127328623
2024-07-07 19:40:00.1140,0.21,-0.413,-1.133,0.03,1.11,1.88,49.278089109892356,-122.9112803888647,356.01111386623234,1.4102823127328623
2024-07-07 19:40:00.1250,0.246,-0.438,-1.172,-0.22,1.54,1.85,49.278089109892356,-122.9112803888647,356.01111386623234,1.4102823127328623
2024-07-07 19:40:00.1350,0.266,-0.442,-1.253,-0.49,1.83,2.29,49.278089109892356,-122.9112803888647,356.01111386623234,1.4102823127328623
2024-07-07 19:40:00.1450,0.277,-0.418,-1.335,-0.61,1.94,3.1,49.278089109892356,-122.9112803888647,356.01111386623234,1.4102823127328623
2024-07-07 19:40:00.1540,0.296,-0.357,-1.393,-0.67,1.76,3.86,49.278089109892356,-122.9112803888647,356.01111386623234,1.4102823127328623
2024-07-07 19:40:00.1640,0.316,-0.287,-1.43,-0.82,1.24,4.39,49.27808953607957,-122.91128754901378,355.7877975963056,0.8709347100082092
2024-07-07 19:40:00.1740,0.327,-0.223,-1.448,-0.98,0.66,4.7,49.27808953607957,-122.91128754901378,355.7877975963056,0.8709347100082092
2024-07-07 19:40:00.1850,0.331,-0.17,-1.45,-1.07,0.15,4.84,49.27808953607957,-122.91128754901378,355.7877975963056,0.8709347100082092
2024-07-07 19:40:00.1950,0.332,-0.124,-1.444,-1.11,-0.27,4.83,49.27808953607957,-122.91128754901378,355.7877975963056,0.8709347100082092
2024-07-07 19:40:00.2050,0.337,-0.079,-1.426,-1.16,-0.65,4.75,49.27808953607957,-122.91128754901378,355.7877975963056,0.8709347100082092
2024-07-07 19:40:00.2150,0.346,-0.041,-1.364,-1.28,-1.01,4.49,49.27808953607957,-122.91128754901378,355.7877975963056,0.8709347100082092
2024-07-07 19:40:00.2250,0.348,-0.026,-1.282,-1.42,-1.29,3.81,49.27808953607957,-122.91128754901378,355.7877975963056,0.8709347100082092
2024-07-07 19:40:00.2350,0.354,-0.033,-1.196,-1.51,-1.34,2.98,49.27808953607957,-122.91128754901378,355.7877975963056,0.8709347100082092
2024-07-07 19:40:00.2450,0.375,-0.05,-1.105,-1.67,-1.21,2.1,49.27808953607957,-122.91128754901378,355.7877975963056,0.8709347100082092
2024-07-07 19:40:00.2550,0.392,-0.075,-1.027,-1.95,-1.0,1.2,49.27808953607957,-122.91128754901378,355.7877975963056,0.8709347100082092
2024-07-07 19:40:00.2650,0.401,-0.096,-0.952,-2.15,-0.75,0.43,49.27808953607957,-122.91128754901378,355.7877975963056,0.8709347100082092
2024-07-07 19:40:00.2750,0.409,-0.12,-0.882,-2.28,-0.55,-0.3,49.27808953607957,-122.91128754901378,355.7877975963056,0.8709347100082092
2024-07-07 19:40:00.2860,0.408,-0.144,-0.819,-2.38,-0.35,-0.98,49.27808953607957,-122.91128754901378,355.7877975963056,0.8709347100082092
2024-07-07 19:40:00.2960,0.397,-0.165,-0.772,-2.36,-0.16,-1.58,49.27808953607957,-122.91128754901378,355.7877975963056,0.8709347100082092
2024-07-07 19:40:00.3070,0.381,-0.177,-0.74,-2.25,-0.02,-2.01,49.27808953607957,-122.91128754901378,355.7877975963056,0.8709347100082092
2024-07-07 19:40:00.3160,0.362,-0.185,-0.727,-2.07,0.05,-2.29,49.27808953607957,-122.91128754901378,355.7877975963056,0.8709347100082092
2024-07-07 19:40:00.3260,0.339,-0.185,-0.729,-1.86,0.06,-2.38,49.27808953607957,-122.91128754901378,355.7877975963056,0.8709347100082092
2024-07-07 19:40:00.3360,0.314,-0.179,-0.732,-1.62,0.01,-2.35,49.27808953607957,-122.91128754901378,355.7877975963056,0.8709347100082092
2024-07-07 19:40:00.3460,0.283,-0.174,-0.73,-1.38,-0.1,-2.31,49.27808953607957,-122.91128754901378,355.7877975963056,0.8709347100082092
2024-07-07 19:40:00.3570,0.25,-0.175,-0.725,-1.09,-0.17,-2.34,49.27808953607957,-122.91128754901378,355.7877975963056,0.8709347100082092
2024-07-07 19:40:00.3660,0.22,-0.169,-0.708,-0.79,-0.18,-2.39,49.27808953607957,-122.91128754901378,355.7877975963056,0.8709347100082092
2024-07-07 19:40:00.3760,0.187,-0.161,-0.678,-0.55,-0.26,-2.58,49.27808953607957,-122.91128754901378,355.7877975963056,0.8709347100082092
2024-07-07 19:40:00.3860,0.151,-0.158,-0.651,-0.26,-0.33,-2.89,49.27808953607957,-122.91128754901378,355.7877975963056,0.8709347100082092
2024-07-07 19:40:00.3970,0.121,-0.157,-0.622,0.03,-0.34,-3.17,49.27808953607957,-122.91128754901378,355.7877975963056,0.8709347100082092
2024-07-07 19:40:00.4070,0.093,-0.159,-0.601,0.28,-0.33,-3.45,49.27808953607957,-122.91128754901378,355.7877975963056,0.8709347100082092
2024-07-07 19:40:00.4170,0.067,-0.168,-0.59,0.5,-0.28,-3.66,49.27808953607957,-122.91128754901378,355.7877975963056,0.8709347100082092
2024-07-07 19:40:00.4270,0.042,-0.177,-0.592,0.71,-0.17,-3.77,49.27808953607957,-122.91128754901378,355.7877975963056,0.8709347100082092
2024-07-07 19:40:00.4370,0.021,-0.186,-0.597,0.92,-0.06,-3.75,49.27808953607957,-122.91128754901378,355.7877975963056,0.8709347100082092
2024-07-07 19:40:00.4470,0.005,-0.197,-0.601,1.09,0.04,-3.71,49.27808953607957,-122.91128754901378,355.7877975963056,0.8709347100082092
2024-07-07 19:40:00.4570,-0.005,-0.207,-0.616,1.23,0.15,-3.65,49.27808953607957,-122.91128754901378,355.7877975963056,0.8709347100082092
2024-07-07 19:40:00.4670,-0.009,-0.22,-0.638,1.33,0.24,-3.5,49.27808953607957,-122.91128754901378,355.7877975963056,0.8709347100082092
2024-07-07 19:40:00.4770,-0.002,-0.234,-0.674,1.36,0.36,-3.27,49.27808953607957,-122.91128754901378,355.7877975963056,0.8709347100082092
2024-07-07 19:40:00.4880,0.011,-0.248,-0.714,1.3,0.49,-2.89,49.27808953607957,-122.91128754901378,355.7877975963056,0.8709347100082092
2024-07-07 19:40:00.4970,0.023,-0.268,-0.747,1.19,0.61,-2.5,49.27808953607957,-122.91128754901378,355.7877975963056,0.8709347100082092
2024-07-07 19:40:00.5070,0.028,-0.291,-0.775,1.1,0.78,-2.18,49.27808953607957,-122.91128754901378,355.7877975963056,0.8709347100082092
2024-07-07 19:40:00.5170,0.036,-0.313,-0.797,1.08,0.98,-1.9,49.27808953607957,-122.91128754901378,355.7877975963056,0.8709347100082092
2024-07-07 19:40:00.5270,0.047,-0.34,-0.825,1.02,1.18,-1.68,49.27808953607957,-122.91128754901378,355.7877975963056,0.8709347100082092
2024-07-07 19:40:00.5370,0.058,-0.36,-0.872,0.93,1.43,-1.37,49.27808953607957,-122.91128754901378,355.7877975963056,0.8709347100082092
2024-07-07 19:40:00.5480,0.063,-0.358,-0.924,0.84,1.57,-0.89,49.27808953607957,-122.91128754901378,355.7877975963056,0.8709347100082092
2024-07-07 19:40:00.5580,0.054,-0.343,-0.97,0.81,1.51,-0.39,49.27808953607957,-122.91128754901378,355.7877975963056,0.8709347100082092
2024-07-07 19:40:00.5680,0.042,-0.328,-1.004,0.9,1.33,0.07,49.27808953607957,-122.91128754901378,355.7877975963056,0.8709347100082092
2024-07-07 19:40:00.5780,0.03,-0.326,-1.019,1.01,1.19,0.37,49.27808953607957,-122.91128754901378,355.7877975963056,0.8709347100082092
2024-07-07 19:40:00.5880,0.02,-0.327,-1.032,1.1,1.17,0.51,49.27808953607957,-122.91128754901378,355.7877975963056,0.8709347100082092
2024-07-07 19:40:00.5980,0.018,-0.328,-1.048,1.16,1.19,0.63,49.27808953607957,-122.91128754901378,355.7877975963056,0.8709347100082092
2024-07-07 19:40:00.6080,0.024,-0.324,-1.073,1.13,1.21,0.79,49.27808953607957,-122.91128754901378,355.7877975963056,0.8709347100082092
2024-07-07 19:40:00.6180,0.03,-0.315,-1.105,1.03,1.18,1.03,49.27808953607957,-122.91128754901378,355.7877975963056,0.8709347100082092
2024-07-07 19:40:00.6280,0.038,-0.294,-1.144,0.94,1.1,1.35,49.27808953607957,-122.91128754901378,355.7877975963056,0.8709347100082092
2024-07-07 19:40:00.6380,0.05,-0.261,-1.176,0.81,0.88,1.72,49.27808953607957,-122.91128754901378,355.7877975963056,0.8709347100082092
2024-07-07 19:40:00.6480,0.059,-0.239,-1.209,0.67,0.57,2.03,49.27808953607957,-122.91128754901378,355.7877975963056,0.8709347100082092
2024-07-07 19:40:00.6590,0.071,-0.241,-1.233,0.55,0.38,2.35,49.27808953607957,-122.91128754901378,355.7877975963056,0.8709347100082092
2024-07-07 19:40:00.6690,0.091,-0.262,-1.249,0.4,0.42,2.56,49.27808953607957,-122.91128754901378,355.7877975963056,0.8709347100082092
2024-07-07 19:40:00.6780,0.114,-0.299,-1.272,0.18,0.65,2.73,49.27808953607957,-122.91128754901378,355.7877975963056,0.8709347100082092
2024-07-07 19:40:00.6890,0.133,-0.335,-1.288,-0.06,1.01,2.95,49.27808953607957,-122.91128754901378,355.7877975963056,0.8709347100082092
2024-07-07 19:40:00.6990,0.136,-0.358,-1.294,-0.23,1.35,3.1,49.27808953607957,-122.91128754901378,355.7877975963056,0.8709347100082092
2024-07-07 19:40:00.7090,0.141,-0.353,-1.276,-0.24,1.54,3.13,49.27808953607957,-122.91128754901378,355.7877975963056,0.8709347100082092
2024-07-07 19:40:00.7190,0.148,-0.315,-1.252,-0.28,1.47,2.93,49.27808953607957,-122.91128754901378,355.7877975963056,0.8709347100082092
2024-07-07 19:40:00.7290,0.156,-0.255,-1.237,-0.33,1.07,2.71,49.27808953607957,-122.91128754901378,355.7877975963056,0.8709347100082092
2024-07-07 19:40:00.7390,0.162,-0.194,-1.218,-0.36,0.5,2.56,49.27808953607957,-122.91128754901378,355.7877975963056,0.8709347100082092
2024-07-07 19:40:00.7490,0.161,-0.142,-1.204,-0.36,-0.07,2.38,49.27808953607957,-122.91128754901378,355.7877975963056,0.8709347100082092
2024-07-07 19:40:00.7590,0.169,-0.107,-1.167,-0.29,-0.57,2.24,49.27808953607957,-122.91128754901378,355.7877975963056,0.8709347100082092
2024-07-07 19:40:00.7690,0.182,-0.098,-1.162,-0.29,-0.89,1.89,49.27808953607957,-122.91128754901378,355.7877975963056,0.8709347100082092
2024-07-07 19:40:00.7790,0.211,-0.119,-1.2,-0.32,-0.96,1.92,49.27808953607957,-122.91128754901378,355.7877975963056,0.8709347100082092
2024-07-07 19:40:00.7890,0.245,-0.15,-1.234,-0.52,-0.72,2.33,49.27808953607957,-122.91128754901378,355.7877975963056,0.8709347100082092
2024-07-07 19:40:00.7990,0.253,-0.142,-1.282,-0.72,-0.46,2.69,49.27808953607957,-122.91128754901378,355.7877975963056,0.8709347100082092
2024-07-07 19:40:00.8100,0.254,-0.102,-1.325,-0.67,-0.6,3.2,49.27808953607957,-122.91128754901378,355.7877975963056,0.8709347100082092
2024-07-07 19:40:00.8200,0.249,-0.061,-1.353,-0.58,-1.01,3.62,49.27808953607957,-122.91128754901378,355.7877975963056,0.8709347100082092
2024-07-07 19:40:00.8300,0.235,-0.026,-1.363,-0.42,-1.42,3.9,49.27808953607957,-122.91128754901378,355.7877975963056,0.8709347100082092
2024-07-07 19:40:00.8400,0.226,0.003,-1.332,-0.23,-1.79,3.97,49.27808953607957,-122.91128754901378,355.7877975963056,0.8709347100082092
2024-07-07 19:40:00.8500,0.212,0.019,-1.294,-0.1,-2.08,3.65,49.27808953607957,-122.91128754901378,355.7877975963056,0.8709347100082092
2024-07-07 19:40:00.8600,0.204,0.029,-1.231,0.05,-2.26,3.28,49.27808953607957,-122.91128754901378,355.7877975963056,0.8709347100082092
2024-07-07 19:40:00.8700,0.195,0.016,-1.139,0.11,-2.38,2.62,49.27808953607957,-122.91128754901378,355.7877975963056,0.8709347100082092
2024-07-07 19:40:00.8800,0.177,-0.012,-1.038,0.2,-2.28,1.71,49.27808953607957,-122.91128754901378,355.7877975963056,0.8709347100082092
2024-07-07 19:40:00.8910,0.162,-0.043,-0.939,0.35,-2.07,0.72,49.27808953607957,-122.91128754901378,355.7877975963056,0.8709347100082092
2024-07-07 19:40:00.9010,0.141,-0.068,-0.859,0.48,-1.83,-0.23,49.27808953607957,-122.91128754901378,355.7877975963056,0.8709347100082092
2024-07-07 19:40:00.9110,0.125,-0.081,-0.793,0.66,-1.67,-0.97,49.27808953607957,-122.91128754901378,355.7877975963056,0.8709347100082092
2024-07-07 19:40:00.9200,0.112,-0.088,-0.739,0.78,-1.62,-1.59,49.27808953607957,-122.91128754901378,355.7877975963056,0.8709347100082092
2024-07-07 19:40:00.9300,0.098,-0.099,-0.695,0.89,-1.61,-2.1,49.27808953607957,-122.91128754901378,355.7877975963056,0.8709347100082092
2024-07-07 19:40:00.9400,0.094,-0.114,-0.658,1.0,-1.57,-2.51,49.27808953607957,-122.91128754901378,355.7877975963056,0.8709347100082092
2024-07-07 19:40:00.9510,0.093,-0.135,-0.627,1.01,-1.48,-2.85,49.27808953607957,-122.91128754901378,355.7877975963056,0.8709347100082092
2024-07-07 19:40:00.9610,0.091,-0.153,-0.606,1.0,-1.34,-3.12,49.27808953607957,-122.91128754901378,355.7877975963056,0.8709347100082092
2024-07-07 19:40:00.9710,0.093,-0.171,-0.594,1.0,-1.23,-3.3,49.27808953607957,-122.91128754901378,355.7877975963056,0.8709347100082092
2024-07-07 19:40:00.9810,0.096,-0.185,-0.592,0.98,-1.11,-3.39,49.27808953607957,-122.91128754901378,355.7877975963056,0.8709347100082092
2024-07-07 19:40:00.9910,0.103,-0.195,-0.597,0.92,-1.03,-3.39,49.27808953607957,-122.91128754901378,355.7877975963056,0.8709347100082092
2024-07-07 19:40:01.0010,0.109,-0.207,-0.601,0.84,-0.99,-3.33,49.27808953607957,-122.91128754901378,355.7877975963056,0.8709347100082092
2024-07-07 19:40:01.0110,0.114,-0.22,-0.607,0.77,-0.91,-3.27,49.27808953607957,-122.91128754901378,355.7877975963056,0.8709347100082092
2024-07-07 19:40:01.0210,0.117,-0.235,-0.619,0.71,-0.81,-3.2,49.27808953607957,-122.91128754901378,355.7877975963056,0.8709347100082092
2024-07-07 19:40:01.0310,0.118,-0.246,-0.632,0.67,-0.71,-3.07,49.27808953607957,-122.91128754901378,355.7877975963056,0.8709347100082092
2024-07-07 19:40:01.0410,0.122,-0.257,-0.645,0.64,-0.64,-2.94,49.27808953607957,-122.91128754901378,355.7877975963056,0.8709347100082092
2024-07-07 19:40:01.0510,0.128,-0.267,-0.659,0.58,-0.56,-2.8,49.27808953607957,-122.91128754901378,355.7877975963056,0.8709347100082092
2024-07-07 19:40:01.0610,0.135,-0.273,-0.677,0.5,-0.5,-2.65,49.27808953607957,-122.91128754901378,355.7877975963056,0.8709347100082092
2024-07-07 19:40:01.0720,0.142,-0.279,-0.699,0.42,-0.46,-2.47,49.27808953607957,-122.91128754901378,355.7877975963056,0.8709347100082092
2024-07-07 19:40:01.0820,0.148,-0.282,-0.725,0.32,-0.43,-2.24,49.27808953607957,-122.91128754901378,355.7877975963056,0.8709347100082092
2024-07-07 19:40:01.0920,0.152,-0.278,-0.756,0.23,-0.42,-1.98,49.27808953607957,-122.91128754901378,355.7877975963056,0.8709347100082092
2024-07-07 19:40:01.1020,0.154,-0.266,-0.776,0.16,-0.49,-1.69,49.27808953607957,-122.91128754901378,355.7877975963056,0.8709347100082092
2024-07-07 19:40:01.1120,0.148,-0.261,-0.774,0.11,-0.62,-1.51,49.27808953607957,-122.91128754901378,355.7877975963056,0.8709347100082092
2024-07-07 19:40:01.1220,0.137,-0.261,-0.756,0.13,-0.67,-1.56,49.27808953607957,-122.91128754901378,355.7877975963056,0.8709347100082092
2024-07-07 19:40:01.1320,0.127,-0.267,-0.746,0.2,-0.68,-1.74,49.27808953607957,-122.91128754901378,355.7877975963056,0.8709347100082092
2024-07-07 19:40:01.1420,0.121,-0.277,-0.738,0.27,-0.62,-1.83,49.27808953607957,-122.91128754901378,355.7877975963056,0.8709347100082092
2024-07-07 19:40:01.1520,0.114,-0.292,-0.742,0.31,-0.52,-1.91,49.27808953607957,-122.91128754901378,355.7877975963056,0.8709347100082092
2024-07-07 19:40:01.1650,0.114,-0.294,-0.775,0.36,-0.37,-1.84,49.278088634223636,-122.91131053913038,355.7200918029994,0.9463632330329903
2024-07-07 19:40:01.1720,0.122,-0.278,-0.829,0.35,-0.36,-1.5,49.278088634223636,-122.91131053913038,355.7200918029994,0.9463632330329903
2024-07-07 19:40:01.1830,0.131,-0.254,-0.898,0.28,-0.5,-0.95,49.278088634223636,-122.91131053913038,355.7200918029994,0.9463632330329903
2024-07-07 19:40:01.1920,0.135,-0.226,-0.975,0.21,-0.71,-0.26,49.278088634223636,-122.91131053913038,355.7200918029994,0.9463632330329903
2024-07-07 19:40:01.2020,0.13,-0.204,-1.043,0.2,-0.94,0.48,49.278088634223636,-122.91131053913038,355.7200918029994,0.9463632330329903
2024-07-07 19:40:01.2130,0.133,-0.188,-1.09,0.27,-1.09,1.1,49.278088634223636,-122.91131053913038,355.7200918029994,0.9463632330329903
2024-07-07 19:40:01.2230,0.149,-0.188,-1.133,0.24,-1.18,1.54,49.278088634223636,-122.91131053913038,355.7200918029994,0.9463632330329903
2024-07-07 19:40:01.2330,0.19,-0.203,-1.151,0.09,-1.1,1.92,49.278088634223636,-122.91131053913038,355.7200918029994,0.9463632330329903
2024-07-07 19:40:01.2430,0.25,-0.23,-1.164,-0.3,-0.88,2.07,49.278088634223636,-122.91131053913038,355.7200918029994,0.9463632330329903
2024-07-07 19:40:01.2530,0.304,-0.28,-1.187,-0.83,-0.52,2.19,49.278088634223636,-122.91131053913038,355.7200918029994,0.9463632330329903
2024-07-07 19:40:01.2650,0.352,-0.338,-1.227,-1.29,0.06,2.43,49.278088634223636,-122.91131053913038,355.7200918029994,0.9463632330329903
2024-07-07 19:40:01.2730,0.382,-0.377,-1.28,-1.67,0.7,2.83,49.278088634223636,-122.91131053913038,355.7200918029994,0.9463632330329903
2024-07-07 19:40:01.2830,0.4,-0.383,-1.345,-1.88,1.11,3.36,49.278088634223636,-122.91131053913038,355.7200918029994,0.9463632330329903
2024-07-07 19:40:01.2930,0.41,-0.358,-1.41,-1.98,1.19,4.0,49.278088634223636,-122.91131053913038,355.7200918029994,0.9463632330329903
2024-07-07 19:40:01.3030,0.405,-0.309,-1.467,-2.01,0.97,4.63,49.278088634223636,-122.91131053913038,355.7200918029994,0.9463632330329903
2024-07-07 19:40:01.3140,0.399,-0.252,-1.5,-1.93,0.53,5.16,49.278088634223636,-122.91131053913038,355.7200918029994,0.9463632330329903
2024-07-07 19:40:01.3240,0.395,-0.209,-1.484,-1.87,0.02,5.43,49.278088634223636,-122.91131053913038,355.7200918029994,0.9463632330329903
2024-07-07 19:40:01.3340,0.386,-0.185,-1.418,-1.84,-0.35,5.19,49.278088634223636,-122.91131053913038,355.7200918029994,0.9463632330329903
2024-07-07 19:40:01.3430,0.375,-0.182,-1.327,-1.78,-0.54,4.48,49.278088634223636,-122.91131053913038,355.7200918029994,0.9463632330329903
2024-07-07 19:40:01.3540,0.369,-0.19,-1.23,-1.7,-0.54,3.57,49.278088634223636,-122.91131053913038,355.7200918029994,0.9463632330329903
2024-07-07 19:40:01.3640,0.366,-0.199,-1.144,-1.69,-0.45,2.61,49.278088634223636,-122.91131053913038,355.7200918029994,0.9463632330329903
2024-07-07 19:40:01.3740,0.364,-0.207,-1.063,-1.71,-0.36,1.78,49.278088634223636,-122.91131053913038,355.7200918029994,0.9463632330329903
2024-07-07 19:40:01.3840,0.357,-0.211,-0.98,-1.73,-0.3,0.97,49.278088634223636,-122.91131053913038,355.7200918029994,0.9463632330329903
2024-07-07 19:40:01.3940,0.347,-0.215,-0.9,-1.7,-0.28,0.16,49.278088634223636,-122.91131053913038,355.7200918029994,0.9463632330329903
2024-07-07 19:40:01.4040,0.331,-0.223,-0.837,-1.61,-0.27,-0.62,49.278088634223636,-122.91131053913038,355.7200918029994,0.9463632330329903
2024-07-07 19:40:01.4140,0.316,-0.228,-0.793,-1.48,-0.22,-1.2,49.278088634223636,-122.91131053913038,355.7200918029994,0.9463632330329903
2024-07-07 19:40:01.4240,0.3,-0.232,-0.758,-1.34,-0.21,-1.61,49.278088634223636,-122.91131053913038,355.7200918029994,0.9463632330329903
2024-07-07 19:40:01.4340,0.281,-0.238,-0.733,-1.19,-0.2,-1.94,49.278088634223636,-122.91131053913038,355.7200918029994,0.9463632330329903
2024-07-07 19:40:01.4450,0.261,-0.243,-0.717,-1.0,-0.18,-2.16,49.278088634223636,-122.91131053913038,355.7200918029994,0.9463632330329903
2024-07-07 19:40:01.4540,0.243,-0.25,-0.705,-0.8,-0.16,-2.3,49.278088634223636,-122.91131053913038,355.7200918029994,0.9463632330329903
2024-07-07 19:40:01.4650,0.228,-0.259,-0.691,-0.63,-0.12,-2.41,49.278088634223636,-122.91131053913038,355.7200918029994,0.9463632330329903
2024-07-07 19:40:01.4750,0.21,-0.266,-0.676,-0.48,-0.05,-2.54,49.278088634223636,-122.91131053913038,355.7200918029994,0.9463632330329903
2024-07-07 19:40:01.4850,0.194,-0.266,-0.668,-0.31,0.0,-2.68,49.278088634223636,-122.91131053913038,355.7200918029994,0.9463632330329903
2024-07-07 19:40:01.4950,0.178,-0.261,-0.664,-0.17,-0.02,-2.76,49.278088634223636,-122.91131053913038,355.7200918029994,0.9463632330329903
2024-07-07 19:40:01.5050,0.16,-0.263,-0.66,-0.03,-0.06,-2.8,49.278088634223636,-122.91131053913038,355.7200918029994,0.9463632330329903
2024-07-07 19:40:01.5150,0.139,-0.268,-0.654,0.12,-0.02,-2.85,49.278088634223636,-122.91131053913038,355.7200918029994,0.9463632330329903
2024-07-07 19:40:01.5250,0.121,-0.263,-0.642,0.29,0.06,-2.93,49.278088634223636,-122.91131053913038,355.7200918029994,0.9463632330329903
2024-07-07 19:40:01.5350,0.103,-0.262,-0.63,0.41,0.04,-3.07,49.278088634223636,-122.91131053913038,355.7200918029994,0.9463632330329903
2024-07-07 19:40:01.5450,0.083,-0.267,-0.617,0.54,0.08,-3.21,49.278088634223636,-122.91131053913038,355.7200918029994,0.9463632330329903
2024-07-07 19:40:01.5550,0.062,-0.271,-0.616,0.69,0.17,-3.34,49.278088634223636,-122.91131053913038,355.7200918029994,0.9463632330329903
2024-07-07 19:40:01.5660,0.05,-0.273,-0.613,0.84,0.25,-3.37,49.278088634223636,-122.91131053913038,355.7200918029994,0.9463632330329903
2024-07-07 19:40:01.5760,0.042,-0.284,-0.606,0.9,0.31,-3.42,49.278088634223636,-122.91131053913038,355.7200918029994,0.9463632330329903
2024-07-07 19:40:01.5850,0.036,-0.304,-0.606,0.92,0.47,-3.5,49.278088634223636,-122.91131053913038,355.7200918029994,0.9463632330329903
2024-07-07 19:40:01.5950,0.04,-0.322,-0.612,0.94,0.69,-3.5,49.278088634223636,-122.91131053913038,355.7200918029994,0.9463632330329903
2024-07-07 19:40:01.6050,0.046,-0.345,-0.625,0.86,0.9,-3.45,49.278088634223636,-122.91131053913038,355.7200918029994,0.9463632330329903
2024-07-07 19:40:01.6160,0.049,-0.355,-0.657,0.78,1.13,-3.3,49.278088634223636,-122.91131053913038,355.7200918029994,0.9463632330329903
2024-07-07 19:40:01.6260,0.054,-0.348,-0.688,0.73,1.21,-2.98,49.278088634223636,-122.91131053913038,355.7200918029994,0.9463632330329903
2024-07-07 19:40:01.6360,0.052,-0.341,-0.718,0.68,1.13,-2.68,49.278088634223636,-122.91131053913038,355.7200918029994,0.9463632330329903
2024-07-07 19:40:01.6460,0.05,-0.329,-0.757,0.69,1.04,-2.38,49.278088634223636,-122.91131053913038,355.7200918029994,0.9463632330329903
2024-07-07 19:40:01.6560,0.058,-0.317,-0.79,0.69,0.89,-1.99,49.278088634223636,-122.91131053913038,355.7200918029994,0.9463632330329903
2024-07-07 19:40:01.6660,0.063,-0.322,-0.81,0.6,0.76,-1.68,49.278088634223636,-122.91131053913038,355.7200918029994,0.9463632330329903
2024-07-07 19:40:01.6760,0.065,-0.333,-0.822,0.55,0.79,-1.48,49.278088634223636,-122.91131053913038,355.7200918029994,0.9463632330329903
2024-07-07 19:40:01.6860,0.068,-0.35,-0.837,0.52,0.87,-1.37,49.278088634223636,-122.91131053913038,355.7200918029994,0.9463632330329903
2024-07-07 19:40:01.6970,0.07,-0.368,-0.866,0.48,1.02,-1.2,49.278088634223636,-122.91131053913038,355.7200918029994,0.9463632330329903
2024-07-07 19:40:01.7070,0.068,-0.383,-0.904,0.46,1.17,-0.89,49.278088634223636,-122.91131053913038,355.7200918029994,0.9463632330329903
2024-07-07 19:40:01.7170,0.063,-0.387,-0.945,0.48,1.29,-0.51,49.278088634223636,-122.91131053913038,355.7200918029994,0.9463632330329903
2024-07-07 19:40:01.7260,0.062,-0.378,-0.99,0.52,1.3,-0.1,49.278088634223636,-122.91131053913038,355.7200918029994,0.9463632330329903
2024-07-07 19:40:01.7360,0.063,-0.372,-1.031,0.51,1.2,0.34,49.278088634223636,-122.91131053913038,355.7200918029994,0.9463632330329903
2024-07-07 19:40:01.7460,0.065,-0.373,-1.074,0.49,1.14,0.74,49.278088634223636,-122.91131053913038,355.7200918029994,0.9463632330329903
2024-07-07 19:40:01.7570,0.073,-0.368,-1.113,0.45,1.15,1.16,49.278088634223636,-122.91131053913038,355.7200918029994,0.9463632330329903
2024-07-07 19:40:01.7670,0.086,-0.356,-1.156,0.35,1.09,1.54,49.278088634223636,-122.91131053913038,355.7200918029994,0.9463632330329903
2024-07-07 19:40:01.7770,0.1,-0.35,-1.2,0.21,0.97,1.96,49.278088634223636,-122.91131053913038,355.7200918029994,0.9463632330329903
2024-07-07 19:40:01.7870,0.111,-0.351,-1.242,0.06,0.93,2.39,49.278088634223636,-122.91131053913038,355.7200918029994,0.9463632330329903
2024-07-07 19:40:01.7970,0.121,-0.353,-1.275,-0.06,0.96,2.79,49.278088634223636,-122.91131053913038,355.7200918029994,0.9463632330329903
2024-07-07 19:40:01.8070,0.131,-0.362,-1.295,-0.16,0.99,3.09,49.278088634223636,-122.91131053913038,355.7200918029994,0.9463632330329903
2024-07-07 19:40:01.8170,0.135,-0.387,-1.31,-0.27,1.12,3.27,49.278088634223636,-122.91131053913038,355.7200918029994,0.9463632330329903
2024-07-07 19:40:01.8270,0.134,-0.417,-1.328,-0.3,1.42,3.41,49.278088634223636,-122.91131053913038,355.7200918029994,0.9463632330329903
2024-07-07 19:40:01.8380,0.136,-0.426,-1.351,-0.27,1.75,3.58,49.278088634223636,-122.91131053913038,355.7200918029994,0.9463632330329903
2024-07-07 19:40:01.8470,0.147,-0.396,-1.39,-0.29,1.86,3.81,49.278088634223636,-122.91131053913038,355.7200918029994,0.9463632330329903
2024-07-07 19:40:01.8570,0.163,-0.329,-1.44,-0.39,1.6,4.19,49.278088634223636,-122.91131053913038,355.7200918029994,0.9463632330329903
2024-07-07 19:40:01.8670,0.169,-0.243,-1.508,-0.52,0.98,4.69,49.278088634223636,-122.91131053913038,355.7200918029994,0.9463632330329903
2024-07-07 19:40:01.8780,0.174,-0.155,-1.556,-0.56,0.22,5.34,49.278088634223636,-122.91131053913038,355.7200918029994,0.9463632330329903
2024-07-07 19:40:01.8880,0.171,-0.087,-1.543,-0.62,-0.58,5.74,49.278088634223636,-122.91131053913038,355.7200918029994,0.9463632330329903
2024-07-07 19:40:01.8980,0.15,-0.06,-1.461,-0.59,-1.14,5.51,49.278088634223636,-122.91131053913038,355.7200918029994,0.9463632330329903
2024-07-07 19:40:01.9080,0.115,-0.066,-1.34,-0.39,-1.35,4.63,49.278088634223636,-122.91131053913038,355.7200918029994,0.9463632330329903
2024-07-07 19:40:01.9180,0.075,-0.087,-1.214,-0.04,-1.26,3.42,49.278088634223636,-122.91131053913038,355.7200918029994,0.9463632330329903
2024-07-07 19:40:01.9290,0.048,-0.109,-1.105,0.33,-1.07,2.2,49.278088634223636,-122.91131053913038,355.7200918029994,0.9463632330329903
2024-07-07 19:40:01.9380,0.037,-0.128,-1.019,0.59,-0.87,1.16,49.278088634223636,-122.91131053913038,355.7200918029994,0.9463632330329903
2024-07-07 19:40:01.9480,0.027,-0.143,-0.969,0.73,-0.72,0.36,49.278088634223636,-122.91131053913038,355.7200918029994,0.9463632330329903
2024-07-07 19:40:01.9580,0.034,-0.145,-0.943,0.87,-0.6,-0.08,49.278088634223636,-122.91131053913038,355.7200918029994,0.9463632330329903
2024-07-07 19:40:01.9680,0.041,-0.134,-0.944,0.85,-0.61,-0.3,49.278088634223636,-122.91131053913038,355.7200918029994,0.9463632330329903
2024-07-07 19:40:01.9780,0.054,-0.105,-0.979,0.87,-0.74,-0.23,49.278088634223636,-122.91131053913038,355.7200918029994,0.9463632330329903
2024-07-07 19:40:01.9880,0.077,-0.067,-1.01,0.8,-1.06,0.15,49.278088634223636,-122.91131053913038,355.7200918029994,0.9463632330329903
2024-07-07 19:40:01.9980,0.088,-0.039,-1.035,0.65,-1.43,0.45,49.278088634223636,-122.91131053913038,355.7200918029994,0.9463632330329903
2024-07-07 19:40:02.0080,0.094,-0.012,-1.042,0.61,-1.73,0.7,49.278088634223636,-122.91131053913038,355.7200918029994,0.9463632330329903
2024-07-07 19:40:02.0180,0.09,0.001,-1.018,0.6,-2.01,0.74,49.278088634223636,-122.91131053913038,355.7200918029994,0.9463632330329903
2024-07-07 19:40:02.0290,0.078,-0.003,-0.966,0.67,-2.14,0.48,49.278088634223636,-122.91131053913038,355.7200918029994,0.9463632330329903
2024-07-07 19:40:02.0390,0.065,-0.016,-0.906,0.81,-2.12,-0.04,49.278088634223636,-122.91131053913038,355.7200918029994,0.9463632330329903
2024-07-07 19:40:02.0490,0.053,-0.03,-0.865,0.94,-2.0,-0.61,49.278088634223636,-122.91131053913038,355.7200918029994,0.9463632330329903
2024-07-07 19:40:02.0590,0.044,-0.04,-0.83,1.05,-1.89,-0.99,49.278088634223636,-122.91131053913038,355.7200918029994,0.9463632330329903
2024-07-07 19:40:02.0690,0.033,-0.042,-0.796,1.13,-1.83,-1.33,49.278088634223636,-122.91131053913038,355.7200918029994,0.9463632330329903
2024-07-07 19:40:02.0790,0.021,-0.04,-0.764,1.23,-1.84,-1.66,49.278088634223636,-122.91131053913038,355.7200918029994,0.9463632330329903
2024-07-07 19:40:02.0890,0.015,-0.037,-0.719,1.32,-1.9,-1.98,49.278088634223636,-122.91131053913038,355.7200918029994,0.9463632330329903
2024-07-07 19:40:02.0990,0.01,-0.043,-0.669,1.36,-1.96,-2.42,49.278088634223636,-122.91131053913038,355.7200918029994,0.9463632330329903
2024-07-07 19:40:02.1100,0.008,-0.059,-0.63,1.4,-1.94,-2.89,49.278088634223636,-122.91131053913038,355.7200918029994,0.9463632330329903
2024-07-07 19:40:02.1200,0.014,-0.085,-0.603,1.41,-1.83,-3.25,49.278088634223636,-122.91131053913038,355.7200918029994,0.9463632330329903
2024-07-07 19:40:02.1300,0.028,-0.113,-0.586,1.33,-1.64,-3.48,49.278088634223636,-122.91131053913038,355.7200918029994,0.9463632330329903
2024-07-07 19:40:02.1400,0.041,-0.142,-0.577,1.21,-1.43,-3.63,49.278088634223636,-122.91131053913038,355.7200918029994,0.9463632330329903
2024-07-07 19:40:02.1500,0.048,-0.171,-0.581,1.09,-1.2,-3.68,49.278088634223636,-122.91131053913038,355.7200918029994,0.9463632330329903
2024-07-07 19:40:02.1630,0.053,-0.192,-0.586,1.04,-0.98,-3.61,49.278088634223636,-122.91131053913038,355.7200918029994,0.9463632330329903
2024-07-07 19:40:02.1700,0.061,-0.208,-0.595,1.01,-0.84,-3.54,49.27809148649606,-122.91132791792386,355.58719564508647,0.9167005915619972
2024-07-07 19:40:02.1790,0.072,-0.219,-0.605,0.93,-0.74,-3.43,49.27809148649606,-122.91132791792386,355.58719564508647,0.9167005915619972
2024-07-07 19:40:02.1900,0.084,-0.23,-0.617,0.83,-0.68,-3.31,49.27809148649606,-122.91132791792386,355.58719564508647,0.9167005915619972
2024-07-07 19:40:02.2000,0.096,-0.242,-0.629,0.73,-0.62,-3.18,49.27809148649606,-122.91132791792386,355.58719564508647,0.9167005915619972
2024-07-07 19:40:02.2100,0.107,-0.256,-0.642,0.63,-0.56,-3.04,49.27809148649606,-122.91132791792386,355.58719564508647,0.9167005915619972
2024-07-07 19:40:02.2200,0.124,-0.275,-0.665,0.52,-0.45,-2.89,49.27809148649606,-122.91132791792386,355.58719564508647,0.9167005915619972
2024-07-07 19:40:02.2300,0.136,-0.289,-0.693,0.36,-0.3,-2.65,49.27809148649606,-122.91132791792386,355.58719564508647,0.9167005915619972
2024-07-07 19:40:02.2400,0.148,-0.291,-0.714,0.23,-0.21,-2.37,49.27809148649606,-122.91132791792386,355.58719564508647,0.9167005915619972
2024-07-07 19:40:02.2530,0.152,-0.296,-0.735,0.11,-0.21,-2.17,49.27809148649606,-122.91132791792386,355.58719564508647,0.9167005915619972
2024-07-07 19:40:02.2600,0.16,-0.298,-0.752,0.05,-0.17,-1.95,49.27809148649606,-122.91132791792386,355.58719564508647,0.9167005915619972
2024-07-07 19:40:02.2710,0.158,-0.292,-0.771,-0.05,-0.17,-1.79,49.27809148649606,-122.91132791792386,355.58719564508647,0.9167005915619972
2024-07-07 19:40:02.2810,0.155,-0.287,-0.782,-0.06,-0.23,-1.62,49.27809148649606,-122.91132791792386,355.58719564508647,0.9167005915619972
2024-07-07 19:40:02.2910,0.154,-0.296,-0.787,-0.07,-0.26,-1.53,49.27809148649606,-122.91132791792386,355.58719564508647,0.9167005915619972
2024-07-07 19:40:02.3010,0.157,-0.298,-0.807,-0.08,-0.15,-1.49,49.27809148649606,-122.91132791792386,355.58719564508647,0.9167005915619972
2024-07-07 19:40:02.3100,0.169,-0.29,-0.854,-0.14,-0.13,-1.26,49.27809148649606,-122.91132791792386,355.58719564508647,0.9167005915619972
2024-07-07 19:40:02.3210,0.179,-0.288,-0.915,-0.28,-0.17,-0.8,49.27809148649606,-122.91132791792386,355.58719564508647,0.9167005915619972
2024-07-07 19:40:02.3310,0.188,-0.282,-0.978,-0.38,-0.15,-0.2,49.27809148649606,-122.91132791792386,355.58719564508647,0.9167005915619972
2024-07-07 19:40:02.3410,0.192,-0.267,-1.037,-0.48,-0.17,0.39,49.27809148649606,-122.91132791792386,355.58719564508647,0.9167005915619972
2024-07-07 19:40:02.3510,0.19,-0.252,-1.088,-0.52,-0.28,0.96,49.27809148649606,-122.91132791792386,355.58719564508647,0.9167005915619972
2024-07-07 19:40:02.3610,0.193,-0.251,-1.11,-0.52,-0.36,1.41,49.27809148649606,-122.91132791792386,355.58719564508647,0.9167005915619972
2024-07-07 19:40:02.3720,0.206,-0.267,-1.132,-0.56,-0.3,1.59,49.27809148649606,-122.91132791792386,355.58719564508647,0.9167005915619972
2024-07-07 19:40:02.3810,0.231,-0.303,-1.154,-0.69,-0.04,1.79,49.27809148649606,-122.91132791792386,355.58719564508647,0.9167005915619972
2024-07-07 19:40:02.3920,0.258,-0.345,-1.183,-0.93,0.42,1.99,49.27809148649606,-122.91132791792386,355.58719564508647,0.9167005915619972
2024-07-07 19:40:02.4020,0.267,-0.366,-1.232,-1.15,0.93,2.27,49.27809148649606,-122.91132791792386,355.58719564508647,0.9167005915619972
2024-07-07 19:40:02.4120,0.283,-0.351,-1.279,-1.2,1.23,2.73,49.27809148649606,-122.91132791792386,355.58719564508647,0.9167005915619972
2024-07-07 19:40:02.4220,0.305,-0.307,-1.319,-1.36,1.17,3.15,49.27809148649606,-122.91132791792386,355.58719564508647,0.9167005915619972
2024-07-07 19:40:02.4320,0.316,-0.257,-1.362,-1.55,0.86,3.52,49.27809148649606,-122.91132791792386,355.58719564508647,0.9167005915619972
2024-07-07 19:40:02.4420,0.319,-0.219,-1.394,-1.62,0.52,3.91,49.27809148649606,-122.91132791792386,355.58719564508647,0.9167005915619972
2024-07-07 19:40:02.4520,0.32,-0.193,-1.403,-1.62,0.27,4.17,49.27809148649606,-122.91132791792386,355.58719564508647,0.9167005915619972
2024-07-07 19:40:02.4620,0.317,-0.185,-1.395,-1.62,0.12,4.23,49.27809148649606,-122.91132791792386,355.58719564508647,0.9167005915619972
2024-07-07 19:40:02.4720,0.303,-0.175,-1.368,-1.56,0.12,4.11,49.27809148649606,-122.91132791792386,355.58719564508647,0.9167005915619972
2024-07-07 19:40:02.4830,0.3,-0.156,-1.339,-1.41,0.06,3.83,49.27809148649606,-122.91132791792386,355.58719564508647,0.9167005915619972
2024-07-07 19:40:02.4920,0.308,-0.13,-1.324,-1.39,-0.09,3.55,49.27809148649606,-122.91132791792386,355.58719564508647,0.9167005915619972
2024-07-07 19:40:02.5030,0.329,-0.097,-1.3,-1.49,-0.3,3.4,49.27809148649606,-122.91132791792386,355.58719564508647,0.9167005915619972
2024-07-07 19:40:02.5130,0.356,-0.076,-1.259,-1.71,-0.56,3.13,49.27809148649606,-122.91132791792386,355.58719564508647,0.9167005915619972
2024-07-07 19:40:02.5230,0.377,-0.076,-1.21,-1.99,-0.69,2.7,49.27809148649606,-122.91132791792386,355.58719564508647,0.9167005915619972
2024-07-07 19:40:02.5320,0.394,-0.088,-1.155,-2.2,-0.61,2.2,49.27809148649606,-122.91132791792386,355.58719564508647,0.9167005915619972
2024-07-07 19:40:02.5430,0.41,-0.104,-1.103,-2.38,-0.44,1.66,49.27809148649606,-122.91132791792386,355.58719564508647,0.9167005915619972
2024-07-07 19:40:02.5530,0.422,-0.122,-1.061,-2.55,-0.25,1.15,49.27809148649606,-122.91132791792386,355.58719564508647,0.9167005915619972
2024-07-07 19:40:02.5630,0.427,-0.133,-1.029,-2.67,-0.08,0.75,49.27809148649606,-122.91132791792386,355.58719564508647,0.9167005915619972
2024-07-07 19:40:02.5730,0.422,-0.141,-0.994,-2.71,0.01,0.44,49.27809148649606,-122.91132791792386,355.58719564508647,0.9167005915619972
2024-07-07 19:40:02.5830,0.411,-0.143,-0.942,-2.66,0.06,0.09,49.27809148649606,-122.91132791792386,355.58719564508647,0.9167005915619972
2024-07-07 19:40:02.5930,0.38,-0.149,-0.884,-2.55,0.04,-0.44,49.27809148649606,-122.91132791792386,355.58719564508647,0.9167005915619972
2024-07-07 19:40:02.6030,0.345,-0.159,-0.816,-2.26,0.07,-1.01,49.27809148649606,-122.91132791792386,355.58719564508647,0.9167005915619972
2024-07-07 19:40:02.6130,0.308,-0.164,-0.749,-1.93,0.11,-1.68,49.27809148649606,-122.91132791792386,355.58719564508647,0.9167005915619972
2024-07-07 19:40:02.6230,0.268,-0.168,-0.695,-1.6,0.11,-2.32,49.27809148649606,-122.91132791792386,355.58719564508647,0.9167005915619972
2024-07-07 19:40:02.6330,0.225,-0.17,-0.651,-1.24,0.11,-2.84,49.27809148649606,-122.91132791792386,355.58719564508647,0.9167005915619972
2024-07-07 19:40:02.6430,0.185,-0.167,-0.622,-0.84,0.1,-3.26,49.27809148649606,-122.91132791792386,355.58719564508647,0.9167005915619972
2024-07-07 19:40:02.6540,0.156,-0.165,-0.613,-0.49,0.04,-3.52,49.27809148649606,-122.91132791792386,355.58719564508647,0.9167005915619972
2024-07-07 19:40:02.6640,0.128,-0.167,-0.615,-0.24,0.0,-3.58,49.27809148649606,-122.91132791792386,355.58719564508647,0.9167005915619972
2024-07-07 19:40:02.6740,0.105,-0.172,-0.613,-0.01,0.01,-3.57,49.27809148649606,-122.91132791792386,355.58719564508647,0.9167005915619972
2024-07-07 19:40:02.6840,0.086,-0.186,-0.604,0.17,0.05,-3.59,49.27809148649606,-122.91132791792386,355.58719564508647,0.9167005915619972
2024-07-07 19:40:02.6940,0.065,-0.193,-0.594,0.32,0.16,-3.7,49.27809148649606,-122.91132791792386,355.58719564508647,0.9167005915619972
2024-07-07 19:40:02.7040,0.043,-0.194,-0.583,0.5,0.19,-3.79,49.27809148649606,-122.91132791792386,355.58719564508647,0.9167005915619972
2024-07-07 19:40:02.7140,0.027,-0.203,-0.577,0.69,0.17,-3.89,49.27809148649606,-122.91132791792386,355.58719564508647,0.9167005915619972
2024-07-07 19:40:02.7240,0.015,-0.212,-0.588,0.82,0.22,-3.93,49.27809148649606,-122.91132791792386,355.58719564508647,0.9167005915619972
2024-07-07 19:40:02.7340,0.004,-0.227,-0.602,0.94,0.29,-3.81,49.27809148649606,-122.91132791792386,355.58719564508647,0.9167005915619972
2024-07-07 19:40:02.7440,-0.007,-0.242,-0.625,1.04,0.41,-3.66,49.27809148649606,-122.91132791792386,355.58719564508647,0.9167005915619972
2024-07-07 19:40:02.7540,-0.009,-0.258,-0.657,1.15,0.53,-3.41,49.27809148649606,-122.91132791792386,355.58719564508647,0.9167005915619972
2024-07-07 19:40:02.7640,-0.006,-0.272,-0.693,1.15,0.67,-3.09,49.27809148649606,-122.91132791792386,355.58719564508647,0.9167005915619972
2024-07-07 19:40:02.7740,-0.003,-0.277,-0.72,1.12,0.79,-2.74,49.27809148649606,-122.91132791792386,355.58719564508647,0.9167005915619972
2024-07-07 19:40:02.7840,-0.003,-0.286,-0.744,1.08,0.83,-2.48,49.27809148649606,-122.91132791792386,355.58719564508647,0.9167005915619972
2024-07-07 19:40:02.7950,-0.002,-0.293,-0.762,1.08,0.91,-2.25,49.27809148649606,-122.91132791792386,355.58719564508647,0.9167005915619972
2024-07-07 19:40:02.8050,-0.001,-0.297,-0.786,1.05,0.97,-2.07,49.27809148649606,-122.91132791792386,355.58719564508647,0.9167005915619972
2024-07-07 19:40:02.8150,-0.004,-0.308,-0.809,1.02,1.03,-1.84,49.27809148649606,-122.91132791792386,355.58719564508647,0.9167005915619972
2024-07-07 19:40:02.8250,-0.005,-0.318,-0.829,1.03,1.15,-1.62,49.27809148649606,-122.91132791792386,355.58719564508647,0.9167005915619972
2024-07-07 19:40:02.8350,-0.013,-0.323,-0.858,1.02,1.26,-1.43,49.27809148649606,-122.91132791792386,355.58719564508647,0.9167005915619972
2024-07-07 19:40:02.8450,-0.024,-0.321,-0.901,1.09,1.32,-1.12,49.27809148649606,-122.91132791792386,355.58719564508647,0.9167005915619972
2024-07-07 19:40:02.8550,-0.03,-0.312,-0.937,1.16,1.29,-0.7,49.27809148649606,-122.91132791792386,355.58719564508647,0.9167005915619972
2024-07-07 19:40:02.8650,-0.033,-0.313,-0.962,1.2,1.23,-0.38,49.27809148649606,-122.91132791792386,355.58719564508647,0.9167005915619972
2024-07-07 19:40:02.8750,-0.033,-0.317,-1.001,1.22,1.25,-0.13,49.27809148649606,-122.91132791792386,355.58719564508647,0.9167005915619972
2024-07-07 19:40:02.8850,-0.023,-0.314,-1.056,1.2,1.29,0.27,49.27809148649606,-122.91132791792386,355.58719564508647,0.9167005915619972
2024-07-07 19:40:02.8950,-0.005,-0.298,-1.117,1.1,1.25,0.83,49.27809148649606,-122.91132791792386,355.58719564508647,0.9167005915619972
2024-07-07 19:40:02.9050,0.01,-0.277,-1.184,0.92,1.08,1.44,49.27809148649606,-122.91132791792386,355.58719564508647,0.9167005915619972
2024-07-07 19:40:02.9150,0.019,-0.251,-1.243,0.77,0.89,2.09,49.27809148649606,-122.91132791792386,355.58719564508647,0.9167005915619972
2024-07-07 19:40:02.9260,0.027,-0.221,-1.286,0.69,0.63,2.65,49.27809148649606,-122.91132791792386,355.58719564508647,0.9167005915619972
2024-07-07 19:40:02.9380,0.042,-0.196,-1.323,0.62,0.32,3.05,49.27809148649606,-122.91132791792386,355.58719564508647,0.9167005915619972
2024-07-07 19:40:02.9460,0.064,-0.197,-1.35,0.46,0.11,3.41,49.27809148649606,-122.91132791792386,355.58719564508647,0.9167005915619972
2024-07-07 19:40:02.9560,0.083,-0.229,-1.369,0.26,0.16,3.67,49.27809148649606,-122.91132791792386,355.58719564508647,0.9167005915619972
2024-07-07 19:40:02.9660,0.091,-0.278,-1.384,0.11,0.53,3.84,49.27809148649606,-122.91132791792386,355.58719564508647,0.9167005915619972
2024-07-07 19:40:02.9760,0.096,-0.312,-1.415,0.08,1.03,4.0,49.27809148649606,-122.91132791792386,355.58719564508647,0.9167005915619972
2024-07-07 19:40:02.9860,0.11,-0.299,-1.463,0.06,1.36,4.32,49.27809148649606,-122.91132791792386,355.58719564508647,0.9167005915619972
2024-07-07 19:40:02.9960,0.124,-0.247,-1.513,-0.05,1.23,4.8,49.27809148649606,-122.91132791792386,355.58719564508647,0.9167005915619972
2024-07-07 19:40:03.0060,0.126,-0.173,-1.57,-0.14,0.75,5.28,49.27809148649606,-122.91132791792386,355.58719564508647,0.9167005915619972
2024-07-07 19:40:03.0160,0.131,-0.085,-1.625,-0.14,0.07,5.84,49.27809148649606,-122.91132791792386,355.58719564508647,0.9167005915619972
2024-07-07 19:40:03.0260,0.145,-0.0,-1.638,-0.21,-0.72,6.34,49.27809148649606,-122.91132791792386,355.58719564508647,0.9167005915619972
2024-07-07 19:40:03.0360,0.146,0.045,-1.604,-0.37,-1.47,6.39,49.27809148649606,-122.91132791792386,355.58719564508647,0.9167005915619972
2024-07-07 19:40:03.0460,0.13,0.037,-1.526,-0.4,-1.78,6.0,49.27809148649606,-122.91132791792386,355.58719564508647,0.9167005915619972
2024-07-07 19:40:03.0570,0.113,0.003,-1.414,-0.28,-1.6,5.16,49.27809148649606,-122.91132791792386,355.58719564508647,0.9167005915619972
2024-07-07 19:40:03.0670,0.1,-0.023,-1.32,-0.14,-1.23,4.05,49.27809148649606,-122.91132791792386,355.58719564508647,0.9167005915619972
2024-07-07 19:40:03.0770,0.093,-0.036,-1.249,-0.03,-0.98,3.16,49.27809148649606,-122.91132791792386,355.58719564508647,0.9167005915619972
2024-07-07 19:40:03.0870,0.088,-0.039,-1.192,0.03,-0.87,2.48,49.27809148649606,-122.91132791792386,355.58719564508647,0.9167005915619972
2024-07-07 19:40:03.0970,0.085,-0.032,-1.147,0.09,-0.88,1.95,49.27809148649606,-122.91132791792386,355.58719564508647,0.9167005915619972
2024-07-07 19:40:03.1070,0.081,-0.02,-1.108,0.15,-1.0,1.52,49.27809148649606,-122.91132791792386,355.58719564508647,0.9167005915619972
2024-07-07 19:40:03.1170,0.081,-0.004,-1.074,0.22,-1.17,1.16,49.27809148649606,-122.91132791792386,355.58719564508647,0.9167005915619972
2024-07-07 19:40:03.1270,0.081,0.009,-1.037,0.24,-1.4,0.84,49.27809148649606,-122.91132791792386,355.58719564508647,0.9167005915619972
2024-07-07 19:40:03.1370,0.071,0.009,-0.999,0.28,-1.58,0.48,49.27809148649606,-122.91132791792386,355.58719564508647,0.9167005915619972
2024-07-07 19:40:03.1490,0.058,-0.0,-0.963,0.42,-1.63,0.13,49.27809148649606,-122.91132791792386,355.58719564508647,0.9167005915619972
2024-07-07 19:40:03.1580,0.052,-0.003,-0.925,0.55,-1.6,-0.22,49.27809148649606,-122.91132791792386,355.58719564508647,0.9167005915619972
2024-07-07 19:40:03.1690,0.043,-0.006,-0.884,0.62,-1.63,-0.58,49.278094697491035,-122.91134684130222,355.6607382707298,0.9794208313425902
2024-07-07 19:40:03.1770,0.033,-0.01,-0.834,0.7,-1.65,-0.99,49.278094697491035,-122.91134684130222,355.6607382707298,0.9794208313425902
2024-07-07 19:40:03.1880,0.022,-0.015,-0.781,0.79,-1.65,-1.48,49.278094697491035,-122.91134684130222,355.6607382707298,0.9794208313425902
2024-07-07 19:40:03.1980,0.008,-0.02,-0.726,0.88,-1.65,-2.0,49.278094697491035,-122.91134684130222,355.6607382707298,0.9794208313425902
2024-07-07 19:40:03.2080,-0.006,-0.028,-0.671,1.01,-1.62,-2.53,49.278094697491035,-122.91134684130222,355.6607382707298,0.9794208313425902
2024-07-07 19:40:03.2180,-0.016,-0.037,-0.627,1.13,-1.58,-3.05,49.278094697491035,-122.91134684130222,355.6607382707298,0.9794208313425902
2024-07-07 19:40:03.2280,-0.018,-0.044,-0.605,1.21,-1.53,-3.46,49.278094697491035,-122.91134684130222,355.6607382707298,0.9794208313425902
2024-07-07 19:40:03.2380,-0.013,-0.048,-0.596,1.22,-1.49,-3.64,49.278094697491035,-122.91134684130222,355.6607382707298,0.9794208313425902
2024-07-07 19:40:03.2480,-0.008,-0.053,-0.593,1.17,-1.49,-3.72,49.278094697491035,-122.91134684130222,355.6607382707298,0.9794208313425902
2024-07-07 19:40:03.2580,0.002,-0.061,-0.601,1.13,-1.46,-3.72,49.278094697491035,-122.91134684130222,355.6607382707298,0.9794208313425902
2024-07-07 19:40:03.2680,0.013,-0.062,-0.61,1.03,-1.44,-3.64,49.278094697491035,-122.91134684130222,355.6607382707298,0.9794208313425902
2024-07-07 19:40:03.2780,0.022,-0.068,-0.62,0.92,-1.46,-3.54,49.278094697491035,-122.91134684130222,355.6607382707298,0.9794208313425902
2024-07-07 19:40:03.2880,0.031,-0.081,-0.628,0.83,-1.44,-3.43,49.278094697491035,-122.91134684130222,355.6607382707298,0.9794208313425902
2024-07-07 19:40:03.2980,0.04,-0.093,-0.629,0.74,-1.36,-3.35,49.278094697491035,-122.91134684130222,355.6607382707298,0.9794208313425902
2024-07-07 19:40:03.3090,0.046,-0.105,-0.627,0.65,-1.28,-3.34,49.278094697491035,-122.91134684130222,355.6607382707298,0.9794208313425902
2024-07-07 19:40:03.3190,0.048,-0.122,-0.618,0.6,-1.19,-3.36,49.278094697491035,-122.91134684130222,355.6607382707298,0.9794208313425902
2024-07-07 19:40:03.3290,0.048,-0.14,-0.615,0.57,-1.06,-3.44,49.278094697491035,-122.91134684130222,355.6607382707298,0.9794208313425902
2024-07-07 19:40:03.3390,0.053,-0.153,-0.621,0.57,-0.93,-3.45,49.278094697491035,-122.91134684130222,355.6607382707298,0.9794208313425902
2024-07-07 19:40:03.3490,0.062,-0.166,-0.623,0.51,-0.84,-3.37,49.278094697491035,-122.91134684130222,355.6607382707298,0.9794208313425902
2024-07-07 19:40:03.3590,0.072,-0.183,-0.631,0.42,-0.74,-3.35,49.278094697491035,-122.91134684130222,355.6607382707298,0.9794208313425902
2024-07-07 19:40:03.3690,0.079,-0.204,-0.641,0.33,-0.59,-3.25,49.278094697491035,-122.91134684130222,355.6607382707298,0.9794208313425902
2024-07-07 19:40:03.3790,0.087,-0.224,-0.65,0.27,-0.41,-3.16,49.278094697491035,-122.91134684130222,355.6607382707298,0.9794208313425902
2024-07-07 19:40:03.3890,0.094,-0.238,-0.677,0.2,-0.24,-3.04,49.278094697491035,-122.91134684130222,355.6607382707298,0.9794208313425902
2024-07-07 19:40:03.3990,0.101,-0.245,-0.698,0.14,-0.12,-2.77,49.278094697491035,-122.91134684130222,355.6607382707298,0.9794208313425902
2024-07-07 19:40:03.4090,0.109,-0.256,-0.715,0.08,-0.06,-2.58,49.278094697491035,-122.91134684130222,355.6607382707298,0.9794208313425902
2024-07-07 19:40:03.4190,0.115,-0.263,-0.746,0.02,0.06,-2.39,49.278094697491035,-122.91134684130222,355.6607382707298,0.9794208313425902
2024-07-07 19:40:03.4300,0.122,-0.253,-0.782,-0.04,0.12,-2.08,49.278094697491035,-122.91134684130222,355.6607382707298,0.9794208313425902
2024-07-07 19:40:03.4390,0.126,-0.238,-0.809,-0.09,0.01,-1.73,49.278094697491035,-122.91134684130222,355.6607382707298,0.9794208313425902
2024-07-07 19:40:03.4500,0.126,-0.232,-0.833,-0.11,-0.1,-1.48,49.278094697491035,-122.91134684130222,355.6607382707298,0.9794208313425902
2024-07-07 19:40:03.4600,0.127,-0.219,-0.863,-0.09,-0.14,-1.25,49.278094697491035,-122.91134684130222,355.6607382707298,0.9794208313425902
2024-07-07 19:40:03.4700,0.128,-0.195,-0.904,-0.09,-0.25,-0.94,49.278094697491035,-122.91134684130222,355.6607382707298,0.9794208313425902
2024-07-07 19:40:03.4800,0.128,-0.176,-0.947,-0.08,-0.45,-0.55,49.278094697491035,-122.91134684130222,355.6607382707298,0.9794208313425902
2024-07-07 19:40:03.4900,0.136,-0.165,-0.988,-0.07,-0.57,-0.13,49.278094697491035,-122.91134684130222,355.6607382707298,0.9794208313425902
2024-07-07 19:40:03.5000,0.136,-0.157,-1.024,-0.15,-0.61,0.25,49.278094697491035,-122.91134684130222,355.6607382707298,0.9794208313425902
2024-07-07 19:40:03.5100,0.141,-0.152,-1.056,-0.15,-0.62,0.58,49.278094697491035,-122.91134684130222,355.6607382707298,0.9794208313425902
2024-07-07 19:40:03.5200,0.157,-0.159,-1.068,-0.21,-0.56,0.86,49.278094697491035,-122.91134684130222,355.6607382707298,0.9794208313425902
2024-07-07 19:40:03.5300,0.199,-0.191,-1.068,-0.37,-0.37,0.94,49.278094697491035,-122.91134684130222,355.6607382707298,0.9794208313425902
2024-07-07 19:40:03.5400,0.239,-0.235,-1.102,-0.8,0.11,0.91,49.278094697491035,-122.91134684130222,355.6607382707298,0.9794208313425902
2024-07-07 19:40:03.5500,0.242,-0.209,-1.176,-1.07,0.58,1.33,49.278094697491035,-122.91134684130222,355.6607382707298,0.9794208313425902
2024-07-07 19:40:03.5600,0.288,-0.204,-1.243,-1.09,0.43,2.02,49.278094697491035,-122.91134684130222,355.6607382707298,0.9794208313425902
2024-07-07 19:40:03.5700,0.318,-0.225,-1.312,-1.5,0.56,2.67,49.278094697491035,-122.91134684130222,355.6607382707298,0.9794208313425902
2024-07-07 19:40:03.5800,0.32,-0.22,-1.381,-1.69,0.88,3.34,49.278094697491035,-122.91134684130222,355.6607382707298,0.9794208313425902
2024-07-07 19:40:03.5910,0.328,-0.187,-1.452,-1.65,0.92,4.01,49.278094697491035,-122.91134684130222,355.6607382707298,0.9794208313425902
2024-07-07 19:40:03.6010,0.338,-0.141,-1.516,-1.7,0.68,4.7,49.278094697491035,-122.91134684130222,355.6607382707298,0.9794208313425902
2024-07-07 19:40:03.6110,0.334,-0.092,-1.562,-1.76,0.34,5.3,49.278094697491035,-122.91134684130222,355.6607382707298,0.9794208313425902
2024-07-07 19:40:03.6210,0.332,-0.037,-1.569,-1.71,-0.04,5.71,49.278094697491035,-122.91134684130222,355.6607382707298,0.9794208313425902
2024-07-07 19:40:03.6310,0.323,0.007,-1.545,-1.71,-0.48,5.72,49.278094697491035,-122.91134684130222,355.6607382707298,0.9794208313425902
2024-07-07 19:40:03.6410,0.308,0.035,-1.493,-1.64,-0.8,5.43,49.278094697491035,-122.91134684130222,355.6607382707298,0.9794208313425902
2024-07-07 19:40:03.6510,0.307,0.048,-1.421,-1.55,-0.99,4.89,49.278094697491035,-122.91134684130222,355.6607382707298,0.9794208313425902
2024-07-07 19:40:03.6610,0.316,0.045,-1.343,-1.6,-1.05,4.15,49.278094697491035,-122.91134684130222,355.6607382707298,0.9794208313425902
2024-07-07 19:40:03.6710,0.333,0.026,-1.262,-1.74,-0.96,3.38,49.278094697491035,-122.91134684130222,355.6607382707298,0.9794208313425902
2024-07-07 19:40:03.6810,0.352,-0.005,-1.178,-1.95,-0.77,2.57,49.278094697491035,-122.91134684130222,355.6607382707298,0.9794208313425902
2024-07-07 19:40:03.6910,0.363,-0.044,-1.105,-2.14,-0.48,1.75,49.278094697491035,-122.91134684130222,355.6607382707298,0.9794208313425902
2024-07-07 19:40:03.7010,0.364,-0.088,-1.044,-2.24,-0.14,1.05,49.278094697491035,-122.91134684130222,355.6607382707298,0.9794208313425902
2024-07-07 19:40:03.7120,0.361,-0.115,-0.997,-2.23,0.23,0.48,49.278094697491035,-122.91134684130222,355.6607382707298,0.9794208313425902
2024-07-07 19:40:03.7220,0.352,-0.13,-0.971,-2.17,0.4,0.05,49.278094697491035,-122.91134684130222,355.6607382707298,0.9794208313425902
2024-07-07 19:40:03.7320,0.338,-0.139,-0.957,-2.07,0.48,-0.18,49.278094697491035,-122.91134684130222,355.6607382707298,0.9794208313425902
2024-07-07 19:40:03.7420,0.316,-0.139,-0.939,-1.91,0.49,-0.3,49.278094697491035,-122.91134684130222,355.6607382707298,0.9794208313425902
2024-07-07 19:40:03.7520,0.289,-0.137,-0.915,-1.68,0.42,-0.48,49.278094697491035,-122.91134684130222,355.6607382707298,0.9794208313425902
2024-07-07 19:40:03.7620,0.256,-0.136,-0.878,-1.42,0.35,-0.72,49.278094697491035,-122.91134684130222,355.6607382707298,0.9794208313425902
2024-07-07 19:40:03.7720,0.22,-0.134,-0.833,-1.12,0.3,-1.11,49.278094697491035,-122.91134684130222,355.6607382707298,0.9794208313425902
2024-07-07 19:40:03.7820,0.182,-0.128,-0.791,-0.8,0.24,-1.55,49.278094697491035,-122.91134684130222,355.6607382707298,0.9794208313425902
2024-07-07 19:40:03.7920,0.147,-0.12,-0.753,-0.48,0.17,-1.96,49.278094697491035,-122.91134684130222,355.6607382707298,0.9794208313425902
2024-07-07 19:40:03.8020,0.112,-0.113,-0.714,-0.19,0.08,-2.34,49.278094697491035,-122.91134684130222,355.6607382707298,0.9794208313425902
2024-07-07 19:40:03.8120,0.079,-0.11,-0.677,0.1,0.01,-2.73,49.278094697491035,-122.91134684130222,355.6607382707298,0.9794208313425902
2024-07-07 19:40:03.8220,0.053,-0.11,-0.655,0.38,-0.02,-3.08,49.278094697491035,-122.91134684130222,355.6607382707298,0.9794208313425902
2024-07-07 19:40:03.8320,0.031,-0.109,-0.638,0.57,-0.04,-3.29,49.278094697491035,-122.91134684130222,355.6607382707298,0.9794208313425902
2024-07-07 19:40:03.8420,0.007,-0.111,-0.623,0.76,-0.06,-3.46,49.278094697491035,-122.91134684130222,355.6607382707298,0.9794208313425902
2024-07-07 19:40:03.8530,-0.012,-0.116,-0.611,0.96,-0.06,-3.6,49.278094697491035,-122.91134684130222,355.6607382707298,0.9794208313425902
2024-07-07 19:40:03.8630,-0.026,-0.124,-0.604,1.14,-0.04,-3.71,49.278094697491035,-122.91134684130222,355.6607382707298,0.9794208313425902
2024-07-07 19:40:03.8730,-0.032,-0.129,-0.598,1.27,0.0,-3.78,49.278094697491035,-122.91134684130222,355.6607382707298,0.9794208313425902
2024-07-07 19:40:03.8830,-0.033,-0.132,-0.605,1.33,0.01,-3.81,49.278094697491035,-122.91134684130222,355.6607382707298,0.9794208313425902
2024-07-07 19:40:03.8930,-0.03,-0.138,-0.629,1.36,0.0,-3.72,49.278094697491035,-122.91134684130222,355.6607382707298,0.9794208313425902
2024-07-07 19:40:03.9030,-0.024,-0.156,-0.663,1.36,0.03,-3.46,49.278094697491035,-122.91134684130222,355.6607382707298,0.9794208313425902
2024-07-07 19:40:03.9130,-0.014,-0.178,-0.693,1.33,0.18,-3.12,49.278094697491035,-122.91134684130222,355.6607382707298,0.9794208313425902
2024-07-07 19:40:03.9230,-0.0,-0.197,-0.721,1.26,0.36,-2.81,49.278094697491035,-122.91134684130222,355.6607382707298,0.9794208313425902
2024-07-07 19:40:03.9330,0.011,-0.218,-0.737,1.15,0.5,-2.53,49.278094697491035,-122.91134684130222,355.6607382707298,0.9794208313425902
2024-07-07 19:40:03.9430,0.012,-0.244,-0.746,1.09,0.67,-2.39,49.278094697491035,-122.91134684130222,355.6607382707298,0.9794208313425902
2024-07-07 19:40:03.9530,0.016,-0.265,-0.759,1.11,0.89,-2.28,49.278094697491035,-122.91134684130222,355.6607382707298,0.9794208313425902
2024-07-07 19:40:03.9630,0.016,-0.278,-0.772,1.09,1.04,-2.14,49.278094697491035,-122.91134684130222,355.6607382707298,0.9794208313425902
2024-07-07 19:40:03.9740,0.01,-0.282,-0.786,1.13,1.12,-2.0,49.278094697491035,-122.91134684130222,355.6607382707298,0.9794208313425902
2024-07-07 19:40:03.9840,0.005,-0.279,-0.804,1.22,1.1,-1.85,49.278094697491035,-122.91134684130222,355.6607382707298,0.9794208313425902
2024-07-07 19:40:03.9940,0.002,-0.28,-0.835,1.29,1.05,-1.66,49.278094697491035,-122.91134684130222,355.6607382707298,0.9794208313425902
2024-07-07 19:40:04.0040,-0.001,-0.279,-0.871,1.34,1.04,-1.34,49.278094697491035,-122.91134684130222,355.6607382707298,0.9794208313425902
2024-07-07 19:40:04.0140,-0.004,-0.272,-0.914,1.38,1.01,-0.97,49.278094697491035,-122.91134684130222,355.6607382707298,0.9794208313425902
2024-07-07 19:40:04.0240,-0.007,-0.269,-0.963,1.42,0.94,-0.54,49.278094697491035,-122.91134684130222,355.6607382707298,0.9794208313425902
2024-07-07 19:40:04.0340,-0.006,-0.26,-1.023,1.46,0.91,-0.05,49.278094697491035,-122.91134684130222,355.6607382707298,0.9794208313425902
2024-07-07 19:40:04.0440,0.002,-0.247,-1.086,1.44,0.82,0.55,49.278094697491035,-122.91134684130222,355.6607382707298,0.9794208313425902
2024-07-07 19:40:04.0540,0.014,-0.244,-1.135,1.36,0.7,1.16,49.278094697491035,-122.91134684130222,355.6607382707298,0.9794208313425902
2024-07-07 19:40:04.0640,0.026,-0.249,-1.178,1.24,0.68,1.62,49.278094697491035,-122.91134684130222,355.6607382707298,0.9794208313425902
2024-07-07 19:40:04.0740,0.046,-0.252,-1.225,1.12,0.74,2.04,49.278094697491035,-122.91134684130222,355.6607382707298,0.9794208313425902
2024-07-07 19:40:04.0840,0.066,-0.256,-1.266,0.92,0.76,2.51,49.278094697491035,-122.91134684130222,355.6607382707298,0.9794208313425902
2024-07-07 19:40:04.0940,0.085,-0.261,-1.287,0.72,0.79,2.89,49.278094697491035,-122.91134684130222,355.6607382707298,0.9794208313425902
2024-07-07 19:40:04.1040,0.1,-0.276,-1.293,0.54,0.83,3.08,49.278094697491035,-122.91134684130222,355.6607382707298,0.9794208313425902
2024-07-07 19:40:04.1150,0.109,-0.303,-1.294,0.4,0.97,3.14,49.278094697491035,-122.91134684130222,355.6607382707298,0.9794208313425902
2024-07-07 19:40:04.1250,0.114,-0.338,-1.296,0.33,1.23,3.15,49.278094697491035,-122.91134684130222,355.6607382707298,0.9794208313425902
2024-07-07 19:40:04.1350,0.123,-0.363,-1.327,0.31,1.58,3.19,49.278094697491035,-122.91134684130222,355.6607382707298,0.9794208313425902
2024-07-07 19:40:04.1460,0.142,-0.345,-1.399,0.24,1.8,3.54,49.278094697491035,-122.91134684130222,355.6607382707298,0.9794208313425902
2024-07-07 19:40:04.1550,0.162,-0.284,-1.496,0.08,1.61,4.29,49.278094697491035,-122.91134684130222,355.6607382707298,0.9794208313425902
2024-07-07 19:40:04.1650,0.189,-0.193,-1.602,-0.09,1.03,5.26,49.27809225371123,-122.91137122990415,355.5444346694276,1.0513465230115204
2024-07-07 19:40:04.1750,0.22,-0.081,-1.672,-0.39,0.16,6.26,49.27809225371123,-122.91137122990415,355.5444346694276,1.0513465230115204
2024-07-07 19:40:04.1860,0.239,0.006,-1.68,-0.71,-0.9,6.87,49.27809225371123,-122.91137122990415,355.5444346694276,1.0513465230115204
2024-07-07 19:40:04.1950,0.236,0.046,-1.599,-0.95,-1.67,6.84,49.27809225371123,-122.91137122990415,355.5444346694276,1.0513465230115204
2024-07-07 19:40:04.2050,0.205,0.034,-1.455,-0.95,-1.99,5.93,49.27809225371123,-122.91137122990415,355.5444346694276,1.0513465230115204
2024-07-07 19:40:04.2160,0.17,-0.014,-1.309,-0.7,-1.82,4.47,49.27809225371123,-122.91137122990415,355.5444346694276,1.0513465230115204
2024-07-07 19:40:04.2250,0.147,-0.056,-1.207,-0.42,-1.35,3.07,49.27809225371123,-122.91137122990415,355.5444346694276,1.0513465230115204
2024-07-07 19:40:04.2350,0.13,-0.079,-1.145,-0.24,-0.97,2.12,49.27809225371123,-122.91137122990415,355.5444346694276,1.0513465230115204
2024-07-07 19:40:04.2460,0.118,-0.087,-1.125,-0.09,-0.78,1.57,49.27809225371123,-122.91137122990415,355.5444346694276,1.0513465230115204
2024-07-07 19:40:04.2560,0.114,-0.083,-1.125,0.01,-0.74,1.42,49.27809225371123,-122.91137122990415,355.5444346694276,1.0513465230115204
2024-07-07 19:40:04.2660,0.118,-0.074,-1.117,0.04,-0.82,1.43,49.27809225371123,-122.91137122990415,355.5444346694276,1.0513465230115204
2024-07-07 19:40:04.2760,0.117,-0.07,-1.094,-0.01,-0.93,1.33,49.27809225371123,-122.91137122990415,355.5444346694276,1.0513465230115204
2024-07-07 19:40:04.2860,0.104,-0.072,-1.052,0.01,-1.0,1.09,49.27809225371123,-122.91137122990415,355.5444346694276,1.0513465230115204
2024-07-07 19:40:04.2960,0.092,-0.08,-0.994,0.11,-1.01,0.66,49.27809225371123,-122.91137122990415,355.5444346694276,1.0513465230115204
2024-07-07 19:40:04.3060,0.074,-0.09,-0.932,0.19,-0.94,0.08,49.27809225371123,-122.91137122990415,355.5444346694276,1.0513465230115204
2024-07-07 19:40:04.3160,0.055,-0.098,-0.867,0.33,-0.84,-0.54,49.27809225371123,-122.91137122990415,355.5444346694276,1.0513465230115204
2024-07-07 19:40:04.3260,0.035,-0.1,-0.806,0.48,-0.78,-1.18,49.27809225371123,-122.91137122990415,355.5444346694276,1.0513465230115204
2024-07-07 19:40:04.3360,0.015,-0.102,-0.755,0.63,-0.75,-1.78,49.27809225371123,-122.91137122990415,355.5444346694276,1.0513465230115204
2024-07-07 19:40:04.3460,0.0,-0.101,-0.714,0.77,-0.72,-2.27,49.27809225371123,-122.91137122990415,355.5444346694276,1.0513465230115204
2024-07-07 19:40:04.3560,-0.007,-0.092,-0.689,0.86,-0.71,-2.66,49.27809225371123,-122.91137122990415,355.5444346694276,1.0513465230115204
2024-07-07 19:40:04.3660,-0.013,-0.078,-0.673,0.88,-0.79,-2.91,49.27809225371123,-122.91137122990415,355.5444346694276,1.0513465230115204
2024-07-07 19:40:04.3770,-0.013,-0.064,-0.667,0.9,-0.9,-3.05,49.27809225371123,-122.91137122990415,355.5444346694276,1.0513465230115204
2024-07-07 19:40:04.3870,-0.005,-0.045,-0.659,0.84,-1.05,-3.11,49.27809225371123,-122.91137122990415,355.5444346694276,1.0513465230115204
2024-07-07 19:40:04.3970,-0.002,-0.039,-0.644,0.73,-1.22,-3.2,49.27809225371123,-122.91137122990415,355.5444346694276,1.0513465230115204
2024-07-07 19:40:04.4070,-0.002,-0.044,-0.624,0.68,-1.29,-3.36,49.27809225371123,-122.91137122990415,355.5444346694276,1.0513465230115204
2024-07-07 19:40:04.4170,0.0,-0.058,-0.609,0.66,-1.25,-3.55,49.27809225371123,-122.91137122990415,355.5444346694276,1.0513465230115204
2024-07-07 19:40:04.4270,0.006,-0.074,-0.596,0.63,-1.14,-3.69,49.27809225371123,-122.91137122990415,355.5444346694276,1.0513465230115204
2024-07-07 19:40:04.4370,0.011,-0.095,-0.582,0.57,-1.03,-3.8,49.27809225371123,-122.91137122990415,355.5444346694276,1.0513465230115204
2024-07-07 19:40:04.4470,0.016,-0.116,-0.572,0.53,-0.88,-3.93,49.27809225371123,-122.91137122990415,355.5444346694276,1.0513465230115204
2024-07-07 19:40:04.4570,0.022,-0.135,-0.571,0.5,-0.73,-4.0,49.27809225371123,-122.91137122990415,355.5444346694276,1.0513465230115204
2024-07-07 19:40:04.4670,0.029,-0.147,-0.583,0.46,-0.62,-3.98,49.27809225371123,-122.91137122990415,355.5444346694276,1.0513465230115204
2024-07-07 19:40:04.4770,0.041,-0.15,-0.607,0.41,-0.57,-3.84,49.27809225371123,-122.91137122990415,355.5444346694276,1.0513465230115204
2024-07-07 19:40:04.4870,0.055,-0.153,-0.644,0.31,-0.6,-3.58,49.27809225371123,-122.91137122990415,355.5444346694276,1.0513465230115204
2024-07-07 19:40:04.4970,0.064,-0.165,-0.684,0.2,-0.6,-3.19,49.27809225371123,-122.91137122990415,355.5444346694276,1.0513465230115204
2024-07-07 19:40:04.5080,0.077,-0.18,-0.71,0.1,-0.51,-2.79,49.27809225371123,-122.91137122990415,355.5444346694276,1.0513465230115204
2024-07-07 19:40:04.5180,0.081,-0.196,-0.735,-0.02,-0.38,-2.55,49.27809225371123,-122.91137122990415,355.5444346694276,1.0513465230115204
2024-07-07 19:40:04.5280,0.081,-0.21,-0.762,-0.07,-0.22,-2.3,49.27809225371123,-122.91137122990415,355.5444346694276,1.0513465230115204
2024-07-07 19:40:04.5380,0.086,-0.208,-0.787,-0.09,-0.1,-2.04,49.27809225371123,-122.91137122990415,355.5444346694276,1.0513465230115204
2024-07-07 19:40:04.5480,0.089,-0.188,-0.812,-0.16,-0.14,-1.79,49.27809225371123,-122.91137122990415,355.5444346694276,1.0513465230115204
2024-07-07 19:40:04.5580,0.088,-0.166,-0.827,-0.2,-0.36,-1.56,49.27809225371123,-122.91137122990415,355.5444346694276,1.0513465230115204
2024-07-07 19:40:04.5680,0.086,-0.155,-0.832,-0.2,-0.58,-1.43,49.27809225371123,-122.91137122990415,355.5444346694276,1.0513465230115204
2024-07-07 19:40:04.5780,0.086,-0.16,-0.836,-0.19,-0.68,-1.38,49.27809225371123,-122.91137122990415,355.5444346694276,1.0513465230115204
2024-07-07 19:40:04.5880,0.082,-0.177,-0.842,-0.18,-0.62,-1.33,49.27809225371123,-122.91137122990415,355.5444346694276,1.0513465230115204
2024-07-07 19:40:04.5990,0.082,-0.195,-0.861,-0.13,-0.46,-1.26,49.27809225371123,-122.91137122990415,355.5444346694276,1.0513465230115204
2024-07-07 19:40:04.6080,0.087,-0.198,-0.909,-0.12,-0.31,-1.04,49.27809225371123,-122.91137122990415,355.5444346694276,1.0513465230115204
2024-07-07 19:40:04.6180,0.098,-0.186,-0.975,-0.14,-0.3,-0.54,49.27809225371123,-122.91137122990415,355.5444346694276,1.0513465230115204
2024-07-07 19:40:04.6280,0.109,-0.172,-1.035,-0.22,-0.42,0.11,49.27809225371123,-122.91137122990415,355.5444346694276,1.0513465230115204
2024-07-07 19:40:04.6390,0.114,-0.164,-1.081,-0.31,-0.53,0.68,49.27809225371123,-122.91137122990415,355.5444346694276,1.0513465230115204
2024-07-07 19:40:04.6490,0.118,-0.158,-1.118,-0.33,-0.57,1.12,49.27809225371123,-122.91137122990415,355.5444346694276,1.0513465230115204
2024-07-07 19:40:04.6590,0.131,-0.163,-1.145,-0.36,-0.58,1.45,49.27809225371123,-122.91137122990415,355.5444346694276,1.0513465230115204
2024-07-07 19:40:04.6690,0.156,-0.186,-1.171,-0.47,-0.45,1.7,49.27809225371123,-122.91137122990415,355.5444346694276,1.0513465230115204
2024-07-07 19:40:04.6790,0.188,-0.221,-1.218,-0.71,-0.13,1.96,49.27809225371123,-122.91137122990415,355.5444346694276,1.0513465230115204
2024-07-07 19:40:04.6890,0.205,-0.249,-1.301,-0.98,0.33,2.44,49.27809225371123,-122.91137122990415,355.5444346694276,1.0513465230115204
2024-07-07 19:40:04.6990,0.221,-0.252,-1.384,-1.12,0.7,3.25,49.27809225371123,-122.91137122990415,355.5444346694276,1.0513465230115204
2024-07-07 19:40:04.7090,0.233,-0.223,-1.459,-1.26,0.85,4.03,49.27809225371123,-122.91137122990415,355.5444346694276,1.0513465230115204
2024-07-07 19:40:04.7190,0.245,-0.151,-1.523,-1.4,0.7,4.73,49.27809225371123,-122.91137122990415,355.5444346694276,1.0513465230115204
2024-07-07 19:40:04.7290,0.272,-0.073,-1.549,-1.55,0.15,5.3,49.27809225371123,-122.91137122990415,355.5444346694276,1.0513465230115204
2024-07-07 19:40:04.7390,0.285,-0.025,-1.55,-1.88,-0.38,5.47,49.27809225371123,-122.91137122990415,355.5444346694276,1.0513465230115204
2024-07-07 19:40:04.7490,0.265,0.004,-1.541,-2.02,-0.62,5.45,49.27809225371123,-122.91137122990415,355.5444346694276,1.0513465230115204
2024-07-07 19:40:04.7590,0.245,0.035,-1.51,-1.88,-0.72,5.32,49.27809225371123,-122.91137122990415,355.5444346694276,1.0513465230115204
2024-07-07 19:40:04.7700,0.225,0.071,-1.472,-1.76,-0.87,4.99,49.27809225371123,-122.91137122990415,355.5444346694276,1.0513465230115204
2024-07-07 19:40:04.7800,0.215,0.119,-1.426,-1.63,-1.12,4.6,49.27809225371123,-122.91137122990415,355.5444346694276,1.0513465230115204
2024-07-07 19:40:04.7900,0.209,0.161,-1.366,-1.6,-1.49,4.13,49.27809225371123,-122.91137122990415,355.5444346694276,1.0513465230115204
2024-07-07 19:40:04.8000,0.215,0.175,-1.281,-1.59,-1.82,3.52,49.27809225371123,-122.91137122990415,355.5444346694276,1.0513465230115204
2024-07-07 19:40:04.8100,0.234,0.166,-1.178,-1.7,-1.91,2.64,49.27809225371123,-122.91137122990415,355.5444346694276,1.0513465230115204
2024-07-07 19:40:04.8200,0.26,0.125,-1.08,-1.91,-1.81,1.63,49.27809225371123,-122.91137122990415,355.5444346694276,1.0513465230115204
2024-07-07 19:40:04.8300,0.289,0.066,-0.99,-2.16,-1.44,0.68,49.27809225371123,-122.91137122990415,355.5444346694276,1.0513465230115204
2024-07-07 19:40:04.8400,0.315,0.005,-0.913,-2.42,-0.93,-0.19,49.27809225371123,-122.91137122990415,355.5444346694276,1.0513465230115204
2024-07-07 19:40:04.8500,0.336,-0.053,-0.87,-2.61,-0.43,-0.91,49.27809225371123,-122.91137122990415,355.5444346694276,1.0513465230115204
2024-07-07 19:40:04.8600,0.354,-0.094,-0.855,-2.77,0.01,-1.27,49.27809225371123,-122.91137122990415,355.5444346694276,1.0513465230115204
2024-07-07 19:40:04.8700,0.366,-0.113,-0.851,-2.86,0.28,-1.39,49.27809225371123,-122.91137122990415,355.5444346694276,1.0513465230115204
2024-07-07 19:40:04.8800,0.362,-0.12,-0.848,-2.91,0.34,-1.42,49.27809225371123,-122.91137122990415,355.5444346694276,1.0513465230115204
2024-07-07 19:40:04.8900,0.341,-0.126,-0.845,-2.78,0.3,-1.43,49.27809225371123,-122.91137122990415,355.5444346694276,1.0513465230115204
2024-07-07 19:40:04.9010,0.318,-0.125,-0.83,-2.54,0.26,-1.46,49.27809225371123,-122.91137122990415,355.5444346694276,1.0513465230115204
2024-07-07 19:40:04.9110,0.286,-0.12,-0.807,-2.28,0.17,-1.61,49.27809225371123,-122.91137122990415,355.5444346694276,1.0513465230115204
2024-07-07 19:40:04.9210,0.25,-0.116,-0.779,-1.95,0.07,-1.84,49.27809225371123,-122.91137122990415,355.5444346694276,1.0513465230115204
2024-07-07 19:40:04.9310,0.213,-0.106,-0.754,-1.61,-0.01,-2.1,49.27809225371123,-122.91137122990415,355.5444346694276,1.0513465230115204
2024-07-07 19:40:04.9410,0.179,-0.097,-0.732,-1.27,-0.14,-2.34,49.27809225371123,-122.91137122990415,355.5444346694276,1.0513465230115204
2024-07-07 19:40:04.9510,0.15,-0.098,-0.718,-0.98,-0.22,-2.56,49.27809225371123,-122.91137122990415,355.5444346694276,1.0513465230115204
2024-07-07 19:40:04.9610,0.126,-0.101,-0.703,-0.75,-0.21,-2.69,49.27809225371123,-122.91137122990415,355.5444346694276,1.0513465230115204
2024-07-07 19:40:04.9710,0.101,-0.104,-0.678,-0.58,-0.19,-2.85,49.27809225371123,-122.91137122990415,355.5444346694276,1.0513465230115204
2024-07-07 19:40:04.9810,0.072,-0.116,-0.638,-0.39,-0.15,-3.12,49.27809225371123,-122.91137122990415,355.5444346694276,1.0513465230115204
2024-07-07 19:40:04.9910,0.043,-0.128,-0.601,-0.17,-0.04,-3.52,49.27809225371123,-122.91137122990415,355.5444346694276,1.0513465230115204
2024-07-07 19:40:05.0010,0.017,-0.14,-0.582,0.07,0.07,-3.86,49.27809225371123,-122.91137122990415,355.5444346694276,1.0513465230115204
2024-07-07 19:40:05.0120,-0.006,-0.153,-0.578,0.27,0.18,-4.03,49.27809225371123,-122.91137122990415,355.5444346694276,1.0513465230115204
2024-07-07 19:40:05.0220,-0.027,-0.172,-0.585,0.46,0.29,-4.05,49.27809225371123,-122.91137122990415,355.5444346694276,1.0513465230115204
2024-07-07 19:40:05.0320,-0.037,-0.195,-0.599,0.63,0.48,-3.98,49.27809225371123,-122.91137122990415,355.5444346694276,1.0513465230115204
2024-07-07 19:40:05.0420,-0.04,-0.215,-0.623,0.7,0.69,-3.82,49.27809225371123,-122.91137122990415,355.5444346694276,1.0513465230115204
2024-07-07 19:40:05.0520,-0.043,-0.229,-0.656,0.71,0.87,-3.58,49.27809225371123,-122.91137122990415,355.5444346694276,1.0513465230115204
2024-07-07 19:40:05.0620,-0.044,-0.237,-0.695,0.73,0.98,-3.24,49.27809225371123,-122.91137122990415,355.5444346694276,1.0513465230115204
2024-07-07 19:40:05.0720,-0.046,-0.242,-0.718,0.72,1.03,-2.87,49.27809225371123,-122.91137122990415,355.5444346694276,1.0513465230115204
2024-07-07 19:40:05.0820,-0.061,-0.246,-0.734,0.74,1.05,-2.65,49.27809225371123,-122.91137122990415,355.5444346694276,1.0513465230115204
2024-07-07 19:40:05.0920,-0.078,-0.253,-0.747,0.88,1.06,-2.5,49.27809225371123,-122.91137122990415,355.5444346694276,1.0513465230115204
2024-07-07 19:40:05.1020,-0.088,-0.262,-0.759,1.03,1.11,-2.37,49.27809225371123,-122.91137122990415,355.5444346694276,1.0513465230115204
2024-07-07 19:40:05.1120,-0.102,-0.269,-0.771,1.13,1.17,-2.25,49.27809225371123,-122.91137122990415,355.5444346694276,1.0513465230115204
2024-07-07 19:40:05.1220,-0.115,-0.277,-0.783,1.26,1.21,-2.13,49.27809225371123,-122.91137122990415,355.5444346694276,1.0513465230115204
2024-07-07 19:40:05.1320,-0.127,-0.293,-0.795,1.38,1.27,-2.01,49.27809225371123,-122.91137122990415,355.5444346694276,1.0513465230115204
2024-07-07 19:40:05.1430,-0.134,-0.31,-0.82,1.48,1.41,-1.88,49.27809225371123,-122.91137122990415,355.5444346694276,1.0513465230115204
2024-07-07 19:40:05.1530,-0.14,-0.321,-0.849,1.55,1.56,-1.62,49.27809225371123,-122.91137122990415,355.5444346694276,1.0513465230115204
2024-07-07 19:40:05.1620,-0.148,-0.321,-0.891,1.61,1.66,-1.33,49.278094604688185,-122.9113889259738,355.5126477750018,1.0400493654318979
2024-07-07 19:40:05.1720,-0.145,-0.307,-0.936,1.68,1.63,-0.9,49.278094604688185,-122.9113889259738,355.5126477750018,1.0400493654318979
2024-07-07 19:40:05.1830,-0.138,-0.289,-0.983,1.64,1.49,-0.46,49.278094604688185,-122.9113889259738,355.5126477750018,1.0400493654318979
2024-07-07 19:40:05.1930,-0.134,-0.274,-1.03,1.57,1.33,0.0,49.278094604688185,-122.9113889259738,355.5126477750018,1.0400493654318979
2024-07-07 19:40:05.2030,-0.123,-0.263,-1.089,1.53,1.21,0.46,49.278094604688185,-122.9113889259738,355.5126477750018,1.0400493654318979
2024-07-07 19:40:05.2130,-0.104,-0.244,-1.146,1.41,1.12,1.05,49.278094604688185,-122.9113889259738,355.5126477750018,1.0400493654318979
2024-07-07 19:40:05.2230,-0.09,-0.229,-1.202,1.23,0.94,1.6,49.278094604688185,-122.9113889259738,355.5126477750018,1.0400493654318979
2024-07-07 19:40:05.2330,-0.078,-0.231,-1.259,1.11,0.85,2.16,49.278094604688185,-122.9113889259738,355.5126477750018,1.0400493654318979
2024-07-07 19:40:05.2430,-0.066,-0.236,-1.31,1.01,0.92,2.7,49.278094604688185,-122.9113889259738,355.5126477750018,1.0400493654318979
2024-07-07 19:40:05.2530,-0.054,-0.23,-1.363,0.92,1.01,3.19,49.278094604688185,-122.9113889259738,355.5126477750018,1.0400493654318979
2024-07-07 19:40:05.2630,-0.044,-0.22,-1.414,0.82,0.99,3.7,49.278094604688185,-122.9113889259738,355.5126477750018,1.0400493654318979
2024-07-07 19:40:05.2730,-0.032,-0.206,-1.462,0.76,0.96,4.2,49.278094604688185,-122.9113889259738,355.5126477750018,1.0400493654318979
2024-07-07 19:40:05.2830,-0.009,-0.169,-1.502,0.66,0.86,4.66,49.278094604688185,-122.9113889259738,355.5126477750018,1.0400493654318979
2024-07-07 19:40:05.2940,0.019,-0.109,-1.53,0.45,0.54,5.02,49.278094604688185,-122.9113889259738,355.5126477750018,1.0400493654318979
2024-07-07 19:40:05.3040,0.039,-0.037,-1.547,0.2,-0.01,5.28,49.278094604688185,-122.9113889259738,355.5126477750018,1.0400493654318979
2024-07-07 19:40:05.3140,0.05,0.02,-1.545,0.03,-0.64,5.42,49.278094604688185,-122.9113889259738,355.5126477750018,1.0400493654318979
2024-07-07 19:40:05.3240,0.05,0.059,-1.52,-0.07,-1.12,5.37,49.278094604688185,-122.9113889259738,355.5126477750018,1.0400493654318979
2024-07-07 19:40:05.3340,0.042,0.075,-1.469,-0.06,-1.45,5.09,49.278094604688185,-122.9113889259738,355.5126477750018,1.0400493654318979
2024-07-07 19:40:05.3440,0.042,0.071,-1.394,0.01,-1.57,4.56,49.278094604688185,-122.9113889259738,355.5126477750018,1.0400493654318979
2024-07-07 19:40:05.3540,0.05,0.05,-1.317,0.01,-1.52,3.81,49.278094604688185,-122.9113889259738,355.5126477750018,1.0400493654318979
2024-07-07 19:40:05.3640,0.061,0.013,-1.239,-0.07,-1.31,3.05,49.278094604688185,-122.9113889259738,355.5126477750018,1.0400493654318979
2024-07-07 19:40:05.3740,0.067,-0.033,-1.169,-0.15,-0.97,2.29,49.278094604688185,-122.9113889259738,355.5126477750018,1.0400493654318979
2024-07-07 19:40:05.3840,0.072,-0.069,-1.122,-0.17,-0.55,1.64,49.278094604688185,-122.9113889259738,355.5126477750018,1.0400493654318979
2024-07-07 19:40:05.3940,0.081,-0.086,-1.092,-0.18,-0.26,1.21,49.278094604688185,-122.9113889259738,355.5126477750018,1.0400493654318979
2024-07-07 19:40:05.4050,0.082,-0.086,-1.074,-0.22,-0.14,0.93,49.278094604688185,-122.9113889259738,355.5126477750018,1.0400493654318979
2024-07-07 19:40:05.4140,0.082,-0.055,-1.078,-0.17,-0.2,0.79,49.278094604688185,-122.9113889259738,355.5126477750018,1.0400493654318979
2024-07-07 19:40:05.4250,0.09,-0.009,-1.08,-0.15,-0.59,0.85,49.278094604688185,-122.9113889259738,355.5126477750018,1.0400493654318979
2024-07-07 19:40:05.4350,0.088,0.022,-1.064,-0.18,-1.06,0.86,49.278094604688185,-122.9113889259738,355.5126477750018,1.0400493654318979
2024-07-07 19:40:05.4450,0.081,0.038,-1.031,-0.13,-1.38,0.68,49.278094604688185,-122.9113889259738,355.5126477750018,1.0400493654318979
2024-07-07 19:40:05.4550,0.072,0.042,-0.994,-0.03,-1.55,0.35,49.278094604688185,-122.9113889259738,355.5126477750018,1.0400493654318979
2024-07-07 19:40:05.4650,0.065,0.039,-0.959,0.07,-1.61,-0.01,49.278094604688185,-122.9113889259738,355.5126477750018,1.0400493654318979
2024-07-07 19:40:05.4750,0.055,0.03,-0.926,0.15,-1.61,-0.34,49.278094604688185,-122.9113889259738,355.5126477750018,1.0400493654318979
2024-07-07 19:40:05.4850,0.047,0.023,-0.896,0.26,-1.55,-0.66,49.278094604688185,-122.9113889259738,355.5126477750018,1.0400493654318979
2024-07-07 19:40:05.4950,0.039,0.022,-0.864,0.34,-1.51,-0.95,49.278094604688185,-122.9113889259738,355.5126477750018,1.0400493654318979
2024-07-07 19:40:05.5050,0.029,0.018,-0.831,0.42,-1.52,-1.26,49.278094604688185,-122.9113889259738,355.5126477750018,1.0400493654318979
2024-07-07 19:40:05.5150,0.02,0.014,-0.799,0.51,-1.52,-1.58,49.278094604688185,-122.9113889259738,355.5126477750018,1.0400493654318979
2024-07-07 19:40:05.5250,0.014,0.006,-0.767,0.59,-1.51,-1.89,49.278094604688185,-122.9113889259738,355.5126477750018,1.0400493654318979
2024-07-07 19:40:05.5350,0.01,-0.001,-0.729,0.64,-1.46,-2.21,49.278094604688185,-122.9113889259738,355.5126477750018,1.0400493654318979
2024-07-07 19:40:05.5450,0.006,-0.014,-0.688,0.66,-1.43,-2.58,49.278094604688185,-122.9113889259738,355.5126477750018,1.0400493654318979
2024-07-07 19:40:05.5550,0.003,-0.037,-0.649,0.69,-1.33,-2.98,49.278094604688185,-122.9113889259738,355.5126477750018,1.0400493654318979
2024-07-07 19:40:05.5660,0.005,-0.06,-0.62,0.72,-1.15,-3.34,49.278094604688185,-122.9113889259738,355.5126477750018,1.0400493654318979
2024-07-07 19:40:05.5750,0.012,-0.085,-0.596,0.69,-0.97,-3.61,49.278094604688185,-122.9113889259738,355.5126477750018,1.0400493654318979
2024-07-07 19:40:05.5860,0.018,-0.106,-0.583,0.64,-0.77,-3.83,49.278094604688185,-122.9113889259738,355.5126477750018,1.0400493654318979
2024-07-07 19:40:05.5960,0.026,-0.124,-0.579,0.6,-0.63,-3.93,49.278094604688185,-122.9113889259738,355.5126477750018,1.0400493654318979
2024-07-07 19:40:05.6060,0.035,-0.142,-0.578,0.54,-0.5,-3.95,49.278094604688185,-122.9113889259738,355.5126477750018,1.0400493654318979
2024-07-07 19:40:05.6160,0.045,-0.161,-0.579,0.48,-0.38,-3.95,49.278094604688185,-122.9113889259738,355.5126477750018,1.0400493654318979
2024-07-07 19:40:05.6270,0.054,-0.179,-0.586,0.41,-0.25,-3.91,49.278094604688185,-122.9113889259738,355.5126477750018,1.0400493654318979
2024-07-07 19:40:05.6360,0.061,-0.191,-0.598,0.35,-0.14,-3.82,49.278094604688185,-122.9113889259738,355.5126477750018,1.0400493654318979
2024-07-07 19:40:05.6460,0.066,-0.2,-0.613,0.32,-0.07,-3.69,49.278094604688185,-122.9113889259738,355.5126477750018,1.0400493654318979
2024-07-07 19:40:05.6560,0.072,-0.209,-0.634,0.29,-0.02,-3.52,49.278094604688185,-122.9113889259738,355.5126477750018,1.0400493654318979
2024-07-07 19:40:05.6660,0.077,-0.218,-0.658,0.26,0.03,-3.31,49.278094604688185,-122.9113889259738,355.5126477750018,1.0400493654318979
2024-07-07 19:40:05.6760,0.083,-0.225,-0.68,0.22,0.1,-3.07,49.278094604688185,-122.9113889259738,355.5126477750018,1.0400493654318979
2024-07-07 19:40:05.6860,0.089,-0.23,-0.704,0.17,0.16,-2.85,49.278094604688185,-122.9113889259738,355.5126477750018,1.0400493654318979
2024-07-07 19:40:05.6970,0.097,-0.229,-0.736,0.11,0.2,-2.6,49.278094604688185,-122.9113889259738,355.5126477750018,1.0400493654318979
2024-07-07 19:40:05.7070,0.101,-0.225,-0.76,0.03,0.19,-2.29,49.278094604688185,-122.9113889259738,355.5126477750018,1.0400493654318979
2024-07-07 19:40:05.7170,0.102,-0.223,-0.781,-0.02,0.17,-2.06,49.278094604688185,-122.9113889259738,355.5126477750018,1.0400493654318979
2024-07-07 19:40:05.7270,0.1,-0.224,-0.798,-0.03,0.16,-1.87,49.278094604688185,-122.9113889259738,355.5126477750018,1.0400493654318979
2024-07-07 19:40:05.7370,0.095,-0.226,-0.813,-0.01,0.19,-1.71,49.278094604688185,-122.9113889259738,355.5126477750018,1.0400493654318979
2024-07-07 19:40:05.7470,0.094,-0.216,-0.846,0.05,0.22,-1.57,49.278094604688185,-122.9113889259738,355.5126477750018,1.0400493654318979
2024-07-07 19:40:05.7570,0.101,-0.196,-0.912,0.07,0.12,-1.19,49.278094604688185,-122.9113889259738,355.5126477750018,1.0400493654318979
2024-07-07 19:40:05.7670,0.112,-0.172,-0.989,0.03,-0.06,-0.52,49.278094604688185,-122.9113889259738,355.5126477750018,1.0400493654318979
2024-07-07 19:40:05.7770,0.122,-0.149,-1.063,-0.05,-0.29,0.23,49.278094604688185,-122.9113889259738,355.5126477750018,1.0400493654318979
2024-07-07 19:40:05.7870,0.124,-0.152,-1.122,-0.11,-0.48,0.95,49.278094604688185,-122.9113889259738,355.5126477750018,1.0400493654318979
2024-07-07 19:40:05.7970,0.132,-0.175,-1.161,-0.1,-0.4,1.5,49.278094604688185,-122.9113889259738,355.5126477750018,1.0400493654318979
2024-07-07 19:40:05.8070,0.145,-0.2,-1.202,-0.14,-0.13,1.87,49.278094604688185,-122.9113889259738,355.5126477750018,1.0400493654318979
2024-07-07 19:40:05.8170,0.159,-0.228,-1.246,-0.22,0.17,2.27,49.278094604688185,-122.9113889259738,355.5126477750018,1.0400493654318979
2024-07-07 19:40:05.8280,0.18,-0.247,-1.328,-0.3,0.53,2.72,49.278094604688185,-122.9113889259738,355.5126477750018,1.0400493654318979
2024-07-07 19:40:05.8380,0.208,-0.24,-1.461,-0.45,0.81,3.58,49.278094604688185,-122.9113889259738,355.5126477750018,1.0400493654318979
2024-07-07 19:40:05.8480,0.243,-0.206,-1.596,-0.68,0.84,4.91,49.278094604688185,-122.9113889259738,355.5126477750018,1.0400493654318979
2024-07-07 19:40:05.8580,0.29,-0.152,-1.696,-1.0,0.63,6.18,49.278094604688185,-122.9113889259738,355.5126477750018,1.0400493654318979
2024-07-07 19:40:05.8680,0.326,-0.096,-1.731,-1.45,0.24,7.09,49.278094604688185,-122.9113889259738,355.5126477750018,1.0400493654318979
2024-07-07 19:40:05.8780,0.345,-0.039,-1.695,-1.78,-0.17,7.32,49.278094604688185,-122.9113889259738,355.5126477750018,1.0400493654318979
2024-07-07 19:40:05.8880,0.341,0.011,-1.647,-1.96,-0.61,6.9,49.278094604688185,-122.9113889259738,355.5126477750018,1.0400493654318979
2024-07-07 19:40:05.8980,0.323,0.036,-1.628,-1.91,-0.95,6.44,49.278094604688185,-122.9113889259738,355.5126477750018,1.0400493654318979
2024-07-07 19:40:05.9080,0.308,0.078,-1.631,-1.76,-1.09,6.28,49.278094604688185,-122.9113889259738,355.5126477750018,1.0400493654318979
2024-07-07 19:40:05.9180,0.303,0.135,-1.614,-1.67,-1.44,6.3,49.278094604688185,-122.9113889259738,355.5126477750018,1.0400493654318979
2024-07-07 19:40:05.9280,0.298,0.177,-1.538,-1.67,-1.94,6.06,49.278094604688185,-122.9113889259738,355.5126477750018,1.0400493654318979
2024-07-07 19:40:05.9380,0.294,0.19,-1.409,-1.7,-2.29,5.22,49.278094604688185,-122.9113889259738,355.5126477750018,1.0400493654318979
2024-07-07 19:40:05.9480,0.296,0.166,-1.262,-1.72,-2.38,3.91,49.278094604688185,-122.9113889259738,355.5126477750018,1.0400493654318979
2024-07-07 19:40:05.9590,0.301,0.117,-1.127,-1.8,-2.15,2.47,49.278094604688185,-122.9113889259738,355.5126477750018,1.0400493654318979
2024-07-07 19:40:05.9690,0.306,0.054,-1.009,-1.88,-1.71,1.17,49.278094604688185,-122.9113889259738,355.5126477750018,1.0400493654318979
2024-07-07 19:40:05.9790,0.313,-0.008,-0.908,-1.94,-1.18,0.04,49.278094604688185,-122.9113889259738,355.5126477750018,1.0400493654318979
2024-07-07 19:40:05.9890,0.315,-0.062,-0.821,-2.0,-0.7,-0.93,49.278094604688185,-122.9113889259738,355.5126477750018,1.0400493654318979
2024-07-07 19:40:05.9990,0.317,-0.108,-0.759,-1.99,-0.32,-1.74,49.278094604688185,-122.9113889259738,355.5126477750018,1.0400493654318979
2024-07-07 19:40:06.0090,0.322,-0.151,-0.718,-1.96,-0.01,-2.3,49.278094604688185,-122.9113889259738,355.5126477750018,1.0400493654318979
2024-07-07 19:40:06.0190,0.323,-0.183,-0.7,-1.92,0.25,-2.64,49.278094604688185,-122.9113889259738,355.5126477750018,1.0400493654318979
2024-07-07 19:40:06.0290,0.317,-0.201,-0.698,-1.85,0.4,-2.77,49.278094604688185,-122.9113889259738,355.5126477750018,1.0400493654318979
2024-07-07 19:40:06.0390,0.309,-0.209,-0.702,-1.71,0.43,-2.74,49.278094604688185,-122.9113889259738,355.5126477750018,1.0400493654318979
2024-07-07 19:40:06.0490,0.294,-0.206,-0.707,-1.56,0.36,-2.66,49.278094604688185,-122.9113889259738,355.5126477750018,1.0400493654318979
2024-07-07 19:40:06.0590,0.277,-0.196,-0.713,-1.35,0.21,-2.59,49.278094604688185,-122.9113889259738,355.5126477750018,1.0400493654318979
2024-07-07 19:40:06.0690,0.26,-0.181,-0.715,-1.17,0.02,-2.51,49.278094604688185,-122.9113889259738,355.5126477750018,1.0400493654318979
2024-07-07 19:40:06.0790,0.238,-0.163,-0.718,-0.98,-0.19,-2.48,49.278094604688185,-122.9113889259738,355.5126477750018,1.0400493654318979
2024-07-07 19:40:06.0900,0.217,-0.145,-0.709,-0.78,-0.42,-2.45,49.278094604688185,-122.9113889259738,355.5126477750018,1.0400493654318979
2024-07-07 19:40:06.1000,0.193,-0.138,-0.683,-0.61,-0.6,-2.56,49.278094604688185,-122.9113889259738,355.5126477750018,1.0400493654318979
2024-07-07 19:40:06.1100,0.164,-0.137,-0.652,-0.42,-0.67,-2.83,49.278094604688185,-122.9113889259738,355.5126477750018,1.0400493654318979
2024-07-07 19:40:06.1200,0.14,-0.139,-0.614,-0.21,-0.67,-3.15,49.278094604688185,-122.9113889259738,355.5126477750018,1.0400493654318979
2024-07-07 19:40:06.1300,0.111,-0.148,-0.577,-0.04,-0.63,-3.55,49.278094604688185,-122.9113889259738,355.5126477750018,1.0400493654318979
2024-07-07 19:40:06.1400,0.084,-0.161,-0.544,0.17,-0.52,-3.91,49.278094604688185,-122.9113889259738,355.5126477750018,1.0400493654318979
2024-07-07 19:40:06.1500,0.066,-0.183,-0.527,0.37,-0.37,-4.24,49.278094604688185,-122.9113889259738,355.5126477750018,1.0400493654318979
2024-07-07 19:40:06.1600,0.056,-0.198,-0.528,0.49,-0.15,-4.38,49.278094604688185,-122.9113889259738,355.5126477750018,1.0400493654318979
2024-07-07 19:40:06.1700,0.048,-0.207,-0.545,0.56,-0.01,-4.36,49.27809574457314,-122.91140623549244,355.3007550910115,0.973494811044914
2024-07-07 19:40:06.1800,0.044,-0.213,-0.562,0.61,0.07,-4.19,49.27809574457314,-122.91140623549244,355.3007550910115,0.973494811044914
2024-07-07 19:40:06.1900,0.042,-0.214,-0.59,0.63,0.12,-4.02,49.27809574457314,-122.91140623549244,355.3007550910115,0.973494811044914
2024-07-07 19:40:06.2000,0.039,-0.223,-0.627,0.65,0.12,-3.72,49.27809574457314,-122.91140623549244,355.3007550910115,0.973494811044914
2024-07-07 19:40:06.2110,0.038,-0.241,-0.656,0.66,0.22,-3.36,49.27809574457314,-122.91140623549244,355.3007550910115,0.973494811044914
2024-07-07 19:40:06.2210,0.037,-0.259,-0.686,0.67,0.4,-3.09,49.27809574457314,-122.91140623549244,355.3007550910115,0.973494811044914
2024-07-07 19:40:06.2310,0.037,-0.273,-0.723,0.66,0.57,-2.78,49.27809574457314,-122.91140623549244,355.3007550910115,0.973494811044914
2024-07-07 19:40:06.2410,0.034,-0.285,-0.752,0.65,0.72,-2.42,49.27809574457314,-122.91140623549244,355.3007550910115,0.973494811044914
2024-07-07 19:40:06.2510,0.03,-0.296,-0.769,0.67,0.84,-2.15,49.27809574457314,-122.91140623549244,355.3007550910115,0.973494811044914
2024-07-07 19:40:06.2610,0.025,-0.306,-0.781,0.68,0.96,-2.02,49.27809574457314,-122.91140623549244,355.3007550910115,0.973494811044914
2024-07-07 19:40:06.2710,0.015,-0.314,-0.8,0.72,1.07,-1.89,49.27809574457314,-122.91140623549244,355.3007550910115,0.973494811044914
2024-07-07 19:40:06.2810,0.007,-0.322,-0.825,0.79,1.16,-1.71,49.27809574457314,-122.91140623549244,355.3007550910115,0.973494811044914
2024-07-07 19:40:06.2910,-0.003,-0.331,-0.858,0.85,1.26,-1.46,49.27809574457314,-122.91140623549244,355.3007550910115,0.973494811044914
2024-07-07 19:40:06.3010,-0.016,-0.338,-0.888,0.93,1.37,-1.13,49.27809574457314,-122.91140623549244,355.3007550910115,0.973494811044914
2024-07-07 19:40:06.3120,-0.032,-0.347,-0.916,1.04,1.45,-0.85,49.27809574457314,-122.91140623549244,355.3007550910115,0.973494811044914
2024-07-07 19:40:06.3210,-0.047,-0.348,-0.938,1.17,1.56,-0.58,49.27809574457314,-122.91140623549244,355.3007550910115,0.973494811044914
2024-07-07 19:40:06.3310,-0.066,-0.347,-0.949,1.29,1.58,-0.39,49.27809574457314,-122.91140623549244,355.3007550910115,0.973494811044914
2024-07-07 19:40:06.3410,-0.086,-0.345,-0.97,1.45,1.59,-0.28,49.27809574457314,-122.91140623549244,355.3007550910115,0.973494811044914
2024-07-07 19:40:06.3520,-0.097,-0.336,-1.001,1.62,1.6,-0.08,49.27809574457314,-122.91140623549244,355.3007550910115,0.973494811044914
2024-07-07 19:40:06.3620,-0.095,-0.324,-1.028,1.68,1.52,0.23,49.27809574457314,-122.91140623549244,355.3007550910115,0.973494811044914
2024-07-07 19:40:06.3720,-0.086,-0.318,-1.046,1.62,1.44,0.47,49.27809574457314,-122.91140623549244,355.3007550910115,0.973494811044914
2024-07-07 19:40:06.3820,-0.075,-0.325,-1.078,1.51,1.45,0.64,49.27809574457314,-122.91140623549244,355.3007550910115,0.973494811044914
2024-07-07 19:40:06.3920,-0.069,-0.345,-1.134,1.38,1.59,0.98,49.27809574457314,-122.91140623549244,355.3007550910115,0.973494811044914
2024-07-07 19:40:06.4020,-0.066,-0.363,-1.194,1.3,1.86,1.53,49.27809574457314,-122.91140623549244,355.3007550910115,0.973494811044914
2024-07-07 19:40:06.4120,-0.054,-0.366,-1.236,1.23,2.13,2.09,49.27809574457314,-122.91140623549244,355.3007550910115,0.973494811044914
2024-07-07 19:40:06.4220,-0.044,-0.346,-1.259,1.05,2.24,2.46,49.27809574457314,-122.91140623549244,355.3007550910115,0.973494811044914
2024-07-07 19:40:06.4320,-0.036,-0.322,-1.272,0.89,2.17,2.63,49.27809574457314,-122.91140623549244,355.3007550910115,0.973494811044914
2024-07-07 19:40:06.4420,-0.012,-0.291,-1.3,0.74,2.12,2.75,49.27809574457314,-122.91140623549244,355.3007550910115,0.973494811044914
2024-07-07 19:40:06.4520,0.023,-0.215,-1.338,0.42,2.01,3.01,49.27809574457314,-122.91140623549244,355.3007550910115,0.973494811044914
2024-07-07 19:40:06.4630,0.046,-0.084,-1.423,0.05,1.44,3.4,49.27809574457314,-122.91140623549244,355.3007550910115,0.973494811044914
2024-07-07 19:40:06.4730,0.059,0.065,-1.545,-0.2,0.37,4.29,49.27809574457314,-122.91140623549244,355.3007550910115,0.973494811044914
2024-07-07 19:40:06.4830,0.068,0.196,-1.667,-0.37,-0.84,5.5,49.27809574457314,-122.91140623549244,355.3007550910115,0.973494811044914
2024-07-07 19:40:06.4930,0.058,0.287,-1.721,-0.49,-1.88,6.66,49.27809574457314,-122.91140623549244,355.3007550910115,0.973494811044914
2024-07-07 19:40:06.5030,0.036,0.347,-1.677,-0.44,-2.57,7.07,49.27809574457314,-122.91140623549244,355.3007550910115,0.973494811044914
2024-07-07 19:40:06.5130,0.015,0.369,-1.581,-0.3,-3.03,6.55,49.27809574457314,-122.91140623549244,355.3007550910115,0.973494811044914
2024-07-07 19:40:06.5230,-0.012,0.357,-1.467,-0.16,-3.13,5.57,49.27809574457314,-122.91140623549244,355.3007550910115,0.973494811044914
2024-07-07 19:40:06.5330,-0.038,0.335,-1.363,0.04,-2.95,4.45,49.27809574457314,-122.91140623549244,355.3007550910115,0.973494811044914
2024-07-07 19:40:06.5430,-0.052,0.305,-1.277,0.24,-2.69,3.46,49.27809574457314,-122.91140623549244,355.3007550910115,0.973494811044914
2024-07-07 19:40:06.5530,-0.052,0.279,-1.199,0.32,-2.39,2.63,49.27809574457314,-122.91140623549244,355.3007550910115,0.973494811044914
2024-07-07 19:40:06.5630,-0.044,0.253,-1.15,0.3,-2.15,1.88,49.27809574457314,-122.91140623549244,355.3007550910115,0.973494811044914
2024-07-07 19:40:06.5730,-0.024,0.234,-1.122,0.21,-1.92,1.44,49.27809574457314,-122.91140623549244,355.3007550910115,0.973494811044914
2024-07-07 19:40:06.5830,-0.006,0.218,-1.095,0.02,-1.79,1.17,49.27809574457314,-122.91140623549244,355.3007550910115,0.973494811044914
2024-07-07 19:40:06.5930,0.002,0.2,-1.06,-0.12,-1.69,0.9,49.27809574457314,-122.91140623549244,355.3007550910115,0.973494811044914
2024-07-07 19:40:06.6030,0.004,0.183,-1.019,-0.16,-1.6,0.54,49.27809574457314,-122.91140623549244,355.3007550910115,0.973494811044914
2024-07-07 19:40:06.6130,-0.003,0.165,-0.968,-0.14,-1.53,0.13,49.27809574457314,-122.91140623549244,355.3007550910115,0.973494811044914
2024-07-07 19:40:06.6240,-0.013,0.15,-0.917,-0.03,-1.46,-0.38,49.27809574457314,-122.91140623549244,355.3007550910115,0.973494811044914
2024-07-07 19:40:06.6340,-0.016,0.139,-0.866,0.1,-1.44,-0.89,49.27809574457314,-122.91140623549244,355.3007550910115,0.973494811044914
2024-07-07 19:40:06.6440,-0.016,0.12,-0.823,0.15,-1.44,-1.38,49.27809574457314,-122.91140623549244,355.3007550910115,0.973494811044914
2024-07-07 19:40:06.6540,-0.016,0.097,-0.793,0.19,-1.37,-1.78,49.27809574457314,-122.91140623549244,355.3007550910115,0.973494811044914
2024-07-07 19:40:06.6640,-0.016,0.073,-0.763,0.23,-1.26,-2.07,49.27809574457314,-122.91140623549244,355.3007550910115,0.973494811044914
2024-07-07 19:40:06.6740,-0.015,0.051,-0.738,0.25,-1.14,-2.35,49.27809574457314,-122.91140623549244,355.3007550910115,0.973494811044914
2024-07-07 19:40:06.6840,-0.013,0.031,-0.713,0.28,-1.05,-2.59,49.27809574457314,-122.91140623549244,355.3007550910115,0.973494811044914
2024-07-07 19:40:06.6940,-0.008,0.011,-0.688,0.29,-0.96,-2.82,49.27809574457314,-122.91140623549244,355.3007550910115,0.973494811044914
2024-07-07 19:40:06.7040,-0.002,-0.012,-0.667,0.28,-0.88,-3.06,49.27809574457314,-122.91140623549244,355.3007550910115,0.973494811044914
2024-07-07 19:40:06.7140,0.007,-0.037,-0.649,0.26,-0.77,-3.25,49.27809574457314,-122.91140623549244,355.3007550910115,0.973494811044914
2024-07-07 19:40:06.7240,0.019,-0.06,-0.634,0.2,-0.64,-3.41,49.27809574457314,-122.91140623549244,355.3007550910115,0.973494811044914
2024-07-07 19:40:06.7350,0.021,-0.077,-0.63,0.14,-0.53,-3.53,49.27809574457314,-122.91140623549244,355.3007550910115,0.973494811044914
2024-07-07 19:40:06.7450,0.018,-0.091,-0.629,0.17,-0.47,-3.55,49.27809574457314,-122.91140623549244,355.3007550910115,0.973494811044914
2024-07-07 19:40:06.7550,0.02,-0.102,-0.632,0.23,-0.44,-3.54,49.27809574457314,-122.91140623549244,355.3007550910115,0.973494811044914
2024-07-07 19:40:06.7650,0.022,-0.113,-0.644,0.27,-0.44,-3.48,49.27809574457314,-122.91140623549244,355.3007550910115,0.973494811044914
2024-07-07 19:40:06.7750,0.028,-0.129,-0.66,0.28,-0.4,-3.34,49.27809574457314,-122.91140623549244,355.3007550910115,0.973494811044914
2024-07-07 19:40:06.7850,0.037,-0.139,-0.678,0.26,-0.34,-3.17,49.27809574457314,-122.91140623549244,355.3007550910115,0.973494811044914
2024-07-07 19:40:06.7950,0.051,-0.148,-0.689,0.21,-0.33,-2.98,49.27809574457314,-122.91140623549244,355.3007550910115,0.973494811044914
2024-07-07 19:40:06.8050,0.061,-0.16,-0.701,0.11,-0.31,-2.86,49.27809574457314,-122.91140623549244,355.3007550910115,0.973494811044914
2024-07-07 19:40:06.8150,0.061,-0.171,-0.721,0.05,-0.27,-2.72,49.27809574457314,-122.91140623549244,355.3007550910115,0.973494811044914
2024-07-07 19:40:06.8250,0.063,-0.178,-0.737,0.1,-0.23,-2.5,49.27809574457314,-122.91140623549244,355.3007550910115,0.973494811044914
2024-07-07 19:40:06.8350,0.07,-0.19,-0.753,0.09,-0.24,-2.34,49.27809574457314,-122.91140623549244,355.3007550910115,0.973494811044914
2024-07-07 19:40:06.8450,0.072,-0.207,-0.773,0.05,-0.17,-2.15,49.27809574457314,-122.91140623549244,355.3007550910115,0.973494811044914
2024-07-07 19:40:06.8550,0.074,-0.211,-0.792,0.04,-0.07,-1.95,49.27809574457314,-122.91140623549244,355.3007550910115,0.973494811044914
2024-07-07 19:40:06.8650,0.075,-0.211,-0.809,0.03,-0.1,-1.75,49.27809574457314,-122.91140623549244,355.3007550910115,0.973494811044914
2024-07-07 19:40:06.8750,0.07,-0.222,-0.821,0.03,-0.15,-1.58,49.27809574457314,-122.91140623549244,355.3007550910115,0.973494811044914
2024-07-07 19:40:06.8860,0.066,-0.233,-0.834,0.09,-0.07,-1.45,49.27809574457314,-122.91140623549244,355.3007550910115,0.973494811044914
2024-07-07 19:40:06.8960,0.064,-0.238,-0.854,0.13,0.0,-1.31,49.27809574457314,-122.91140623549244,355.3007550910115,0.973494811044914
2024-07-07 19:40:06.9060,0.064,-0.246,-0.879,0.15,0.02,-1.1,49.27809574457314,-122.91140623549244,355.3007550910115,0.973494811044914
2024-07-07 19:40:06.9160,0.061,-0.256,-0.909,0.16,0.08,-0.85,49.27809574457314,-122.91140623549244,355.3007550910115,0.973494811044914
2024-07-07 19:40:06.9260,0.056,-0.26,-0.949,0.19,0.17,-0.54,49.27809574457314,-122.91140623549244,355.3007550910115,0.973494811044914
2024-07-07 19:40:06.9360,0.049,-0.257,-0.979,0.24,0.21,-0.14,49.27809574457314,-122.91140623549244,355.3007550910115,0.973494811044914
2024-07-07 19:40:06.9460,0.037,-0.253,-1.003,0.31,0.17,0.13,49.27809574457314,-122.91140623549244,355.3007550910115,0.973494811044914
2024-07-07 19:40:06.9560,0.021,-0.251,-1.027,0.43,0.16,0.36,49.27809574457314,-122.91140623549244,355.3007550910115,0.973494811044914
2024-07-07 19:40:06.9660,0.011,-0.256,-1.038,0.59,0.17,0.58,49.27809574457314,-122.91140623549244,355.3007550910115,0.973494811044914
2024-07-07 19:40:06.9760,0.013,-0.275,-1.049,0.69,0.27,0.66,49.27809574457314,-122.91140623549244,355.3007550910115,0.973494811044914
2024-07-07 19:40:06.9860,0.039,-0.314,-1.071,0.66,0.54,0.78,49.27809574457314,-122.91140623549244,355.3007550910115,0.973494811044914
2024-07-07 19:40:06.9970,0.093,-0.374,-1.114,0.4,1.02,1.0,49.27809574457314,-122.91140623549244,355.3007550910115,0.973494811044914
2024-07-07 19:40:07.0070,0.152,-0.443,-1.191,-0.12,1.73,1.44,49.27809574457314,-122.91140623549244,355.3007550910115,0.973494811044914
2024-07-07 19:40:07.0170,0.196,-0.485,-1.296,-0.66,2.52,2.21,49.27809574457314,-122.91140623549244,355.3007550910115,0.973494811044914
2024-07-07 19:40:07.0270,0.225,-0.458,-1.421,-1.05,3.04,3.24,49.27809574457314,-122.91140623549244,355.3007550910115,0.973494811044914
2024-07-07 19:40:07.0370,0.245,-0.347,-1.559,-1.34,2.85,4.45,49.27809574457314,-122.91140623549244,355.3007550910115,0.973494811044914
2024-07-07 19:40:07.0470,0.268,-0.193,-1.64,-1.6,1.9,5.75,49.27809574457314,-122.91140623549244,355.3007550910115,0.973494811044914
2024-07-07 19:40:07.0570,0.26,-0.066,-1.634,-1.93,0.64,6.38,49.27809574457314,-122.91140623549244,355.3007550910115,0.973494811044914
2024-07-07 19:40:07.0670,0.218,0.016,-1.594,-1.95,-0.26,6.22,49.27809574457314,-122.91140623549244,355.3007550910115,0.973494811044914
2024-07-07 19:40:07.0770,0.186,0.08,-1.533,-1.71,-0.74,5.78,49.27809574457314,-122.91140623549244,355.3007550910115,0.973494811044914
2024-07-07 19:40:07.0870,0.169,0.128,-1.435,-1.62,-1.07,5.13,49.27809574457314,-122.91140623549244,355.3007550910115,0.973494811044914
2024-07-07 19:40:07.0970,0.148,0.149,-1.311,-1.66,-1.25,4.12,49.27809574457314,-122.91140623549244,355.3007550910115,0.973494811044914
2024-07-07 19:40:07.1080,0.135,0.152,-1.178,-1.65,-1.22,2.89,49.27809574457314,-122.91140623549244,355.3007550910115,0.973494811044914
2024-07-07 19:40:07.1180,0.135,0.153,-1.056,-1.7,-1.09,1.6,49.27809574457314,-122.91140623549244,355.3007550910115,0.973494811044914
2024-07-07 19:40:07.1270,0.132,0.152,-0.964,-1.83,-0.99,0.44,49.27809574457314,-122.91140623549244,355.3007550910115,0.973494811044914
2024-07-07 19:40:07.1370,0.132,0.153,-0.901,-1.87,-0.93,-0.42,49.27809574457314,-122.91140623549244,355.3007550910115,0.973494811044914
2024-07-07 19:40:07.1480,0.134,0.151,-0.866,-1.92,-0.94,-1.0,49.27809574457314,-122.91140623549244,355.3007550910115,0.973494811044914
2024-07-07 19:40:07.1580,0.13,0.147,-0.85,-1.94,-0.95,-1.31,49.27809574457314,-122.91140623549244,355.3007550910115,0.973494811044914
2024-07-07 19:40:07.1680,0.12,0.143,-0.854,-1.87,-0.97,-1.45,49.27810191203326,-122.91141333351615,354.83130320813507,0.923637511898891
2024-07-07 19:40:07.1780,0.111,0.136,-0.86,-1.75,-1.0,-1.4,49.27810191203326,-122.91141333351615,354.83130320813507,0.923637511898891
2024-07-07 19:40:07.1880,0.101,0.125,-0.858,-1.62,-1.01,-1.36,49.27810191203326,-122.91141333351615,354.83130320813507,0.923637511898891
2024-07-07 19:40:07.1980,0.087,0.107,-0.855,-1.47,-0.99,-1.39,49.27810191203326,-122.91141333351615,354.83130320813507,0.923637511898891
2024-07-07 19:40:07.2080,0.07,0.088,-0.849,-1.3,-0.88,-1.42,49.27810191203326,-122.91141333351615,354.83130320813507,0.923637511898891
2024-07-07 19:40:07.2180,0.054,0.076,-0.834,-1.11,-0.77,-1.49,49.27810191203326,-122.91141333351615,354.83130320813507,0.923637511898891
2024-07-07 19:40:07.2280,0.033,0.059,-0.81,-0.93,-0.71,-1.66,49.27810191203326,-122.91141333351615,354.83130320813507,0.923637511898891
2024-07-07 19:40:07.2380,0.009,0.041,-0.789,-0.71,-0.59,-1.88,49.27810191203326,-122.91141333351615,354.83130320813507,0.923637511898891
2024-07-07 19:40:07.2480,-0.015,0.033,-0.767,-0.47,-0.45,-2.09,49.27810191203326,-122.91141333351615,354.83130320813507,0.923637511898891
2024-07-07 19:40:07.2580,-0.03,0.023,-0.758,-0.24,-0.4,-2.3,49.27810191203326,-122.91141333351615,354.83130320813507,0.923637511898891
