time,gFx,gFy,gFz,ax,ay,az,latitude,longitude,altitude,speed
2024-07-07 19:38:32.1720,0.068,-0.506,-1.052,-0.25,1.61,1.23,49.27850748113881,-122.91057094380314,356.7568862326443,0.9518322727637907
2024-07-07 19:38:32.1800,0.03,-0.489,-1.032,0.1,1.49,0.98,49.27850748113881,-122.91057094380314,356.7568862326443,0.9518322727637907
2024-07-07 19:38:32.1900,0.005,-0.462,-1.031,0.38,1.24,0.91,49.27850748113881,-122.91057094380314,356.7568862326443,0.9518322727637907
2024-07-07 19:38:32.2000,0.001,-0.434,-1.035,0.48,0.92,0.95,49.27850748113881,-122.91057094380314,356.7568862326443,0.9518322727637907
2024-07-07 19:38:32.2100,0.01,-0.409,-1.039,0.41,0.65,1.0,49.27850748113881,-122.91057094380314,356.7568862326443,0.9518322727637907
2024-07-07 19:38:32.2200,0.022,-0.39,-1.041,0.33,0.43,1.03,49.27850748113881,-122.91057094380314,356.7568862326443,0.9518322727637907
2024-07-07 19:38:32.2300,0.057,-0.392,-1.055,0.15,0.37,1.07,49.27850748113881,-122.91057094380314,356.7568862326443,0.9518322727637907
2024-07-07 19:38:32.2410,0.111,-0.411,-1.137,-0.24,0.58,1.55,49.27850748113881,-122.91057094380314,356.7568862326443,0.9518322727637907
2024-07-07 19:38:32.2510,0.159,-0.417,-1.301,-0.65,0.74,2.91,49.27850748113881,-122.91057094380314,356.7568862326443,0.9518322727637907
2024-07-07 19:38:32.2610,0.19,-0.415,-1.451,-0.92,0.82,4.53,49.27850748113881,-122.91057094380314,356.7568862326443,0.9518322727637907
2024-07-07 19:38:32.2710,0.208,-0.394,-1.536,-1.09,0.73,5.62,49.27850748113881,-122.91057094380314,356.7568862326443,0.9518322727637907
2024-07-07 19:38:32.2810,0.209,-0.349,-1.525,-1.13,0.39,5.91,49.27850748113881,-122.91057094380314,356.7568862326443,0.9518322727637907
2024-07-07 19:38:32.2910,0.186,-0.299,-1.417,-1.01,-0.15,5.17,49.27850748113881,-122.91057094380314,356.7568862326443,0.9518322727637907
2024-07-07 19:38:32.3010,0.137,-0.281,-1.272,-0.62,-0.52,3.79,49.27850748113881,-122.91057094380314,356.7568862326443,0.9518322727637907
2024-07-07 19:38:32.3110,0.073,-0.301,-1.165,-0.05,-0.48,2.57,49.27850748113881,-122.91057094380314,356.7568862326443,0.9518322727637907
2024-07-07 19:38:32.3210,0.012,-0.316,-1.106,0.58,-0.3,1.88,49.27850748113881,-122.91057094380314,356.7568862326443,0.9518322727637907
2024-07-07 19:38:32.3320,-0.017,-0.304,-1.045,1.0,-0.36,1.32,49.27850748113881,-122.91057094380314,356.7568862326443,0.9518322727637907
2024-07-07 19:38:32.3420,-0.024,-0.288,-1.013,1.13,-0.53,0.83,49.27850748113881,-122.91057094380314,356.7568862326443,0.9518322727637907
2024-07-07 19:38:32.3520,-0.028,-0.27,-1.031,1.19,-0.68,0.86,49.27850748113881,-122.91057094380314,356.7568862326443,0.9518322727637907
2024-07-07 19:38:32.3620,-0.022,-0.242,-1.05,1.18,-0.9,1.08,49.27850748113881,-122.91057094380314,356.7568862326443,0.9518322727637907
2024-07-07 19:38:32.3720,-0.005,-0.207,-1.054,1.04,-1.2,1.17,49.27850748113881,-122.91057094380314,356.7568862326443,0.9518322727637907
2024-07-07 19:38:32.3820,0.009,-0.186,-1.04,0.87,-1.45,1.09,49.27850748113881,-122.91057094380314,356.7568862326443,0.9518322727637907
2024-07-07 19:38:32.3920,0.014,-0.182,-1.009,0.78,-1.51,0.83,49.27850748113881,-122.91057094380314,356.7568862326443,0.9518322727637907
2024-07-07 19:38:32.4020,0.018,-0.184,-0.965,0.71,-1.47,0.43,49.27850748113881,-122.91057094380314,356.7568862326443,0.9518322727637907
2024-07-07 19:38:32.4120,0.02,-0.185,-0.919,0.66,-1.43,-0.04,49.27850748113881,-122.91057094380314,356.7568862326443,0.9518322727637907
2024-07-07 19:38:32.4220,0.02,-0.184,-0.871,0.62,-1.41,-0.51,49.27850748113881,-122.91057094380314,356.7568862326443,0.9518322727637907
2024-07-07 19:38:32.4320,0.017,-0.183,-0.824,0.61,-1.41,-0.99,49.27850748113881,-122.91057094380314,356.7568862326443,0.9518322727637907
2024-07-07 19:38:32.4420,0.012,-0.182,-0.779,0.62,-1.4,-1.45,49.27850748113881,-122.91057094380314,356.7568862326443,0.9518322727637907
2024-07-07 19:38:32.4520,0.009,-0.182,-0.735,0.63,-1.4,-1.9,49.27850748113881,-122.91057094380314,356.7568862326443,0.9518322727637907
2024-07-07 19:38:32.4620,0.007,-0.19,-0.697,0.63,-1.35,-2.29,49.27850748113881,-122.91057094380314,356.7568862326443,0.9518322727637907
2024-07-07 19:38:32.4730,0.004,-0.207,-0.666,0.64,-1.22,-2.63,49.27850748113881,-122.91057094380314,356.7568862326443,0.9518322727637907
2024-07-07 19:38:32.4820,0.005,-0.232,-0.643,0.65,-0.99,-2.88,49.27850748113881,-122.91057094380314,356.7568862326443,0.9518322727637907
2024-07-07 19:38:32.4930,0.006,-0.252,-0.625,0.63,-0.78,-3.07,49.27850748113881,-122.91057094380314,356.7568862326443,0.9518322727637907
2024-07-07 19:38:32.5030,0.008,-0.268,-0.611,0.62,-0.62,-3.21,49.27850748113881,-122.91057094380314,356.7568862326443,0.9518322727637907
2024-07-07 19:38:32.5130,0.014,-0.282,-0.601,0.57,-0.5,-3.32,49.27850748113881,-122.91057094380314,356.7568862326443,0.9518322727637907
2024-07-07 19:38:32.5230,0.015,-0.295,-0.597,0.55,-0.38,-3.38,49.27850748113881,-122.91057094380314,356.7568862326443,0.9518322727637907
2024-07-07 19:38:32.5330,0.011,-0.305,-0.603,0.61,-0.28,-3.35,49.27850748113881,-122.91057094380314,356.7568862326443,0.9518322727637907
2024-07-07 19:38:32.5430,0.011,-0.309,-0.619,0.65,-0.23,-3.22,49.27850748113881,-122.91057094380314,356.7568862326443,0.9518322727637907
2024-07-07 19:38:32.5530,0.014,-0.305,-0.64,0.65,-0.26,-3.02,49.27850748113881,-122.91057094380314,356.7568862326443,0.9518322727637907
2024-07-07 19:38:32.5630,0.019,-0.3,-0.661,0.64,-0.32,-2.81,49.27850748113881,-122.91057094380314,356.7568862326443,0.9518322727637907
2024-07-07 19:38:32.5730,0.027,-0.301,-0.683,0.6,-0.35,-2.59,49.27850748113881,-122.91057094380314,356.7568862326443,0.9518322727637907
2024-07-07 19:38:32.5830,0.032,-0.307,-0.703,0.57,-0.31,-2.38,49.27850748113881,-122.91057094380314,356.7568862326443,0.9518322727637907
2024-07-07 19:38:32.5930,0.038,-0.31,-0.722,0.55,-0.26,-2.18,49.27850748113881,-122.91057094380314,356.7568862326443,0.9518322727637907
2024-07-07 19:38:32.6040,0.048,-0.313,-0.736,0.47,-0.24,-2.03,49.27850748113881,-122.91057094380314,356.7568862326443,0.9518322727637907
2024-07-07 19:38:32.6130,0.053,-0.316,-0.753,0.42,-0.21,-1.88,49.27850748113881,-122.91057094380314,356.7568862326443,0.9518322727637907
2024-07-07 19:38:32.6230,0.061,-0.325,-0.767,0.37,-0.15,-1.71,49.27850748113881,-122.91057094380314,356.7568862326443,0.9518322727637907
2024-07-07 19:38:32.6340,0.063,-0.34,-0.772,0.33,-0.02,-1.64,49.27850748113881,-122.91057094380314,356.7568862326443,0.9518322727637907
2024-07-07 19:38:32.6440,0.063,-0.359,-0.776,0.34,0.17,-1.61,49.27850748113881,-122.91057094380314,356.7568862326443,0.9518322727637907
2024-07-07 19:38:32.6540,0.062,-0.369,-0.795,0.37,0.3,-1.48,49.27850748113881,-122.91057094380314,356.7568862326443,0.9518322727637907
2024-07-07 19:38:32.6640,0.062,-0.373,-0.821,0.37,0.36,-1.24,49.27850748113881,-122.91057094380314,356.7568862326443,0.9518322727637907
2024-07-07 19:38:32.6740,0.058,-0.371,-0.846,0.41,0.35,-0.97,49.27850748113881,-122.91057094380314,356.7568862326443,0.9518322727637907
2024-07-07 19:38:32.6840,0.046,-0.375,-0.87,0.52,0.37,-0.74,49.27850748113881,-122.91057094380314,356.7568862326443,0.9518322727637907
2024-07-07 19:38:32.6940,0.034,-0.383,-0.898,0.67,0.42,-0.48,49.27850748113881,-122.91057094380314,356.7568862326443,0.9518322727637907
2024-07-07 19:38:32.7040,0.031,-0.396,-0.932,0.78,0.52,-0.18,49.27850748113881,-122.91057094380314,356.7568862326443,0.9518322727637907
2024-07-07 19:38:32.7140,0.036,-0.415,-0.975,0.79,0.69,0.22,49.27850748113881,-122.91057094380314,356.7568862326443,0.9518322727637907
2024-07-07 19:38:32.7240,0.044,-0.431,-1.019,0.74,0.87,0.67,49.27850748113881,-122.91057094380314,356.7568862326443,0.9518322727637907
2024-07-07 19:38:32.7340,0.048,-0.441,-1.056,0.71,1.0,1.05,49.27850748113881,-122.91057094380314,356.7568862326443,0.9518322727637907
2024-07-07 19:38:32.7440,0.057,-0.441,-1.099,0.7,1.06,1.45,49.27850748113881,-122.91057094380314,356.7568862326443,0.9518322727637907
2024-07-07 19:38:32.7550,0.084,-0.43,-1.136,0.53,0.98,1.86,49.27850748113881,-122.91057094380314,356.7568862326443,0.9518322727637907
2024-07-07 19:38:32.7650,0.116,-0.423,-1.152,0.24,0.89,2.1,49.27850748113881,-122.91057094380314,356.7568862326443,0.9518322727637907
2024-07-07 19:38:32.7750,0.148,-0.43,-1.154,-0.04,0.92,2.15,49.27850748113881,-122.91057094380314,356.7568862326443,0.9518322727637907
2024-07-07 19:38:32.7850,0.187,-0.446,-1.157,-0.37,1.08,2.16,49.27850748113881,-122.91057094380314,356.7568862326443,0.9518322727637907
2024-07-07 19:38:32.7950,0.231,-0.476,-1.164,-0.77,1.37,2.19,49.27850748113881,-122.91057094380314,356.7568862326443,0.9518322727637907
2024-07-07 19:38:32.8050,0.268,-0.493,-1.184,-1.14,1.69,2.31,49.27850748113881,-122.91057094380314,356.7568862326443,0.9518322727637907
2024-07-07 19:38:32.8150,0.292,-0.472,-1.237,-1.39,1.72,2.67,49.27850748113881,-122.91057094380314,356.7568862326443,0.9518322727637907
2024-07-07 19:38:32.8250,0.306,-0.412,-1.311,-1.53,1.37,3.31,49.27850748113881,-122.91057094380314,356.7568862326443,0.9518322727637907
2024-07-07 19:38:32.8350,0.3,-0.331,-1.391,-1.54,0.75,4.07,49.27850748113881,-122.91057094380314,356.7568862326443,0.9518322727637907
2024-07-07 19:38:32.8450,0.282,-0.248,-1.454,-1.37,0.04,4.76,49.27850748113881,-122.91057094380314,356.7568862326443,0.9518322727637907
2024-07-07 19:38:32.8560,0.28,-0.168,-1.465,-1.29,-0.67,5.06,49.27850748113881,-122.91057094380314,356.7568862326443,0.9518322727637907
2024-07-07 19:38:32.8650,0.293,-0.105,-1.408,-1.42,-1.34,4.73,49.27850748113881,-122.91057094380314,356.7568862326443,0.9518322727637907
2024-07-07 19:38:32.8750,0.294,-0.09,-1.301,-1.55,-1.66,3.81,49.27850748113881,-122.91057094380314,356.7568862326443,0.9518322727637907
2024-07-07 19:38:32.8850,0.278,-0.133,-1.182,-1.48,-1.43,2.64,49.27850748113881,-122.91057094380314,356.7568862326443,0.9518322727637907
2024-07-07 19:38:32.8950,0.262,-0.194,-1.07,-1.34,-0.87,1.5,49.27850748113881,-122.91057094380314,356.7568862326443,0.9518322727637907
2024-07-07 19:38:32.9060,0.256,-0.247,-0.976,-1.25,-0.34,0.52,49.27850748113881,-122.91057094380314,356.7568862326443,0.9518322727637907
2024-07-07 19:38:32.9160,0.254,-0.287,-0.903,-1.24,0.06,-0.28,49.27850748113881,-122.91057094380314,356.7568862326443,0.9518322727637907
2024-07-07 19:38:32.9260,0.258,-0.309,-0.859,-1.24,0.31,-0.81,49.27850748113881,-122.91057094380314,356.7568862326443,0.9518322727637907
2024-07-07 19:38:32.9360,0.268,-0.315,-0.84,-1.3,0.39,-1.06,49.27850748113881,-122.91057094380314,356.7568862326443,0.9518322727637907
2024-07-07 19:38:32.9460,0.28,-0.315,-0.836,-1.38,0.37,-1.13,49.27850748113881,-122.91057094380314,356.7568862326443,0.9518322727637907
2024-07-07 19:38:32.9560,0.285,-0.316,-0.844,-1.43,0.35,-1.1,49.27850748113881,-122.91057094380314,356.7568862326443,0.9518322727637907
2024-07-07 19:38:32.9660,0.282,-0.31,-0.87,-1.4,0.32,-0.9,49.27850748113881,-122.91057094380314,356.7568862326443,0.9518322727637907
2024-07-07 19:38:32.9760,0.279,-0.291,-0.898,-1.36,0.18,-0.6,49.27850748113881,-122.91057094380314,356.7568862326443,0.9518322727637907
2024-07-07 19:38:32.9860,0.269,-0.267,-0.909,-1.3,-0.05,-0.42,49.27850748113881,-122.91057094380314,356.7568862326443,0.9518322727637907
2024-07-07 19:38:32.9960,0.246,-0.252,-0.9,-1.13,-0.23,-0.44,49.27850748113881,-122.91057094380314,356.7568862326443,0.9518322727637907
2024-07-07 19:38:33.0070,0.216,-0.237,-0.876,-0.89,-0.34,-0.64,49.27850748113881,-122.91057094380314,356.7568862326443,0.9518322727637907
2024-07-07 19:38:33.0170,0.186,-0.225,-0.844,-0.63,-0.45,-0.94,49.27850748113881,-122.91057094380314,356.7568862326443,0.9518322727637907
2024-07-07 19:38:33.0260,0.158,-0.214,-0.804,-0.41,-0.55,-1.31,49.27850748113881,-122.91057094380314,356.7568862326443,0.9518322727637907
2024-07-07 19:38:33.0370,0.132,-0.215,-0.76,-0.21,-0.57,-1.76,49.27850748113881,-122.91057094380314,356.7568862326443,0.9518322727637907
2024-07-07 19:38:33.0480,0.103,-0.223,-0.716,0.0,-0.49,-2.2,49.27850748113881,-122.91057094380314,356.7568862326443,0.9518322727637907
2024-07-07 19:38:33.0570,0.075,-0.231,-0.673,0.23,-0.4,-2.65,49.27850748113881,-122.91057094380314,356.7568862326443,0.9518322727637907
2024-07-07 19:38:33.0670,0.053,-0.237,-0.645,0.4,-0.31,-2.99,49.27850748113881,-122.91057094380314,356.7568862326443,0.9518322727637907
2024-07-07 19:38:33.0770,0.032,-0.242,-0.628,0.56,-0.25,-3.21,49.27850748113881,-122.91057094380314,356.7568862326443,0.9518322727637907
2024-07-07 19:38:33.0870,0.013,-0.248,-0.624,0.73,-0.18,-3.3,49.27850748113881,-122.91057094380314,356.7568862326443,0.9518322727637907
2024-07-07 19:38:33.0970,0.003,-0.257,-0.635,0.83,-0.1,-3.27,49.27850748113881,-122.91057094380314,356.7568862326443,0.9518322727637907
2024-07-07 19:38:33.1070,0.001,-0.271,-0.664,0.86,0.04,-3.04,49.27850748113881,-122.91057094380314,356.7568862326443,0.9518322727637907
2024-07-07 19:38:33.1180,0.009,-0.284,-0.693,0.79,0.19,-2.74,49.27850748113881,-122.91057094380314,356.7568862326443,0.9518322727637907
2024-07-07 19:38:33.1270,0.011,-0.294,-0.717,0.7,0.31,-2.49,49.27850748113881,-122.91057094380314,356.7568862326443,0.9518322727637907
2024-07-07 19:38:33.1370,0.007,-0.304,-0.737,0.71,0.42,-2.3,49.27850748113881,-122.91057094380314,356.7568862326443,0.9518322727637907
2024-07-07 19:38:33.1470,0.006,-0.299,-0.761,0.73,0.45,-2.09,49.27850748113881,-122.91057094380314,356.7568862326443,0.9518322727637907
2024-07-07 19:38:33.1570,0.013,-0.291,-0.78,0.65,0.37,-1.86,49.27849360793708,-122.91057027173919,356.7195518054068,0.9888723881390397
2024-07-07 19:38:33.1670,0.019,-0.288,-0.789,0.56,0.32,-1.75,49.27849360793708,-122.91057027173919,356.7195518054068,0.9888723881390397
2024-07-07 19:38:33.1770,0.019,-0.294,-0.795,0.52,0.34,-1.68,49.27849360793708,-122.91057027173919,356.7195518054068,0.9888723881390397
2024-07-07 19:38:33.1880,0.027,-0.308,-0.796,0.47,0.46,-1.66,49.27849360793708,-122.91057027173919,356.7195518054068,0.9888723881390397
2024-07-07 19:38:33.1970,0.057,-0.324,-0.789,0.17,0.61,-1.73,49.27849360793708,-122.91057027173919,356.7195518054068,0.9888723881390397
2024-07-07 19:38:33.2080,0.001,-0.346,-0.855,0.43,0.79,-1.34,49.27849360793708,-122.91057027173919,356.7195518054068,0.9888723881390397
2024-07-07 19:38:33.2180,0.018,-0.358,-0.85,0.6,0.96,-1.0,49.27849360793708,-122.91057027173919,356.7195518054068,0.9888723881390397
2024-07-07 19:38:33.2280,0.031,-0.348,-0.837,0.3,0.88,-1.25,49.27849360793708,-122.91057027173919,356.7195518054068,0.9888723881390397
2024-07-07 19:38:33.2380,0.021,-0.347,-0.847,0.35,0.77,-1.16,49.27849360793708,-122.91057027173919,356.7195518054068,0.9888723881390397
2024-07-07 19:38:33.2480,0.009,-0.359,-0.856,0.44,0.8,-1.07,49.27849360793708,-122.91057027173919,356.7195518054068,0.9888723881390397
2024-07-07 19:38:33.2580,0.003,-0.366,-0.867,0.53,0.86,-0.94,49.27849360793708,-122.91057027173919,356.7195518054068,0.9888723881390397
2024-07-07 19:38:33.2680,0.01,-0.365,-0.88,0.48,0.84,-0.84,49.27849360793708,-122.91057027173919,356.7195518054068,0.9888723881390397
2024-07-07 19:38:33.2790,0.013,-0.361,-0.92,0.43,0.77,-0.55,49.27849360793708,-122.91057027173919,356.7195518054068,0.9888723881390397
2024-07-07 19:38:33.2880,0.017,-0.36,-0.975,0.41,0.71,-0.02,49.27849360793708,-122.91057027173919,356.7195518054068,0.9888723881390397
2024-07-07 19:38:33.2980,0.023,-0.355,-1.021,0.37,0.66,0.48,49.27849360793708,-122.91057027173919,356.7195518054068,0.9888723881390397
2024-07-07 19:38:33.3080,0.027,-0.345,-1.067,0.32,0.54,0.93,49.27849360793708,-122.91057027173919,356.7195518054068,0.9888723881390397
2024-07-07 19:38:33.3180,0.033,-0.343,-1.103,0.31,0.44,1.37,49.27849360793708,-122.91057027173919,356.7195518054068,0.9888723881390397
2024-07-07 19:38:33.3290,0.055,-0.357,-1.108,0.15,0.48,1.54,49.27849360793708,-122.91057027173919,356.7195518054068,0.9888723881390397
2024-07-07 19:38:33.3390,0.084,-0.385,-1.1,-0.11,0.68,1.5,49.27849360793708,-122.91057027173919,356.7195518054068,0.9888723881390397
2024-07-07 19:38:33.3490,0.108,-0.423,-1.068,-0.38,1.01,1.32,49.27849360793708,-122.91057027173919,356.7195518054068,0.9888723881390397
2024-07-07 19:38:33.3590,0.111,-0.462,-1.005,-0.5,1.4,0.76,49.27849360793708,-122.91057027173919,356.7195518054068,0.9888723881390397
2024-07-07 19:38:33.3690,0.084,-0.489,-0.991,-0.28,1.78,0.33,49.27849360793708,-122.91057027173919,356.7195518054068,0.9888723881390397
2024-07-07 19:38:33.3790,0.065,-0.471,-1.065,0.07,1.88,0.74,49.27849360793708,-122.91057027173919,356.7195518054068,0.9888723881390397
2024-07-07 19:38:33.3890,0.09,-0.404,-1.185,0.11,1.49,1.77,49.27849360793708,-122.91057027173919,356.7195518054068,0.9888723881390397
2024-07-07 19:38:33.3990,0.142,-0.318,-1.344,-0.23,0.81,3.15,49.27849360793708,-122.91057027173919,356.7195518054068,0.9888723881390397
2024-07-07 19:38:33.4130,0.208,-0.231,-1.5,-0.76,0.08,4.79,49.27849360793708,-122.91057027173919,356.7195518054068,0.9888723881390397
2024-07-07 19:38:33.4200,0.252,-0.164,-1.564,-1.27,-0.58,5.78,49.27849360793708,-122.91057027173919,356.7195518054068,0.9888723881390397
2024-07-07 19:38:33.4290,0.273,-0.14,-1.516,-1.54,-0.91,5.69,49.27849360793708,-122.91057027173919,356.7195518054068,0.9888723881390397
2024-07-07 19:38:33.4390,0.271,-0.152,-1.374,-1.68,-0.81,4.62,49.27849360793708,-122.91057027173919,356.7195518054068,0.9888723881390397
2024-07-07 19:38:33.4490,0.24,-0.172,-1.149,-1.55,-0.68,2.47,49.27849360793708,-122.91057027173919,356.7195518054068,0.9888723881390397
2024-07-07 19:38:33.4600,0.147,-0.275,-1.049,-0.86,0.11,1.16,49.27849360793708,-122.91057027173919,356.7195518054068,0.9888723881390397
2024-07-07 19:38:33.4690,0.066,-0.359,-0.934,0.03,1.08,-0.03,49.27849360793708,-122.91057027173919,356.7195518054068,0.9888723881390397
2024-07-07 19:38:33.4800,0.021,-0.426,-0.91,0.64,1.82,-0.6,49.27849360793708,-122.91057027173919,356.7195518054068,0.9888723881390397
2024-07-07 19:38:33.4900,0.023,-0.439,-0.937,0.85,2.24,-0.48,49.27849360793708,-122.91057027173919,356.7195518054068,0.9888723881390397
2024-07-07 19:38:33.5000,0.031,-0.388,-0.988,0.85,1.95,-0.01,49.27849360793708,-122.91057027173919,356.7195518054068,0.9888723881390397
2024-07-07 19:38:33.5100,0.064,-0.315,-1.034,0.71,1.27,0.46,49.27849360793708,-122.91057027173919,356.7195518054068,0.9888723881390397
2024-07-07 19:38:33.5200,0.1,-0.246,-1.055,0.41,0.59,0.82,49.27849360793708,-122.91057027173919,356.7195518054068,0.9888723881390397
2024-07-07 19:38:33.5300,0.128,-0.192,-1.044,0.16,-0.01,0.79,49.27849360793708,-122.91057027173919,356.7195518054068,0.9888723881390397
2024-07-07 19:38:33.5410,0.133,-0.169,-1.021,0.06,-0.34,0.61,49.27849360793708,-122.91057027173919,356.7195518054068,0.9888723881390397
2024-07-07 19:38:33.5500,0.122,-0.172,-0.991,0.15,-0.37,0.33,49.27849360793708,-122.91057027173919,356.7195518054068,0.9888723881390397
2024-07-07 19:38:33.5610,0.109,-0.187,-0.948,0.27,-0.23,-0.02,49.27849360793708,-122.91057027173919,356.7195518054068,0.9888723881390397
2024-07-07 19:38:33.5700,0.096,-0.191,-0.889,0.4,-0.12,-0.56,49.27849360793708,-122.91057027173919,356.7195518054068,0.9888723881390397
2024-07-07 19:38:33.5800,0.092,-0.191,-0.827,0.44,-0.11,-1.18,49.27849360793708,-122.91057027173919,356.7195518054068,0.9888723881390397
2024-07-07 19:38:33.5910,0.091,-0.19,-0.771,0.41,-0.12,-1.77,49.27849360793708,-122.91057027173919,356.7195518054068,0.9888723881390397
2024-07-07 19:38:33.6000,0.099,-0.189,-0.72,0.32,-0.11,-2.28,49.27849360793708,-122.91057027173919,356.7195518054068,0.9888723881390397
2024-07-07 19:38:33.6110,0.099,-0.187,-0.675,0.21,-0.14,-2.77,49.27849360793708,-122.91057027173919,356.7195518054068,0.9888723881390397
2024-07-07 19:38:33.6210,0.095,-0.198,-0.645,0.17,-0.1,-3.14,49.27849360793708,-122.91057027173919,356.7195518054068,0.9888723881390397
2024-07-07 19:38:33.6310,0.062,-0.217,-0.646,0.33,0.07,-3.24,49.27849360793708,-122.91057027173919,356.7195518054068,0.9888723881390397
2024-07-07 19:38:33.6410,0.039,-0.216,-0.647,0.58,0.13,-3.19,49.27849360793708,-122.91057027173919,356.7195518054068,0.9888723881390397
2024-07-07 19:38:33.6510,0.034,-0.198,-0.646,0.61,-0.06,-3.22,49.27849360793708,-122.91057027173919,356.7195518054068,0.9888723881390397
2024-07-07 19:38:33.6610,0.02,-0.179,-0.659,0.64,-0.3,-3.14,49.27849360793708,-122.91057027173919,356.7195518054068,0.9888723881390397
2024-07-07 19:38:33.6710,0.009,-0.164,-0.669,0.72,-0.52,-2.99,49.27849360793708,-122.91057027173919,356.7195518054068,0.9888723881390397
2024-07-07 19:38:33.6810,-0.001,-0.159,-0.661,0.74,-0.68,-3.0,49.27849360793708,-122.91057027173919,356.7195518054068,0.9888723881390397
2024-07-07 19:38:33.6910,-0.007,-0.17,-0.635,0.78,-0.7,-3.17,49.27849360793708,-122.91057027173919,356.7195518054068,0.9888723881390397
2024-07-07 19:38:33.7010,0.003,-0.202,-0.62,0.68,-0.52,-3.41,49.27849360793708,-122.91057027173919,356.7195518054068,0.9888723881390397
2024-07-07 19:38:33.7120,0.003,-0.232,-0.63,0.59,-0.25,-3.35,49.27849360793708,-122.91057027173919,356.7195518054068,0.9888723881390397
2024-07-07 19:38:33.7220,-0.005,-0.251,-0.633,0.62,-0.08,-3.26,49.27849360793708,-122.91057027173919,356.7195518054068,0.9888723881390397
2024-07-07 19:38:33.7320,-0.012,-0.268,-0.634,0.7,0.03,-3.25,49.27849360793708,-122.91057027173919,356.7195518054068,0.9888723881390397
2024-07-07 19:38:33.7420,-0.015,-0.285,-0.645,0.73,0.15,-3.18,49.27849360793708,-122.91057027173919,356.7195518054068,0.9888723881390397
2024-07-07 19:38:33.7520,-0.008,-0.298,-0.662,0.73,0.24,-3.01,49.27849360793708,-122.91057027173919,356.7195518054068,0.9888723881390397
2024-07-07 19:38:33.7620,0.009,-0.295,-0.69,0.62,0.21,-2.76,49.27849360793708,-122.91057027173919,356.7195518054068,0.9888723881390397
2024-07-07 19:38:33.7720,0.016,-0.283,-0.727,0.54,0.02,-2.38,49.27849360793708,-122.91057027173919,356.7195518054068,0.9888723881390397
2024-07-07 19:38:33.7820,0.019,-0.282,-0.744,0.55,-0.13,-2.09,49.27849360793708,-122.91057027173919,356.7195518054068,0.9888723881390397
2024-07-07 19:38:33.7920,0.017,-0.298,-0.751,0.6,-0.12,-1.99,49.27849360793708,-122.91057027173919,356.7195518054068,0.9888723881390397
2024-07-07 19:38:33.8020,0.006,-0.325,-0.77,0.75,0.06,-1.83,49.27849360793708,-122.91057027173919,356.7195518054068,0.9888723881390397
2024-07-07 19:38:33.8120,-0.007,-0.338,-0.8,0.97,0.19,-1.53,49.27849360793708,-122.91057027173919,356.7195518054068,0.9888723881390397
2024-07-07 19:38:33.8220,-0.017,-0.331,-0.833,1.16,0.14,-1.2,49.27849360793708,-122.91057027173919,356.7195518054068,0.9888723881390397
2024-07-07 19:38:33.8320,-0.013,-0.304,-0.879,1.3,-0.11,-0.76,49.27849360793708,-122.91057027173919,356.7195518054068,0.9888723881390397
2024-07-07 19:38:33.8430,0.034,-0.279,-0.916,1.09,-0.41,-0.35,49.27849360793708,-122.91057027173919,356.7195518054068,0.9888723881390397
2024-07-07 19:38:33.8530,0.09,-0.28,-0.972,0.6,-0.52,0.12,49.27849360793708,-122.91057027173919,356.7195518054068,0.9888723881390397
2024-07-07 19:38:33.8630,0.139,-0.337,-1.033,0.2,-0.13,0.74,49.27849360793708,-122.91057027173919,356.7195518054068,0.9888723881390397
2024-07-07 19:38:33.8730,0.202,-0.433,-1.082,-0.27,0.79,1.25,49.27849360793708,-122.91057027173919,356.7195518054068,0.9888723881390397
2024-07-07 19:38:33.8830,0.274,-0.503,-1.128,-0.84,1.77,1.66,49.27849360793708,-122.91057027173919,356.7195518054068,0.9888723881390397
2024-07-07 19:38:33.8930,0.339,-0.536,-1.204,-1.45,2.28,2.24,49.27849360793708,-122.91057027173919,356.7195518054068,0.9888723881390397
2024-07-07 19:38:33.9030,0.374,-0.577,-1.313,-1.76,2.83,3.18,49.27849360793708,-122.91057027173919,356.7195518054068,0.9888723881390397
2024-07-07 19:38:33.9130,0.413,-0.576,-1.443,-1.99,3.18,4.4,49.27849360793708,-122.91057027173919,356.7195518054068,0.9888723881390397
2024-07-07 19:38:33.9230,0.45,-0.495,-1.54,-2.29,2.81,5.52,49.27849360793708,-122.91057027173919,356.7195518054068,0.9888723881390397
2024-07-07 19:38:33.9330,0.481,-0.354,-1.609,-2.49,1.72,6.21,49.27849360793708,-122.91057027173919,356.7195518054068,0.9888723881390397
2024-07-07 19:38:33.9430,0.533,-0.198,-1.681,-2.86,0.27,6.93,49.27849360793708,-122.91057027173919,356.7195518054068,0.9888723881390397
2024-07-07 19:38:33.9530,0.574,-0.087,-1.709,-3.33,-0.98,7.43,49.27849360793708,-122.91057027173919,356.7195518054068,0.9888723881390397
2024-07-07 19:38:33.9640,0.578,-0.044,-1.655,-3.49,-1.61,7.2,49.27849360793708,-122.91057027173919,356.7195518054068,0.9888723881390397
2024-07-07 19:38:33.9740,0.566,-0.063,-1.528,-3.44,-1.59,6.18,49.27849360793708,-122.91057027173919,356.7195518054068,0.9888723881390397
2024-07-07 19:38:33.9840,0.535,-0.108,-1.377,-3.28,-1.16,4.69,49.27849360793708,-122.91057027173919,356.7195518054068,0.9888723881390397
2024-07-07 19:38:33.9940,0.484,-0.136,-1.249,-2.89,-0.76,3.31,49.27849360793708,-122.91057027173919,356.7195518054068,0.9888723881390397
2024-07-07 19:38:34.0040,0.446,-0.146,-1.139,-2.52,-0.56,2.15,49.27849360793708,-122.91057027173919,356.7195518054068,0.9888723881390397
2024-07-07 19:38:34.0140,0.416,-0.149,-1.059,-2.28,-0.45,1.21,49.27849360793708,-122.91057027173919,356.7195518054068,0.9888723881390397
2024-07-07 19:38:34.0240,0.375,-0.151,-1.001,-1.98,-0.37,0.57,49.27849360793708,-122.91057027173919,356.7195518054068,0.9888723881390397
2024-07-07 19:38:34.0340,0.329,-0.161,-0.948,-1.59,-0.24,0.0,49.27849360793708,-122.91057027173919,356.7195518054068,0.9888723881390397
2024-07-07 19:38:34.0440,0.283,-0.176,-0.908,-1.17,-0.04,-0.46,49.27849360793708,-122.91057027173919,356.7195518054068,0.9888723881390397
2024-07-07 19:38:34.0540,0.246,-0.194,-0.87,-0.79,0.17,-0.83,49.27849360793708,-122.91057027173919,356.7195518054068,0.9888723881390397
2024-07-07 19:38:34.0640,0.209,-0.211,-0.833,-0.46,0.37,-1.22,49.27849360793708,-122.91057027173919,356.7195518054068,0.9888723881390397
2024-07-07 19:38:34.0740,0.174,-0.221,-0.802,-0.11,0.53,-1.55,49.27849360793708,-122.91057027173919,356.7195518054068,0.9888723881390397
2024-07-07 19:38:34.0840,0.146,-0.225,-0.773,0.18,0.6,-1.84,49.27849360793708,-122.91057027173919,356.7195518054068,0.9888723881390397
2024-07-07 19:38:34.0940,0.118,-0.224,-0.759,0.45,0.64,-2.06,49.27849360793708,-122.91057027173919,356.7195518054068,0.9888723881390397
2024-07-07 19:38:34.1050,0.097,-0.21,-0.761,0.71,0.56,-2.08,49.27849360793708,-122.91057027173919,356.7195518054068,0.9888723881390397
2024-07-07 19:38:34.1140,0.091,-0.202,-0.764,0.8,0.44,-2.05,49.27849360793708,-122.91057027173919,356.7195518054068,0.9888723881390397
2024-07-07 19:38:34.1250,0.084,-0.211,-0.756,0.85,0.49,-2.07,49.27849360793708,-122.91057027173919,356.7195518054068,0.9888723881390397
2024-07-07 19:38:34.1360,0.065,-0.221,-0.731,0.97,0.6,-2.27,49.27849360793708,-122.91057027173919,356.7195518054068,0.9888723881390397
2024-07-07 19:38:34.1450,0.042,-0.223,-0.695,1.17,0.63,-2.57,49.27849360793708,-122.91057027173919,356.7195518054068,0.9888723881390397
2024-07-07 19:38:34.1550,0.023,-0.221,-0.642,1.33,0.59,-3.04,49.27849360793708,-122.91057027173919,356.7195518054068,0.9888723881390397
2024-07-07 19:38:34.1650,0.005,-0.223,-0.593,1.5,0.57,-3.57,49.27849360793708,-122.91057027173919,356.7195518054068,0.9888723881390397
2024-07-07 19:38:34.1760,0.0,-0.227,-0.552,1.58,0.58,-3.98,49.278481302383355,-122.91056956366052,356.5948149096221,0.9465274195863139
2024-07-07 19:38:34.1850,0.003,-0.238,-0.512,1.56,0.62,-4.39,49.278481302383355,-122.91056956366052,356.5948149096221,0.9465274195863139
2024-07-07 19:38:34.1950,0.011,-0.253,-0.503,1.52,0.71,-4.61,49.278481302383355,-122.91056956366052,356.5948149096221,0.9465274195863139
2024-07-07 19:38:34.2050,0.028,-0.276,-0.533,1.41,0.87,-4.44,49.278481302383355,-122.91056956366052,356.5948149096221,0.9465274195863139
2024-07-07 19:38:34.2150,0.048,-0.3,-0.586,1.28,1.07,-3.97,49.278481302383355,-122.91056956366052,356.5948149096221,0.9465274195863139
2024-07-07 19:38:34.2250,0.07,-0.315,-0.648,1.09,1.21,-3.35,49.278481302383355,-122.91056956366052,356.5948149096221,0.9465274195863139
2024-07-07 19:38:34.2350,0.088,-0.32,-0.7,0.95,1.24,-2.77,49.278481302383355,-122.91056956366052,356.5948149096221,0.9465274195863139
2024-07-07 19:38:34.2450,0.107,-0.318,-0.731,0.8,1.19,-2.38,49.278481302383355,-122.91056956366052,356.5948149096221,0.9465274195863139
2024-07-07 19:38:34.2560,0.117,-0.304,-0.758,0.68,1.04,-2.11,49.278481302383355,-122.91056956366052,356.5948149096221,0.9465274195863139
2024-07-07 19:38:34.2660,0.11,-0.293,-0.783,0.71,0.86,-1.82,49.278481302383355,-122.91056956366052,356.5948149096221,0.9465274195863139
2024-07-07 19:38:34.2760,0.099,-0.291,-0.792,0.82,0.74,-1.66,49.278481302383355,-122.91056956366052,356.5948149096221,0.9465274195863139
2024-07-07 19:38:34.2860,0.091,-0.302,-0.8,0.9,0.74,-1.59,49.278481302383355,-122.91056956366052,356.5948149096221,0.9465274195863139
2024-07-07 19:38:34.2960,0.093,-0.326,-0.81,0.89,0.9,-1.47,49.278481302383355,-122.91056956366052,356.5948149096221,0.9465274195863139
2024-07-07 19:38:34.3060,0.088,-0.352,-0.822,0.88,1.12,-1.39,49.278481302383355,-122.91056956366052,356.5948149096221,0.9465274195863139
2024-07-07 19:38:34.3160,0.083,-0.374,-0.857,0.92,1.33,-1.15,49.278481302383355,-122.91056956366052,356.5948149096221,0.9465274195863139
2024-07-07 19:38:34.3260,0.085,-0.389,-0.918,0.87,1.51,-0.63,49.278481302383355,-122.91056956366052,356.5948149096221,0.9465274195863139
2024-07-07 19:38:34.3360,0.084,-0.38,-0.998,0.82,1.54,0.07,49.278481302383355,-122.91056956366052,356.5948149096221,0.9465274195863139
2024-07-07 19:38:34.3460,0.078,-0.341,-1.084,0.79,1.27,0.91,49.278481302383355,-122.91056956366052,356.5948149096221,0.9465274195863139
2024-07-07 19:38:34.3560,0.057,-0.289,-1.159,0.88,0.8,1.65,49.278481302383355,-122.91056956366052,356.5948149096221,0.9465274195863139
2024-07-07 19:38:34.3670,0.05,-0.244,-1.245,0.95,0.31,2.44,49.278481302383355,-122.91056956366052,356.5948149096221,0.9465274195863139
2024-07-07 19:38:34.3770,0.062,-0.227,-1.315,0.77,0.02,3.21,49.278481302383355,-122.91056956366052,356.5948149096221,0.9465274195863139
2024-07-07 19:38:34.3870,0.075,-0.238,-1.352,0.49,0.02,3.68,49.278481302383355,-122.91056956366052,356.5948149096221,0.9465274195863139
2024-07-07 19:38:34.3970,0.08,-0.271,-1.35,0.26,0.22,3.83,49.278481302383355,-122.91056956366052,356.5948149096221,0.9465274195863139
2024-07-07 19:38:34.4070,0.069,-0.331,-1.292,0.13,0.69,3.43,49.278481302383355,-122.91056956366052,356.5948149096221,0.9465274195863139
2024-07-07 19:38:34.4170,0.009,-0.389,-1.266,0.42,1.35,2.85,49.278481302383355,-122.91056956366052,356.5948149096221,0.9465274195863139
2024-07-07 19:38:34.4270,-0.046,-0.348,-1.467,1.06,1.45,3.93,49.278481302383355,-122.91056956366052,356.5948149096221,0.9465274195863139
2024-07-07 19:38:34.4370,-0.012,-0.216,-1.667,0.95,0.43,6.15,49.278481302383355,-122.91056956366052,356.5948149096221,0.9465274195863139
2024-07-07 19:38:34.4470,0.04,-0.127,-1.864,0.35,-0.59,7.94,49.278481302383355,-122.91056956366052,356.5948149096221,0.9465274195863139
2024-07-07 19:38:34.4570,0.081,-0.076,-2.024,-0.22,-1.03,9.81,49.278481302383355,-122.91056956366052,356.5948149096221,0.9465274195863139
2024-07-07 19:38:34.4670,0.099,-0.009,-2.006,-0.69,-1.57,10.34,49.278481302383355,-122.91056956366052,356.5948149096221,0.9465274195863139
2024-07-07 19:38:34.4780,0.083,0.032,-1.843,-0.89,-2.11,9.14,49.278481302383355,-122.91056956366052,356.5948149096221,0.9465274195863139
2024-07-07 19:38:34.4880,0.022,-0.008,-1.617,-0.68,-2.03,7.11,49.278481302383355,-122.91056956366052,356.5948149096221,0.9465274195863139
2024-07-07 19:38:34.4980,-0.054,-0.091,-1.366,-0.14,-1.32,4.71,49.278481302383355,-122.91056956366052,356.5948149096221,0.9465274195863139
2024-07-07 19:38:34.5080,-0.111,-0.158,-1.133,0.35,-0.61,2.31,49.278481302383355,-122.91056956366052,356.5948149096221,0.9465274195863139
2024-07-07 19:38:34.5180,-0.145,-0.203,-0.981,0.67,-0.17,0.47,49.278481302383355,-122.91056956366052,356.5948149096221,0.9465274195863139
2024-07-07 19:38:34.5280,-0.152,-0.219,-0.947,0.82,0.06,-0.29,49.278481302383355,-122.91056956366052,356.5948149096221,0.9465274195863139
2024-07-07 19:38:34.5380,-0.131,-0.193,-0.996,0.68,-0.1,0.0,49.278481302383355,-122.91056956366052,356.5948149096221,0.9465274195863139
2024-07-07 19:38:34.5480,-0.108,-0.155,-1.041,0.46,-0.5,0.53,49.278481302383355,-122.91056956366052,356.5948149096221,0.9465274195863139
2024-07-07 19:38:34.5580,-0.076,-0.113,-1.055,0.2,-0.88,0.79,49.278481302383355,-122.91056956366052,356.5948149096221,0.9465274195863139
2024-07-07 19:38:34.5680,-0.049,-0.067,-1.048,-0.18,-1.36,0.77,49.278481302383355,-122.91056956366052,356.5948149096221,0.9465274195863139
2024-07-07 19:38:34.5780,-0.062,-0.066,-1.011,-0.23,-1.55,0.57,49.278481302383355,-122.91056956366052,356.5948149096221,0.9465274195863139
2024-07-07 19:38:34.5880,-0.083,-0.093,-0.915,-0.06,-1.3,-0.15,49.278481302383355,-122.91056956366052,356.5948149096221,0.9465274195863139
2024-07-07 19:38:34.5990,-0.072,-0.113,-0.669,-0.11,-1.06,-2.0,49.278481302383355,-122.91056956366052,356.5948149096221,0.9465274195863139
2024-07-07 19:38:34.6090,-0.129,-0.129,-0.65,0.11,-0.84,-3.5,49.278481302383355,-122.91056956366052,356.5948149096221,0.9465274195863139
2024-07-07 19:38:34.6180,-0.118,-0.092,-0.675,0.5,-1.01,-2.72,49.278481302383355,-122.91056956366052,356.5948149096221,0.9465274195863139
2024-07-07 19:38:34.6280,-0.093,-0.082,-0.611,-0.09,-1.38,-3.46,49.278481302383355,-122.91056956366052,356.5948149096221,0.9465274195863139
2024-07-07 19:38:34.6380,-0.138,-0.097,-0.607,0.33,-1.21,-3.49,49.278481302383355,-122.91056956366052,356.5948149096221,0.9465274195863139
2024-07-07 19:38:34.6490,-0.129,-0.065,-0.533,0.41,-1.44,-3.98,49.278481302383355,-122.91056956366052,356.5948149096221,0.9465274195863139
2024-07-07 19:38:34.6590,-0.119,-0.048,-0.479,0.28,-1.81,-4.68,49.278481302383355,-122.91056956366052,356.5948149096221,0.9465274195863139
2024-07-07 19:38:34.6690,-0.12,-0.069,-0.459,0.29,-1.76,-4.91,49.278481302383355,-122.91056956366052,356.5948149096221,0.9465274195863139
2024-07-07 19:38:34.6790,-0.115,-0.091,-0.424,0.3,-1.58,-5.19,49.278481302383355,-122.91056956366052,356.5948149096221,0.9465274195863139
2024-07-07 19:38:34.6890,-0.104,-0.12,-0.421,0.25,-1.38,-5.39,49.278481302383355,-122.91056956366052,356.5948149096221,0.9465274195863139
2024-07-07 19:38:34.6990,-0.084,-0.152,-0.445,0.12,-1.11,-5.18,49.278481302383355,-122.91056956366052,356.5948149096221,0.9465274195863139
2024-07-07 19:38:34.7090,-0.067,-0.181,-0.447,-0.03,-0.84,-5.04,49.278481302383355,-122.91056956366052,356.5948149096221,0.9465274195863139
2024-07-07 19:38:34.7190,-0.05,-0.201,-0.454,-0.11,-0.64,-5.11,49.278481302383355,-122.91056956366052,356.5948149096221,0.9465274195863139
2024-07-07 19:38:34.7290,-0.022,-0.236,-0.503,-0.33,-0.45,-4.64,49.278481302383355,-122.91056956366052,356.5948149096221,0.9465274195863139
2024-07-07 19:38:34.7390,-0.012,-0.284,-0.472,-0.43,-0.01,-4.63,49.278481302383355,-122.91056956366052,356.5948149096221,0.9465274195863139
2024-07-07 19:38:34.7490,0.011,-0.304,-0.508,-0.49,0.24,-4.73,49.278481302383355,-122.91056956366052,356.5948149096221,0.9465274195863139
2024-07-07 19:38:34.7600,0.029,-0.305,-0.576,-0.66,0.24,-3.94,49.278481302383355,-122.91056956366052,356.5948149096221,0.9465274195863139
2024-07-07 19:38:34.7700,0.042,-0.285,-0.604,-0.71,0.04,-3.57,49.278481302383355,-122.91056956366052,356.5948149096221,0.9465274195863139
2024-07-07 19:38:34.7800,0.044,-0.257,-0.639,-0.75,-0.3,-3.22,49.278481302383355,-122.91056956366052,356.5948149096221,0.9465274195863139
2024-07-07 19:38:34.7900,0.024,-0.239,-0.655,-0.59,-0.6,-2.96,49.278481302383355,-122.91056956366052,356.5948149096221,0.9465274195863139
2024-07-07 19:38:34.8000,-0.008,-0.233,-0.658,-0.29,-0.75,-2.89,49.278481302383355,-122.91056956366052,356.5948149096221,0.9465274195863139
2024-07-07 19:38:34.8100,-0.039,-0.234,-0.689,0.06,-0.78,-2.73,49.278481302383355,-122.91056956366052,356.5948149096221,0.9465274195863139
2024-07-07 19:38:34.8200,-0.054,-0.233,-0.755,0.29,-0.79,-2.15,49.278481302383355,-122.91056956366052,356.5948149096221,0.9465274195863139
2024-07-07 19:38:34.8300,-0.053,-0.238,-0.809,0.34,-0.76,-1.58,49.278481302383355,-122.91056956366052,356.5948149096221,0.9465274195863139
2024-07-07 19:38:34.8400,-0.044,-0.257,-0.861,0.26,-0.6,-1.07,49.278481302383355,-122.91056956366052,356.5948149096221,0.9465274195863139
2024-07-07 19:38:34.8500,-0.037,-0.272,-0.903,0.18,-0.38,-0.62,49.278481302383355,-122.91056956366052,356.5948149096221,0.9465274195863139
2024-07-07 19:38:34.8600,-0.035,-0.264,-0.939,0.15,-0.34,-0.26,49.278481302383355,-122.91056956366052,356.5948149096221,0.9465274195863139
2024-07-07 19:38:34.8700,-0.032,-0.232,-0.97,0.14,-0.56,0.05,49.278481302383355,-122.91056956366052,356.5948149096221,0.9465274195863139
2024-07-07 19:38:34.8810,-0.031,-0.192,-0.997,0.12,-0.93,0.34,49.278481302383355,-122.91056956366052,356.5948149096221,0.9465274195863139
2024-07-07 19:38:34.8900,-0.043,-0.17,-1.023,0.21,-1.24,0.57,49.278481302383355,-122.91056956366052,356.5948149096221,0.9465274195863139
2024-07-07 19:38:34.9000,-0.043,-0.186,-1.054,0.32,-1.21,0.87,49.278481302383355,-122.91056956366052,356.5948149096221,0.9465274195863139
2024-07-07 19:38:34.9110,-0.027,-0.234,-1.075,0.25,-0.81,1.09,49.278481302383355,-122.91056956366052,356.5948149096221,0.9465274195863139
2024-07-07 19:38:34.9210,-0.002,-0.301,-1.106,0.12,-0.17,1.32,49.278481302383355,-122.91056956366052,356.5948149096221,0.9465274195863139
2024-07-07 19:38:34.9310,0.042,-0.396,-1.158,-0.15,0.74,1.7,49.278481302383355,-122.91056956366052,356.5948149096221,0.9465274195863139
2024-07-07 19:38:34.9410,0.097,-0.488,-1.268,-0.53,1.86,2.51,49.278481302383355,-122.91056956366052,356.5948149096221,0.9465274195863139
2024-07-07 19:38:34.9510,0.158,-0.506,-1.42,-0.99,2.5,3.86,49.278481302383355,-122.91056956366052,356.5948149096221,0.9465274195863139
2024-07-07 19:38:34.9610,0.215,-0.445,-1.579,-1.47,2.31,5.4,49.278481302383355,-122.91056956366052,356.5948149096221,0.9465274195863139
2024-07-07 19:38:34.9710,0.248,-0.335,-1.707,-1.79,1.54,6.77,49.278481302383355,-122.91056956366052,356.5948149096221,0.9465274195863139
2024-07-07 19:38:34.9820,0.258,-0.205,-1.796,-1.92,0.45,7.76,49.278481302383355,-122.91056956366052,356.5948149096221,0.9465274195863139
2024-07-07 19:38:34.9910,0.243,-0.088,-1.825,-1.85,-0.63,8.28,49.278481302383355,-122.91056956366052,356.5948149096221,0.9465274195863139
2024-07-07 19:38:35.0020,0.217,-0.0,-1.76,-1.64,-1.51,7.98,49.278481302383355,-122.91056956366052,356.5948149096221,0.9465274195863139
2024-07-07 19:38:35.0120,0.203,0.038,-1.617,-1.52,-1.98,6.8,49.278481302383355,-122.91056956366052,356.5948149096221,0.9465274195863139
2024-07-07 19:38:35.0220,0.194,0.025,-1.446,-1.5,-1.95,5.15,49.278481302383355,-122.91056956366052,356.5948149096221,0.9465274195863139
2024-07-07 19:38:35.0320,0.186,-0.019,-1.275,-1.49,-1.54,3.44,49.278481302383355,-122.91056956366052,356.5948149096221,0.9465274195863139
2024-07-07 19:38:35.0420,0.182,-0.074,-1.124,-1.48,-0.99,1.85,49.278481302383355,-122.91056956366052,356.5948149096221,0.9465274195863139
2024-07-07 19:38:35.0520,0.184,-0.13,-1.017,-1.5,-0.4,0.63,49.278481302383355,-122.91056956366052,356.5948149096221,0.9465274195863139
2024-07-07 19:38:35.0620,0.19,-0.174,-0.951,-1.53,0.11,-0.18,49.278481302383355,-122.91056956366052,356.5948149096221,0.9465274195863139
2024-07-07 19:38:35.0720,0.201,-0.199,-0.924,-1.59,0.44,-0.58,49.278481302383355,-122.91056956366052,356.5948149096221,0.9465274195863139
2024-07-07 19:38:35.0820,0.213,-0.212,-0.927,-1.65,0.61,-0.63,49.278481302383355,-122.91056956366052,356.5948149096221,0.9465274195863139
2024-07-07 19:38:35.0920,0.218,-0.216,-0.934,-1.67,0.7,-0.56,49.278481302383355,-122.91056956366052,356.5948149096221,0.9465274195863139
2024-07-07 19:38:35.1020,0.207,-0.219,-0.941,-1.58,0.76,-0.49,49.278481302383355,-122.91056956366052,356.5948149096221,0.9465274195863139
2024-07-07 19:38:35.1120,0.188,-0.215,-0.941,-1.35,0.77,-0.46,49.278481302383355,-122.91056956366052,356.5948149096221,0.9465274195863139
2024-07-07 19:38:35.1220,0.166,-0.212,-0.93,-1.11,0.74,-0.53,49.278481302383355,-122.91056956366052,356.5948149096221,0.9465274195863139
2024-07-07 19:38:35.1320,0.137,-0.213,-0.903,-0.82,0.76,-0.72,49.278481302383355,-122.91056956366052,356.5948149096221,0.9465274195863139
2024-07-07 19:38:35.1440,0.107,-0.209,-0.865,-0.51,0.74,-1.06,49.278481302383355,-122.91056956366052,356.5948149096221,0.9465274195863139
2024-07-07 19:38:35.1530,0.074,-0.202,-0.808,-0.21,0.68,-1.56,49.278481302383355,-122.91056956366052,356.5948149096221,0.9465274195863139
2024-07-07 19:38:35.1630,0.038,-0.202,-0.751,0.14,0.64,-2.14,49.278481302383355,-122.91056956366052,356.5948149096221,0.9465274195863139
2024-07-07 19:38:35.1740,0.004,-0.201,-0.704,0.48,0.64,-2.64,49.27847166155623,-122.91057035323755,356.47766847815365,1.0045631985492138
2024-07-07 19:38:35.1820,-0.021,-0.198,-0.668,0.74,0.59,-3.03,49.27847166155623,-122.91057035323755,356.47766847815365,1.0045631985492138
2024-07-07 19:38:35.1930,-0.042,-0.203,-0.639,0.94,0.58,-3.33,49.27847166155623,-122.91057035323755,356.47766847815365,1.0045631985492138
2024-07-07 19:38:35.2030,-0.065,-0.211,-0.612,1.13,0.65,-3.59,49.27847166155623,-122.91057035323755,356.47766847815365,1.0045631985492138
2024-07-07 19:38:35.2130,-0.086,-0.209,-0.585,1.32,0.63,-3.86,49.27847166155623,-122.91057035323755,356.47766847815365,1.0045631985492138
2024-07-07 19:38:35.2230,-0.103,-0.209,-0.561,1.49,0.58,-4.11,49.27847166155623,-122.91057035323755,356.47766847815365,1.0045631985492138
2024-07-07 19:38:35.2330,-0.117,-0.218,-0.551,1.61,0.61,-4.27,49.27847166155623,-122.91057035323755,356.47766847815365,1.0045631985492138
2024-07-07 19:38:35.2430,-0.125,-0.223,-0.554,1.71,0.64,-4.26,49.27847166155623,-122.91057035323755,356.47766847815365,1.0045631985492138
2024-07-07 19:38:35.2530,-0.129,-0.235,-0.564,1.76,0.68,-4.19,49.27847166155623,-122.91057035323755,356.47766847815365,1.0045631985492138
2024-07-07 19:38:35.2630,-0.13,-0.256,-0.581,1.8,0.8,-4.03,49.27847166155623,-122.91057035323755,356.47766847815365,1.0045631985492138
2024-07-07 19:38:35.2740,-0.125,-0.28,-0.605,1.79,0.96,-3.82,49.27847166155623,-122.91057035323755,356.47766847815365,1.0045631985492138
2024-07-07 19:38:35.2840,-0.115,-0.309,-0.642,1.73,1.19,-3.5,49.27847166155623,-122.91057035323755,356.47766847815365,1.0045631985492138
2024-07-07 19:38:35.2940,-0.1,-0.334,-0.695,1.62,1.39,-3.02,49.27847166155623,-122.91057035323755,356.47766847815365,1.0045631985492138
2024-07-07 19:38:35.3040,-0.088,-0.347,-0.759,1.51,1.52,-2.42,49.27847166155623,-122.91057035323755,356.47766847815365,1.0045631985492138
2024-07-07 19:38:35.3140,-0.076,-0.348,-0.816,1.42,1.5,-1.8,49.27847166155623,-122.91057035323755,356.47766847815365,1.0045631985492138
2024-07-07 19:38:35.3240,-0.065,-0.355,-0.86,1.31,1.48,-1.31,49.27847166155623,-122.91057035323755,356.47766847815365,1.0045631985492138
2024-07-07 19:38:35.3340,-0.06,-0.362,-0.905,1.23,1.52,-0.88,49.27847166155623,-122.91057035323755,356.47766847815365,1.0045631985492138
2024-07-07 19:38:35.3440,-0.058,-0.361,-0.958,1.2,1.51,-0.39,49.27847166155623,-122.91057035323755,356.47766847815365,1.0045631985492138
2024-07-07 19:38:35.3540,-0.052,-0.348,-1.011,1.14,1.39,0.15,49.27847166155623,-122.91057035323755,356.47766847815365,1.0045631985492138
2024-07-07 19:38:35.3640,-0.048,-0.326,-1.064,1.07,1.19,0.68,49.27847166155623,-122.91057035323755,356.47766847815365,1.0045631985492138
2024-07-07 19:38:35.3740,-0.043,-0.296,-1.114,0.99,0.89,1.19,49.27847166155623,-122.91057035323755,356.47766847815365,1.0045631985492138
2024-07-07 19:38:35.3850,-0.041,-0.268,-1.143,0.9,0.56,1.58,49.27847166155623,-122.91057035323755,356.47766847815365,1.0045631985492138
2024-07-07 19:38:35.3950,-0.039,-0.248,-1.141,0.84,0.3,1.67,49.27847166155623,-122.91057035323755,356.47766847815365,1.0045631985492138
2024-07-07 19:38:35.4040,-0.038,-0.242,-1.128,0.78,0.14,1.56,49.27847166155623,-122.91057035323755,356.47766847815365,1.0045631985492138
2024-07-07 19:38:35.4140,-0.03,-0.253,-1.133,0.7,0.13,1.53,49.27847166155623,-122.91057035323755,356.47766847815365,1.0045631985492138
2024-07-07 19:38:35.4250,-0.011,-0.278,-1.16,0.53,0.3,1.74,49.27847166155623,-122.91057035323755,356.47766847815365,1.0045631985492138
2024-07-07 19:38:35.4340,0.017,-0.307,-1.183,0.26,0.53,2.02,49.27847166155623,-122.91057035323755,356.47766847815365,1.0045631985492138
2024-07-07 19:38:35.4450,0.047,-0.346,-1.196,-0.04,0.83,2.16,49.27847166155623,-122.91057035323755,356.47766847815365,1.0045631985492138
2024-07-07 19:38:35.4550,0.068,-0.392,-1.255,-0.28,1.25,2.52,49.27847166155623,-122.91057035323755,356.47766847815365,1.0045631985492138
2024-07-07 19:38:35.4650,0.076,-0.416,-1.34,-0.39,1.59,3.35,49.27847166155623,-122.91057035323755,356.47766847815365,1.0045631985492138
2024-07-07 19:38:35.4750,0.075,-0.405,-1.413,-0.38,1.63,4.07,49.27847166155623,-122.91057035323755,356.47766847815365,1.0045631985492138
2024-07-07 19:38:35.4850,0.069,-0.338,-1.51,-0.32,1.23,4.92,49.27847166155623,-122.91057035323755,356.47766847815365,1.0045631985492138
2024-07-07 19:38:35.4950,0.075,-0.236,-1.594,-0.32,0.34,5.86,49.27847166155623,-122.91057035323755,356.47766847815365,1.0045631985492138
2024-07-07 19:38:35.5060,0.093,-0.156,-1.614,-0.49,-0.51,6.3,49.27847166155623,-122.91057035323755,356.47766847815365,1.0045631985492138
2024-07-07 19:38:35.5150,0.11,-0.112,-1.567,-0.7,-1.0,6.06,49.27847166155623,-122.91057035323755,356.47766847815365,1.0045631985492138
2024-07-07 19:38:35.5260,0.116,-0.094,-1.477,-0.82,-1.21,5.28,49.27847166155623,-122.91057035323755,356.47766847815365,1.0045631985492138
2024-07-07 19:38:35.5350,0.109,-0.092,-1.37,-0.8,-1.27,4.26,49.27847166155623,-122.91057035323755,356.47766847815365,1.0045631985492138
2024-07-07 19:38:35.5460,0.102,-0.099,-1.285,-0.69,-1.23,3.31,49.27847166155623,-122.91057035323755,356.47766847815365,1.0045631985492138
2024-07-07 19:38:35.5560,0.102,-0.107,-1.242,-0.62,-1.15,2.73,49.27847166155623,-122.91057035323755,356.47766847815365,1.0045631985492138
2024-07-07 19:38:35.5660,0.111,-0.107,-1.235,-0.6,-1.15,2.55,49.27847166155623,-122.91057035323755,356.47766847815365,1.0045631985492138
2024-07-07 19:38:35.5760,0.134,-0.104,-1.24,-0.7,-1.2,2.6,49.27847166155623,-122.91057035323755,356.47766847815365,1.0045631985492138
2024-07-07 19:38:35.5860,0.159,-0.098,-1.237,-0.89,-1.29,2.63,49.27847166155623,-122.91057035323755,356.47766847815365,1.0045631985492138
2024-07-07 19:38:35.5960,0.174,-0.097,-1.21,-1.02,-1.33,2.49,49.27847166155623,-122.91057035323755,356.47766847815365,1.0045631985492138
2024-07-07 19:38:35.6060,0.177,-0.097,-1.16,-1.06,-1.34,2.06,49.27847166155623,-122.91057035323755,356.47766847815365,1.0045631985492138
2024-07-07 19:38:35.6160,0.166,-0.096,-1.1,-0.98,-1.36,1.51,49.27847166155623,-122.91057035323755,356.47766847815365,1.0045631985492138
2024-07-07 19:38:35.6260,0.148,-0.095,-1.026,-0.83,-1.37,0.84,49.27847166155623,-122.91057035323755,356.47766847815365,1.0045631985492138
2024-07-07 19:38:35.6360,0.129,-0.09,-0.942,-0.66,-1.4,0.04,49.27847166155623,-122.91057035323755,356.47766847815365,1.0045631985492138
2024-07-07 19:38:35.6460,0.107,-0.083,-0.849,-0.5,-1.47,-0.84,49.27847166155623,-122.91057035323755,356.47766847815365,1.0045631985492138
2024-07-07 19:38:35.6560,0.081,-0.074,-0.755,-0.3,-1.56,-1.77,49.27847166155623,-122.91057035323755,356.47766847815365,1.0045631985492138
2024-07-07 19:38:35.6660,0.057,-0.067,-0.669,-0.1,-1.65,-2.65,49.27847166155623,-122.91057035323755,356.47766847815365,1.0045631985492138
2024-07-07 19:38:35.6770,0.038,-0.067,-0.596,0.06,-1.7,-3.42,49.27847166155623,-122.91057035323755,356.47766847815365,1.0045631985492138
2024-07-07 19:38:35.6870,0.026,-0.072,-0.544,0.18,-1.7,-4.02,49.27847166155623,-122.91057035323755,356.47766847815365,1.0045631985492138
2024-07-07 19:38:35.6970,0.022,-0.08,-0.516,0.23,-1.67,-4.36,49.27847166155623,-122.91057035323755,356.47766847815365,1.0045631985492138
2024-07-07 19:38:35.7070,0.022,-0.094,-0.503,0.24,-1.6,-4.53,49.27847166155623,-122.91057035323755,356.47766847815365,1.0045631985492138
2024-07-07 19:38:35.7170,0.025,-0.117,-0.503,0.21,-1.45,-4.56,49.27847166155623,-122.91057035323755,356.47766847815365,1.0045631985492138
2024-07-07 19:38:35.7270,0.032,-0.14,-0.506,0.17,-1.28,-4.51,49.27847166155623,-122.91057035323755,356.47766847815365,1.0045631985492138
2024-07-07 19:38:35.7370,0.04,-0.168,-0.503,0.1,-1.09,-4.49,49.27847166155623,-122.91057035323755,356.47766847815365,1.0045631985492138
2024-07-07 19:38:35.7470,0.04,-0.194,-0.497,0.06,-0.87,-4.54,49.27847166155623,-122.91057035323755,356.47766847815365,1.0045631985492138
2024-07-07 19:38:35.7570,0.038,-0.208,-0.493,0.1,-0.76,-4.55,49.27847166155623,-122.91057035323755,356.47766847815365,1.0045631985492138
2024-07-07 19:38:35.7670,0.037,-0.224,-0.494,0.12,-0.68,-4.56,49.27847166155623,-122.91057035323755,356.47766847815365,1.0045631985492138
2024-07-07 19:38:35.7770,0.035,-0.238,-0.502,0.15,-0.58,-4.48,49.27847166155623,-122.91057035323755,356.47766847815365,1.0045631985492138
2024-07-07 19:38:35.7880,0.032,-0.239,-0.513,0.19,-0.59,-4.36,49.27847166155623,-122.91057035323755,356.47766847815365,1.0045631985492138
2024-07-07 19:38:35.7970,0.034,-0.239,-0.528,0.2,-0.67,-4.21,49.27847166155623,-122.91057035323755,356.47766847815365,1.0045631985492138
2024-07-07 19:38:35.8080,0.032,-0.248,-0.548,0.22,-0.68,-4.02,49.27847166155623,-122.91057035323755,356.47766847815365,1.0045631985492138
2024-07-07 19:38:35.8180,0.034,-0.255,-0.576,0.25,-0.63,-3.74,49.27847166155623,-122.91057035323755,356.47766847815365,1.0045631985492138
2024-07-07 19:38:35.8280,0.045,-0.26,-0.603,0.18,-0.65,-3.45,49.27847166155623,-122.91057035323755,356.47766847815365,1.0045631985492138
2024-07-07 19:38:35.8380,0.05,-0.282,-0.628,0.12,-0.55,-3.19,49.27847166155623,-122.91057035323755,356.47766847815365,1.0045631985492138
2024-07-07 19:38:35.8480,0.053,-0.306,-0.658,0.1,-0.32,-2.9,49.27847166155623,-122.91057035323755,356.47766847815365,1.0045631985492138
2024-07-07 19:38:35.8580,0.058,-0.318,-0.695,0.07,-0.2,-2.56,49.27847166155623,-122.91057035323755,356.47766847815365,1.0045631985492138
2024-07-07 19:38:35.8680,0.065,-0.319,-0.737,0.0,-0.18,-2.14,49.27847166155623,-122.91057035323755,356.47766847815365,1.0045631985492138
2024-07-07 19:38:35.8780,0.067,-0.31,-0.769,-0.05,-0.25,-1.76,49.27847166155623,-122.91057035323755,356.47766847815365,1.0045631985492138
2024-07-07 19:38:35.8890,0.057,-0.299,-0.791,-0.01,-0.39,-1.53,49.27847166155623,-122.91057035323755,356.47766847815365,1.0045631985492138
2024-07-07 19:38:35.8980,0.04,-0.297,-0.804,0.14,-0.47,-1.33,49.27847166155623,-122.91057035323755,356.47766847815365,1.0045631985492138
2024-07-07 19:38:35.9080,0.025,-0.295,-0.824,0.29,-0.46,-1.22,49.27847166155623,-122.91057035323755,356.47766847815365,1.0045631985492138
2024-07-07 19:38:35.9180,0.025,-0.272,-0.864,0.35,-0.63,-0.87,49.27847166155623,-122.91057035323755,356.47766847815365,1.0045631985492138
2024-07-07 19:38:35.9280,0.023,-0.248,-0.905,0.34,-0.89,-0.46,49.27847166155623,-122.91057035323755,356.47766847815365,1.0045631985492138
2024-07-07 19:38:35.9390,0.01,-0.239,-0.946,0.45,-1.04,-0.08,49.27847166155623,-122.91057035323755,356.47766847815365,1.0045631985492138
2024-07-07 19:38:35.9490,0.003,-0.248,-0.993,0.56,-0.99,0.37,49.27847166155623,-122.91057035323755,356.47766847815365,1.0045631985492138
2024-07-07 19:38:35.9590,0.006,-0.273,-1.024,0.58,-0.78,0.76,49.27847166155623,-122.91057035323755,356.47766847815365,1.0045631985492138
2024-07-07 19:38:35.9690,0.028,-0.317,-1.026,0.46,-0.39,0.86,49.27847166155623,-122.91057035323755,356.47766847815365,1.0045631985492138
2024-07-07 19:38:35.9790,0.064,-0.38,-1.031,0.17,0.2,0.83,49.27847166155623,-122.91057035323755,356.47766847815365,1.0045631985492138
2024-07-07 19:38:35.9890,0.106,-0.466,-1.056,-0.17,1.02,1.01,49.27847166155623,-122.91057035323755,356.47766847815365,1.0045631985492138
2024-07-07 19:38:35.9990,0.141,-0.562,-1.084,-0.49,2.05,1.26,49.27847166155623,-122.91057035323755,356.47766847815365,1.0045631985492138
2024-07-07 19:38:36.0090,0.164,-0.629,-1.157,-0.64,2.96,1.68,49.27847166155623,-122.91057035323755,356.47766847815365,1.0045631985492138
2024-07-07 19:38:36.0190,0.202,-0.622,-1.307,-0.82,3.29,2.9,49.27847166155623,-122.91057035323755,356.47766847815365,1.0045631985492138
2024-07-07 19:38:36.0290,0.251,-0.552,-1.461,-1.18,2.89,4.47,49.27847166155623,-122.91057035323755,356.47766847815365,1.0045631985492138
2024-07-07 19:38:36.0390,0.285,-0.47,-1.585,-1.47,2.19,5.76,49.27847166155623,-122.91057035323755,356.47766847815365,1.0045631985492138
2024-07-07 19:38:36.0490,0.315,-0.388,-1.681,-1.67,1.51,6.81,49.27847166155623,-122.91057035323755,356.47766847815365,1.0045631985492138
2024-07-07 19:38:36.0600,0.348,-0.291,-1.74,-1.94,0.71,7.5,49.27847166155623,-122.91057035323755,356.47766847815365,1.0045631985492138
2024-07-07 19:38:36.0690,0.365,-0.191,-1.754,-2.18,-0.21,7.82,49.27847166155623,-122.91057035323755,356.47766847815365,1.0045631985492138
2024-07-07 19:38:36.0800,0.36,-0.129,-1.689,-2.21,-0.93,7.48,49.27847166155623,-122.91057035323755,356.47766847815365,1.0045631985492138
2024-07-07 19:38:36.0900,0.344,-0.12,-1.547,-2.11,-1.13,6.32,49.27847166155623,-122.91057035323755,356.47766847815365,1.0045631985492138
2024-07-07 19:38:36.1000,0.334,-0.14,-1.38,-2.0,-0.97,4.67,49.27847166155623,-122.91057035323755,356.47766847815365,1.0045631985492138
2024-07-07 19:38:36.1100,0.333,-0.174,-1.237,-1.99,-0.64,3.15,49.27847166155623,-122.91057035323755,356.47766847815365,1.0045631985492138
2024-07-07 19:38:36.1200,0.33,-0.21,-1.134,-1.98,-0.26,1.96,49.27847166155623,-122.91057035323755,356.47766847815365,1.0045631985492138
2024-07-07 19:38:36.1300,0.33,-0.242,-1.076,-1.96,0.07,1.25,49.27847166155623,-122.91057035323755,356.47766847815365,1.0045631985492138
2024-07-07 19:38:36.1400,0.328,-0.262,-1.047,-1.94,0.32,0.89,49.27847166155623,-122.91057035323755,356.47766847815365,1.0045631985492138
2024-07-07 19:38:36.1510,0.316,-0.268,-1.017,-1.85,0.41,0.63,49.27847166155623,-122.91057035323755,356.47766847815365,1.0045631985492138
2024-07-07 19:38:36.1600,0.293,-0.269,-0.978,-1.67,0.42,0.28,49.27845838104173,-122.91057131746489,356.3389135245234,1.262774135494118
2024-07-07 19:38:36.1700,0.258,-0.269,-0.929,-1.39,0.4,-0.16,49.27845838104173,-122.91057131746489,356.3389135245234,1.262774135494118
2024-07-07 19:38:36.1800,0.22,-0.267,-0.865,-1.05,0.38,-0.73,49.27845838104173,-122.91057131746489,356.3389135245234,1.262774135494118
2024-07-07 19:38:36.1910,0.179,-0.261,-0.787,-0.71,0.33,-1.47,49.27845838104173,-122.91057131746489,356.3389135245234,1.262774135494118
2024-07-07 19:38:36.2010,0.136,-0.254,-0.71,-0.35,0.25,-2.24,49.27845838104173,-122.91057131746489,356.3389135245234,1.262774135494118
2024-07-07 19:38:36.2110,0.094,-0.247,-0.641,0.0,0.19,-2.96,49.27845838104173,-122.91057131746489,356.3389135245234,1.262774135494118
2024-07-07 19:38:36.2210,0.06,-0.244,-0.578,0.31,0.14,-3.6,49.27845838104173,-122.91057131746489,356.3389135245234,1.262774135494118
2024-07-07 19:38:36.2310,0.031,-0.247,-0.528,0.55,0.15,-4.17,49.27845838104173,-122.91057131746489,356.3389135245234,1.262774135494118
2024-07-07 19:38:36.2410,0.009,-0.253,-0.503,0.75,0.21,-4.52,49.27845838104173,-122.91057131746489,356.3389135245234,1.262774135494118
2024-07-07 19:38:36.2510,-0.004,-0.256,-0.496,0.85,0.27,-4.65,49.27845838104173,-122.91057131746489,356.3389135245234,1.262774135494118
2024-07-07 19:38:36.2610,-0.017,-0.251,-0.502,0.93,0.25,-4.63,49.27845838104173,-122.91057131746489,356.3389135245234,1.262774135494118
2024-07-07 19:38:36.2710,-0.033,-0.241,-0.51,1.04,0.18,-4.55,49.27845838104173,-122.91057131746489,356.3389135245234,1.262774135494118
2024-07-07 19:38:36.2810,-0.046,-0.228,-0.519,1.13,0.08,-4.48,49.27845838104173,-122.91057131746489,356.3389135245234,1.262774135494118
2024-07-07 19:38:36.2910,-0.057,-0.211,-0.529,1.2,-0.06,-4.39,49.27845838104173,-122.91057131746489,356.3389135245234,1.262774135494118
2024-07-07 19:38:36.3010,-0.067,-0.198,-0.536,1.26,-0.21,-4.32,49.27845838104173,-122.91057131746489,356.3389135245234,1.262774135494118
2024-07-07 19:38:36.3110,-0.074,-0.203,-0.545,1.29,-0.21,-4.24,49.27845838104173,-122.91057131746489,356.3389135245234,1.262774135494118
2024-07-07 19:38:36.3210,-0.074,-0.221,-0.555,1.28,-0.07,-4.15,49.27845838104173,-122.91057131746489,356.3389135245234,1.262774135494118
2024-07-07 19:38:36.3320,-0.069,-0.243,-0.568,1.21,0.15,-4.05,49.27845838104173,-122.91057131746489,356.3389135245234,1.262774135494118
2024-07-07 19:38:36.3420,-0.056,-0.269,-0.583,1.07,0.39,-3.9,49.27845838104173,-122.91057131746489,356.3389135245234,1.262774135494118
2024-07-07 19:38:36.3520,-0.049,-0.295,-0.601,0.94,0.65,-3.74,49.27845838104173,-122.91057131746489,356.3389135245234,1.262774135494118
2024-07-07 19:38:36.3620,-0.046,-0.317,-0.628,0.88,0.86,-3.52,49.27845838104173,-122.91057131746489,356.3389135245234,1.262774135494118
2024-07-07 19:38:36.3720,-0.048,-0.336,-0.664,0.86,1.05,-3.18,49.27845838104173,-122.91057131746489,356.3389135245234,1.262774135494118
2024-07-07 19:38:36.3820,-0.05,-0.351,-0.691,0.88,1.19,-2.87,49.27845838104173,-122.91057131746489,356.3389135245234,1.262774135494118
2024-07-07 19:38:36.3930,-0.054,-0.359,-0.736,0.9,1.3,-2.55,49.27845838104173,-122.91057131746489,356.3389135245234,1.262774135494118
2024-07-07 19:38:36.4020,-0.054,-0.364,-0.811,0.93,1.36,-1.89,49.27845838104173,-122.91057131746489,356.3389135245234,1.262774135494118
2024-07-07 19:38:36.4120,-0.05,-0.357,-0.891,0.9,1.34,-1.13,49.27845838104173,-122.91057131746489,356.3389135245234,1.262774135494118
2024-07-07 19:38:36.4220,-0.049,-0.348,-0.987,0.88,1.26,-0.24,49.27845838104173,-122.91057131746489,356.3389135245234,1.262774135494118
2024-07-07 19:38:36.4320,-0.048,-0.333,-1.076,0.86,1.15,0.7,49.27845838104173,-122.91057131746489,356.3389135245234,1.262774135494118
2024-07-07 19:38:36.4420,-0.039,-0.317,-1.131,0.8,0.96,1.38,49.27845838104173,-122.91057131746489,356.3389135245234,1.262774135494118
2024-07-07 19:38:36.4520,-0.019,-0.316,-1.153,0.61,0.88,1.7,49.27845838104173,-122.91057131746489,356.3389135245234,1.262774135494118
2024-07-07 19:38:36.4630,0.013,-0.33,-1.162,0.33,0.91,1.81,49.27845838104173,-122.91057131746489,356.3389135245234,1.262774135494118
2024-07-07 19:38:36.4730,0.045,-0.373,-1.185,-0.02,1.17,1.97,49.27845838104173,-122.91057131746489,356.3389135245234,1.262774135494118
2024-07-07 19:38:36.4830,0.055,-0.435,-1.231,-0.21,1.71,2.37,49.27845838104173,-122.91057131746489,356.3389135245234,1.262774135494118
2024-07-07 19:38:36.4930,0.06,-0.463,-1.284,-0.25,2.11,2.89,49.27845838104173,-122.91057131746489,356.3389135245234,1.262774135494118
2024-07-07 19:38:36.5030,0.061,-0.457,-1.334,-0.33,2.08,3.4,49.27845838104173,-122.91057131746489,356.3389135245234,1.262774135494118
2024-07-07 19:38:36.5130,0.021,-0.467,-1.359,-0.13,2.07,3.79,49.27845838104173,-122.91057131746489,356.3389135245234,1.262774135494118
2024-07-07 19:38:36.5230,-0.038,-0.475,-1.347,0.41,2.22,3.76,49.27845838104173,-122.91057131746489,356.3389135245234,1.262774135494118
2024-07-07 19:38:36.5330,-0.072,-0.452,-1.359,0.85,2.13,3.72,49.27845838104173,-122.91057131746489,356.3389135245234,1.262774135494118
2024-07-07 19:38:36.5430,-0.079,-0.406,-1.403,1.0,1.78,4.08,49.27845838104173,-122.91057131746489,356.3389135245234,1.262774135494118
2024-07-07 19:38:36.5530,-0.06,-0.36,-1.44,0.92,1.35,4.47,49.27845838104173,-122.91057131746489,356.3389135245234,1.262774135494118
2024-07-07 19:38:36.5630,-0.032,-0.333,-1.465,0.68,1.05,4.75,49.27845838104173,-122.91057131746489,356.3389135245234,1.262774135494118
2024-07-07 19:38:36.5740,-0.003,-0.314,-1.478,0.46,0.89,4.92,49.27845838104173,-122.91057131746489,356.3389135245234,1.262774135494118
2024-07-07 19:38:36.5840,0.034,-0.283,-1.491,0.2,0.66,5.0,49.27845838104173,-122.91057131746489,356.3389135245234,1.262774135494118
2024-07-07 19:38:36.5940,0.074,-0.232,-1.544,-0.1,0.26,5.36,49.27845838104173,-122.91057131746489,356.3389135245234,1.262774135494118
2024-07-07 19:38:36.6030,0.114,-0.179,-1.599,-0.41,-0.28,5.97,49.27845838104173,-122.91057131746489,356.3389135245234,1.262774135494118
2024-07-07 19:38:36.6140,0.139,-0.145,-1.615,-0.65,-0.66,6.29,49.27845838104173,-122.91057131746489,356.3389135245234,1.262774135494118
2024-07-07 19:38:36.6240,0.147,-0.123,-1.586,-0.73,-0.89,6.16,49.27845838104173,-122.91057131746489,356.3389135245234,1.262774135494118
2024-07-07 19:38:36.6340,0.145,-0.102,-1.535,-0.71,-1.06,5.71,49.27845838104173,-122.91057131746489,356.3389135245234,1.262774135494118
2024-07-07 19:38:36.6440,0.142,-0.071,-1.468,-0.67,-1.29,5.12,49.27845838104173,-122.91057131746489,356.3389135245234,1.262774135494118
2024-07-07 19:38:36.6540,0.139,-0.035,-1.382,-0.67,-1.59,4.31,49.27845838104173,-122.91057131746489,356.3389135245234,1.262774135494118
2024-07-07 19:38:36.6640,0.124,-0.007,-1.282,-0.62,-1.87,3.38,49.27845838104173,-122.91057131746489,356.3389135245234,1.262774135494118
2024-07-07 19:38:36.6740,0.099,0.011,-1.171,-0.46,-2.05,2.31,49.27845838104173,-122.91057131746489,356.3389135245234,1.262774135494118
2024-07-07 19:38:36.6840,0.074,0.02,-1.066,-0.27,-2.15,1.24,49.27845838104173,-122.91057131746489,356.3389135245234,1.262774135494118
2024-07-07 19:38:36.6940,0.05,0.025,-0.961,-0.11,-2.23,0.23,49.27845838104173,-122.91057131746489,356.3389135245234,1.262774135494118
2024-07-07 19:38:36.7040,0.022,0.019,-0.852,0.08,-2.24,-0.84,49.27845838104173,-122.91057131746489,356.3389135245234,1.262774135494118
2024-07-07 19:38:36.7140,-0.003,0.007,-0.748,0.29,-2.17,-1.88,49.27845838104173,-122.91057131746489,356.3389135245234,1.262774135494118
2024-07-07 19:38:36.7250,-0.018,-0.001,-0.655,0.42,-2.14,-2.84,49.27845838104173,-122.91057131746489,356.3389135245234,1.262774135494118
2024-07-07 19:38:36.7340,-0.028,-0.014,-0.586,0.5,-2.12,-3.59,49.27845838104173,-122.91057131746489,356.3389135245234,1.262774135494118
2024-07-07 19:38:36.7450,-0.036,-0.038,-0.534,0.57,-1.99,-4.13,49.27845838104173,-122.91057131746489,356.3389135245234,1.262774135494118
2024-07-07 19:38:36.7550,-0.036,-0.065,-0.497,0.6,-1.82,-4.53,49.27845838104173,-122.91057131746489,356.3389135245234,1.262774135494118
2024-07-07 19:38:36.7650,-0.025,-0.1,-0.472,0.53,-1.6,-4.81,49.27845838104173,-122.91057131746489,356.3389135245234,1.262774135494118
2024-07-07 19:38:36.7750,-0.011,-0.138,-0.471,0.41,-1.28,-4.9,49.27845838104173,-122.91057131746489,356.3389135245234,1.262774135494118
2024-07-07 19:38:36.7850,0.002,-0.158,-0.493,0.28,-1.06,-4.74,49.27845838104173,-122.91057131746489,356.3389135245234,1.262774135494118
2024-07-07 19:38:36.7950,0.009,-0.154,-0.536,0.2,-1.05,-4.39,49.27845838104173,-122.91057131746489,356.3389135245234,1.262774135494118
2024-07-07 19:38:36.8050,0.012,-0.129,-0.581,0.15,-1.27,-3.89,49.27845838104173,-122.91057131746489,356.3389135245234,1.262774135494118
2024-07-07 19:38:36.8150,0.009,-0.107,-0.601,0.13,-1.53,-3.59,49.27845838104173,-122.91057131746489,356.3389135245234,1.262774135494118
2024-07-07 19:38:36.8250,-0.003,-0.093,-0.591,0.18,-1.72,-3.58,49.27845838104173,-122.91057131746489,356.3389135245234,1.262774135494118
2024-07-07 19:38:36.8350,-0.016,-0.093,-0.562,0.28,-1.8,-3.8,49.27845838104173,-122.91057131746489,356.3389135245234,1.262774135494118
2024-07-07 19:38:36.8450,-0.019,-0.11,-0.526,0.31,-1.72,-4.15,49.27845838104173,-122.91057131746489,356.3389135245234,1.262774135494118
2024-07-07 19:38:36.8560,-0.014,-0.145,-0.503,0.26,-1.44,-4.43,49.27845838104173,-122.91057131746489,356.3389135245234,1.262774135494118
2024-07-07 19:38:36.8660,-0.009,-0.176,-0.506,0.19,-1.14,-4.51,49.27845838104173,-122.91057131746489,356.3389135245234,1.262774135494118
2024-07-07 19:38:36.8760,0.001,-0.196,-0.536,0.11,-0.91,-4.27,49.27845838104173,-122.91057131746489,356.3389135245234,1.262774135494118
2024-07-07 19:38:36.8860,0.011,-0.206,-0.575,-0.01,-0.8,-3.93,49.27845838104173,-122.91057131746489,356.3389135245234,1.262774135494118
2024-07-07 19:38:36.8960,0.014,-0.203,-0.633,-0.06,-0.78,-3.42,49.27845838104173,-122.91057131746489,356.3389135245234,1.262774135494118
2024-07-07 19:38:36.9060,0.015,-0.187,-0.682,-0.09,-0.93,-2.87,49.27845838104173,-122.91057131746489,356.3389135245234,1.262774135494118
2024-07-07 19:38:36.9160,0.003,-0.176,-0.717,-0.03,-1.08,-2.49,49.27845838104173,-122.91057131746489,356.3389135245234,1.262774135494118
2024-07-07 19:38:36.9260,-0.013,-0.168,-0.743,0.11,-1.16,-2.19,49.27845838104173,-122.91057131746489,356.3389135245234,1.262774135494118
2024-07-07 19:38:36.9360,-0.024,-0.173,-0.756,0.23,-1.19,-2.01,49.27845838104173,-122.91057131746489,356.3389135245234,1.262774135494118
2024-07-07 19:38:36.9460,-0.027,-0.198,-0.749,0.28,-0.99,-2.02,49.27845838104173,-122.91057131746489,356.3389135245234,1.262774135494118
2024-07-07 19:38:36.9560,-0.018,-0.203,-0.755,0.25,-0.83,-2.04,49.27845838104173,-122.91057131746489,356.3389135245234,1.262774135494118
2024-07-07 19:38:36.9660,0.009,-0.18,-0.776,0.04,-0.96,-1.87,49.27845838104173,-122.91057131746489,356.3389135245234,1.262774135494118
2024-07-07 19:38:36.9760,0.039,-0.143,-0.796,-0.23,-1.29,-1.67,49.27845838104173,-122.91057131746489,356.3389135245234,1.262774135494118
2024-07-07 19:38:36.9860,0.053,-0.114,-0.819,-0.41,-1.62,-1.47,49.27845838104173,-122.91057131746489,356.3389135245234,1.262774135494118
2024-07-07 19:38:36.9970,0.05,-0.115,-0.845,-0.37,-1.71,-1.2,49.27845838104173,-122.91057131746489,356.3389135245234,1.262774135494118
2024-07-07 19:38:37.0070,0.049,-0.143,-0.87,-0.28,-1.48,-0.99,49.27845838104173,-122.91057131746489,356.3389135245234,1.262774135494118
2024-07-07 19:38:37.0170,0.065,-0.164,-0.922,-0.3,-1.16,-0.62,49.27845838104173,-122.91057131746489,356.3389135245234,1.262774135494118
2024-07-07 19:38:37.0270,0.096,-0.182,-0.989,-0.5,-0.93,0.02,49.27845838104173,-122.91057131746489,356.3389135245234,1.262774135494118
2024-07-07 19:38:37.0370,0.126,-0.212,-1.029,-0.77,-0.56,0.51,49.27845838104173,-122.91057131746489,356.3389135245234,1.262774135494118
2024-07-07 19:38:37.0470,0.147,-0.27,-1.03,-0.97,-0.02,0.63,49.27845838104173,-122.91057131746489,356.3389135245234,1.262774135494118
2024-07-07 19:38:37.0570,0.141,-0.375,-1.033,-0.93,1.06,0.52,49.27845838104173,-122.91057131746489,356.3389135245234,1.262774135494118
2024-07-07 19:38:37.0670,0.141,-0.437,-1.115,-0.72,2.12,0.94,49.27845838104173,-122.91057131746489,356.3389135245234,1.262774135494118
2024-07-07 19:38:37.0770,0.184,-0.416,-1.289,-0.82,2.4,2.3,49.27845838104173,-122.91057131746489,356.3389135245234,1.262774135494118
2024-07-07 19:38:37.0870,0.25,-0.352,-1.511,-1.26,2.1,4.35,49.27845838104173,-122.91057131746489,356.3389135245234,1.262774135494118
2024-07-07 19:38:37.0970,0.311,-0.253,-1.751,-1.7,1.49,6.63,49.27845838104173,-122.91057131746489,356.3389135245234,1.262774135494118
2024-07-07 19:38:37.1070,0.377,-0.127,-1.984,-2.17,0.49,9.0,49.27845838104173,-122.91057131746489,356.3389135245234,1.262774135494118
2024-07-07 19:38:37.1180,0.438,-0.011,-2.132,-2.75,-0.58,10.87,49.27845838104173,-122.91057131746489,356.3389135245234,1.262774135494118
2024-07-07 19:38:37.1280,0.457,0.059,-2.108,-3.1,-1.35,11.32,49.27845838104173,-122.91057131746489,356.3389135245234,1.262774135494118
2024-07-07 19:38:37.1390,0.426,0.06,-1.906,-2.97,-1.57,9.92,49.27845838104173,-122.91057131746489,356.3389135245234,1.262774135494118
2024-07-07 19:38:37.1480,0.381,-0.001,-1.637,-2.55,-1.1,7.35,49.27845838104173,-122.91057131746489,356.3389135245234,1.262774135494118
2024-07-07 19:38:37.1580,0.359,-0.074,-1.427,-2.23,-0.37,4.97,49.27845838104173,-122.91057131746489,356.3389135245234,1.262774135494118
2024-07-07 19:38:37.1680,0.364,-0.144,-1.308,-2.17,0.32,3.48,49.27844560485059,-122.91057905402371,356.4603685988113,1.399661703052965
2024-07-07 19:38:37.1780,0.383,-0.211,-1.263,-2.29,1.0,2.81,49.27844560485059,-122.91057905402371,356.4603685988113,1.399661703052965
2024-07-07 19:38:37.1880,0.403,-0.246,-1.266,-2.45,1.47,2.7,49.27844560485059,-122.91057905402371,356.4603685988113,1.399661703052965
2024-07-07 19:38:37.1980,0.41,-0.255,-1.286,-2.52,1.62,2.89,49.27844560485059,-122.91057905402371,356.4603685988113,1.399661703052965
2024-07-07 19:38:37.2080,0.398,-0.245,-1.275,-2.46,1.59,2.94,49.27844560485059,-122.91057905402371,356.4603685988113,1.399661703052965
2024-07-07 19:38:37.2180,0.368,-0.216,-1.233,-2.23,1.34,2.62,49.27844560485059,-122.91057905402371,356.4603685988113,1.399661703052965
2024-07-07 19:38:37.2280,0.327,-0.187,-1.158,-1.9,1.04,2.01,49.27844560485059,-122.91057905402371,356.4603685988113,1.399661703052965
2024-07-07 19:38:37.2380,0.279,-0.172,-1.052,-1.52,0.83,1.07,49.27844560485059,-122.91057905402371,356.4603685988113,1.399661703052965
2024-07-07 19:38:37.2480,0.233,-0.167,-0.925,-1.13,0.75,-0.13,49.27844560485059,-122.91057905402371,356.4603685988113,1.399661703052965
2024-07-07 19:38:37.2590,0.192,-0.167,-0.8,-0.8,0.73,-1.4,49.27844560485059,-122.91057905402371,356.4603685988113,1.399661703052965
2024-07-07 19:38:37.2690,0.157,-0.171,-0.693,-0.53,0.73,-2.55,49.27844560485059,-122.91057905402371,356.4603685988113,1.399661703052965
2024-07-07 19:38:37.2790,0.127,-0.177,-0.615,-0.3,0.78,-3.42,49.27844560485059,-122.91057905402371,356.4603685988113,1.399661703052965
2024-07-07 19:38:37.2890,0.1,-0.177,-0.557,-0.11,0.79,-4.07,49.27844560485059,-122.91057905402371,356.4603685988113,1.399661703052965
2024-07-07 19:38:37.2990,0.071,-0.174,-0.519,0.1,0.74,-4.51,49.27844560485059,-122.91057905402371,356.4603685988113,1.399661703052965
2024-07-07 19:38:37.3090,0.047,-0.171,-0.5,0.31,0.67,-4.77,49.27844560485059,-122.91057905402371,356.4603685988113,1.399661703052965
2024-07-07 19:38:37.3190,0.029,-0.168,-0.498,0.45,0.61,-4.85,49.27844560485059,-122.91057905402371,356.4603685988113,1.399661703052965
2024-07-07 19:38:37.3300,0.015,-0.163,-0.508,0.55,0.55,-4.79,49.27844560485059,-122.91057905402371,356.4603685988113,1.399661703052965
2024-07-07 19:38:37.3390,0.002,-0.161,-0.522,0.63,0.48,-4.66,49.27844560485059,-122.91057905402371,356.4603685988113,1.399661703052965
2024-07-07 19:38:37.3490,-0.013,-0.163,-0.538,0.72,0.46,-4.51,49.27844560485059,-122.91057905402371,356.4603685988113,1.399661703052965
2024-07-07 19:38:37.3590,-0.029,-0.161,-0.552,0.83,0.43,-4.36,49.27844560485059,-122.91057905402371,356.4603685988113,1.399661703052965
2024-07-07 19:38:37.3690,-0.043,-0.161,-0.555,0.94,0.38,-4.29,49.27844560485059,-122.91057905402371,356.4603685988113,1.399661703052965
2024-07-07 19:38:37.3800,-0.044,-0.171,-0.549,0.95,0.41,-4.31,49.27844560485059,-122.91057905402371,356.4603685988113,1.399661703052965
2024-07-07 19:38:37.3900,-0.038,-0.19,-0.545,0.84,0.52,-4.37,49.27844560485059,-122.91057905402371,356.4603685988113,1.399661703052965
2024-07-07 19:38:37.4000,-0.036,-0.219,-0.543,0.76,0.72,-4.38,49.27844560485059,-122.91057905402371,356.4603685988113,1.399661703052965
2024-07-07 19:38:37.4100,-0.037,-0.252,-0.553,0.73,1.0,-4.36,49.27844560485059,-122.91057905402371,356.4603685988113,1.399661703052965
2024-07-07 19:38:37.4200,-0.037,-0.274,-0.587,0.71,1.21,-4.09,49.27844560485059,-122.91057905402371,356.4603685988113,1.399661703052965
2024-07-07 19:38:37.4300,-0.04,-0.283,-0.623,0.68,1.27,-3.71,49.27844560485059,-122.91057905402371,356.4603685988113,1.399661703052965
2024-07-07 19:38:37.4400,-0.052,-0.29,-0.646,0.75,1.25,-3.42,49.27844560485059,-122.91057905402371,356.4603685988113,1.399661703052965
2024-07-07 19:38:37.4500,-0.064,-0.299,-0.658,0.84,1.28,-3.26,49.27844560485059,-122.91057905402371,356.4603685988113,1.399661703052965
2024-07-07 19:38:37.4600,-0.076,-0.301,-0.685,0.95,1.25,-3.09,49.27844560485059,-122.91057905402371,356.4603685988113,1.399661703052965
2024-07-07 19:38:37.4700,-0.073,-0.309,-0.738,0.95,1.22,-2.62,49.27844560485059,-122.91057905402371,356.4603685988113,1.399661703052965
2024-07-07 19:38:37.4800,-0.07,-0.325,-0.802,0.89,1.3,-2.02,49.27844560485059,-122.91057905402371,356.4603685988113,1.399661703052965
2024-07-07 19:38:37.4910,-0.066,-0.335,-0.867,0.87,1.38,-1.37,49.27844560485059,-122.91057905402371,356.4603685988113,1.399661703052965
2024-07-07 19:38:37.5010,-0.05,-0.333,-0.935,0.72,1.36,-0.7,49.27844560485059,-122.91057905402371,356.4603685988113,1.399661703052965
2024-07-07 19:38:37.5100,-0.039,-0.318,-0.993,0.56,1.2,-0.06,49.27844560485059,-122.91057905402371,356.4603685988113,1.399661703052965
2024-07-07 19:38:37.5200,-0.037,-0.303,-1.033,0.49,1.01,0.39,49.27844560485059,-122.91057905402371,356.4603685988113,1.399661703052965
2024-07-07 19:38:37.5310,-0.023,-0.293,-1.073,0.41,0.85,0.78,49.27844560485059,-122.91057905402371,356.4603685988113,1.399661703052965
2024-07-07 19:38:37.5410,-0.005,-0.297,-1.121,0.18,0.79,1.21,49.27844560485059,-122.91057905402371,356.4603685988113,1.399661703052965
2024-07-07 19:38:37.5510,0.004,-0.321,-1.18,0.04,0.96,1.77,49.27844560485059,-122.91057905402371,356.4603685988113,1.399661703052965
2024-07-07 19:38:37.5610,0.009,-0.342,-1.225,-0.07,1.18,2.29,49.27844560485059,-122.91057905402371,356.4603685988113,1.399661703052965
2024-07-07 19:38:37.5710,0.001,-0.359,-1.249,-0.1,1.33,2.59,49.27844560485059,-122.91057905402371,356.4603685988113,1.399661703052965
2024-07-07 19:38:37.5810,-0.016,-0.387,-1.268,0.04,1.59,2.78,49.27844560485059,-122.91057905402371,356.4603685988113,1.399661703052965
2024-07-07 19:38:37.5910,-0.027,-0.397,-1.295,0.18,1.79,3.0,49.27844560485059,-122.91057905402371,356.4603685988113,1.399661703052965
2024-07-07 19:38:37.6010,-0.014,-0.373,-1.357,0.19,1.71,3.42,49.27844560485059,-122.91057905402371,356.4603685988113,1.399661703052965
2024-07-07 19:38:37.6110,0.023,-0.313,-1.466,-0.04,1.25,4.36,49.27844560485059,-122.91057905402371,356.4603685988113,1.399661703052965
2024-07-07 19:38:37.6210,0.079,-0.251,-1.558,-0.46,0.61,5.4,49.27844560485059,-122.91057905402371,356.4603685988113,1.399661703052965
2024-07-07 19:38:37.6320,0.133,-0.212,-1.604,-0.94,0.1,6.02,49.27844560485059,-122.91057905402371,356.4603685988113,1.399661703052965
2024-07-07 19:38:37.6420,0.174,-0.192,-1.62,-1.3,-0.17,6.28,49.27844560485059,-122.91057905402371,356.4603685988113,1.399661703052965
2024-07-07 19:38:37.6520,0.206,-0.17,-1.616,-1.55,-0.42,6.31,49.27844560485059,-122.91057905402371,356.4603685988113,1.399661703052965
2024-07-07 19:38:37.6620,0.223,-0.149,-1.597,-1.7,-0.7,6.2,49.27844560485059,-122.91057905402371,356.4603685988113,1.399661703052965
2024-07-07 19:38:37.6720,0.224,-0.141,-1.573,-1.68,-0.86,5.97,49.27844560485059,-122.91057905402371,356.4603685988113,1.399661703052965
2024-07-07 19:38:37.6820,0.214,-0.133,-1.556,-1.56,-0.94,5.8,49.27844560485059,-122.91057905402371,356.4603685988113,1.399661703052965
2024-07-07 19:38:37.6920,0.2,-0.113,-1.537,-1.39,-1.09,5.63,49.27844560485059,-122.91057905402371,356.4603685988113,1.399661703052965
2024-07-07 19:38:37.7020,0.191,-0.085,-1.499,-1.25,-1.32,5.36,49.27844560485059,-122.91057905402371,356.4603685988113,1.399661703052965
2024-07-07 19:38:37.7120,0.18,-0.057,-1.43,-1.17,-1.55,4.76,49.27844560485059,-122.91057905402371,356.4603685988113,1.399661703052965
2024-07-07 19:38:37.7220,0.164,-0.034,-1.346,-1.06,-1.74,3.97,49.27844560485059,-122.91057905402371,356.4603685988113,1.399661703052965
2024-07-07 19:38:37.7320,0.15,-0.019,-1.238,-0.99,-1.84,2.99,49.27844560485059,-122.91057905402371,356.4603685988113,1.399661703052965
2024-07-07 19:38:37.7420,0.133,-0.017,-1.114,-0.91,-1.85,1.8,49.27844560485059,-122.91057905402371,356.4603685988113,1.399661703052965
2024-07-07 19:38:37.7520,0.11,-0.03,-0.981,-0.81,-1.72,0.5,49.27844560485059,-122.91057905402371,356.4603685988113,1.399661703052965
2024-07-07 19:38:37.7620,0.081,-0.053,-0.855,-0.62,-1.49,-0.79,49.27844560485059,-122.91057905402371,356.4603685988113,1.399661703052965
2024-07-07 19:38:37.7720,0.049,-0.084,-0.749,-0.4,-1.19,-1.92,49.27844560485059,-122.91057905402371,356.4603685988113,1.399661703052965
2024-07-07 19:38:37.7820,0.017,-0.115,-0.668,-0.12,-0.88,-2.8,49.27844560485059,-122.91057905402371,356.4603685988113,1.399661703052965
2024-07-07 19:38:37.7930,-0.007,-0.139,-0.616,0.11,-0.63,-3.44,49.27844560485059,-122.91057905402371,356.4603685988113,1.399661703052965
2024-07-07 19:38:37.8030,-0.02,-0.15,-0.594,0.25,-0.49,-3.74,49.27844560485059,-122.91057905402371,356.4603685988113,1.399661703052965
2024-07-07 19:38:37.8130,-0.023,-0.158,-0.585,0.3,-0.45,-3.85,49.27844560485059,-122.91057905402371,356.4603685988113,1.399661703052965
2024-07-07 19:38:37.8230,-0.017,-0.166,-0.583,0.28,-0.4,-3.89,49.27844560485059,-122.91057905402371,356.4603685988113,1.399661703052965
2024-07-07 19:38:37.8330,-0.003,-0.169,-0.591,0.15,-0.39,-3.85,49.27844560485059,-122.91057905402371,356.4603685988113,1.399661703052965
2024-07-07 19:38:37.8430,0.005,-0.175,-0.598,0.02,-0.38,-3.73,49.27844560485059,-122.91057905402371,356.4603685988113,1.399661703052965
2024-07-07 19:38:37.8530,0.009,-0.188,-0.586,-0.03,-0.32,-3.78,49.27844560485059,-122.91057905402371,356.4603685988113,1.399661703052965
2024-07-07 19:38:37.8630,0.009,-0.202,-0.567,-0.07,-0.2,-3.94,49.27844560485059,-122.91057905402371,356.4603685988113,1.399661703052965
2024-07-07 19:38:37.8730,0.0,-0.209,-0.55,-0.03,-0.16,-4.13,49.27844560485059,-122.91057905402371,356.4603685988113,1.399661703052965
2024-07-07 19:38:37.8830,-0.005,-0.216,-0.546,0.02,-0.13,-4.2,49.27844560485059,-122.91057905402371,356.4603685988113,1.399661703052965
2024-07-07 19:38:37.8930,-0.008,-0.224,-0.545,0.05,-0.11,-4.19,49.27844560485059,-122.91057905402371,356.4603685988113,1.399661703052965
2024-07-07 19:38:37.9040,-0.007,-0.237,-0.537,0.05,-0.05,-4.23,49.27844560485059,-122.91057905402371,356.4603685988113,1.399661703052965
2024-07-07 19:38:37.9130,-0.006,-0.249,-0.536,0.03,0.03,-4.27,49.27844560485059,-122.91057905402371,356.4603685988113,1.399661703052965
2024-07-07 19:38:37.9240,-0.004,-0.254,-0.538,0.02,0.02,-4.23,49.27844560485059,-122.91057905402371,356.4603685988113,1.399661703052965
2024-07-07 19:38:37.9340,0.004,-0.26,-0.539,-0.03,0.0,-4.21,49.27844560485059,-122.91057905402371,356.4603685988113,1.399661703052965
2024-07-07 19:38:37.9440,0.016,-0.265,-0.558,-0.12,-0.01,-4.08,49.27844560485059,-122.91057905402371,356.4603685988113,1.399661703052965
2024-07-07 19:38:37.9540,0.031,-0.265,-0.586,-0.24,-0.06,-3.81,49.27844560485059,-122.91057905402371,356.4603685988113,1.399661703052965
2024-07-07 19:38:37.9640,0.042,-0.262,-0.623,-0.35,-0.14,-3.47,49.27844560485059,-122.91057905402371,356.4603685988113,1.399661703052965
2024-07-07 19:38:37.9740,0.057,-0.254,-0.665,-0.47,-0.27,-3.04,49.27844560485059,-122.91057905402371,356.4603685988113,1.399661703052965
2024-07-07 19:38:37.9840,0.073,-0.244,-0.694,-0.63,-0.41,-2.67,49.27844560485059,-122.91057905402371,356.4603685988113,1.399661703052965
2024-07-07 19:38:37.9940,0.079,-0.233,-0.705,-0.72,-0.57,-2.5,49.27844560485059,-122.91057905402371,356.4603685988113,1.399661703052965
2024-07-07 19:38:38.0050,0.08,-0.229,-0.711,-0.73,-0.68,-2.42,49.27844560485059,-122.91057905402371,356.4603685988113,1.399661703052965
2024-07-07 19:38:38.0140,0.08,-0.225,-0.727,-0.72,-0.74,-2.3,49.27844560485059,-122.91057905402371,356.4603685988113,1.399661703052965
2024-07-07 19:38:38.0240,0.083,-0.212,-0.763,-0.71,-0.85,-2.02,49.27844560485059,-122.91057905402371,356.4603685988113,1.399661703052965
2024-07-07 19:38:38.0340,0.089,-0.18,-0.824,-0.76,-1.11,-1.51,49.27844560485059,-122.91057905402371,356.4603685988113,1.399661703052965
2024-07-07 19:38:38.0440,0.083,-0.138,-0.901,-0.71,-1.53,-0.77,49.27844560485059,-122.91057905402371,356.4603685988113,1.399661703052965
2024-07-07 19:38:38.0550,0.06,-0.109,-0.962,-0.52,-1.91,-0.09,49.27844560485059,-122.91057905402371,356.4603685988113,1.399661703052965
2024-07-07 19:38:38.0650,0.024,-0.117,-1.01,-0.14,-1.99,0.43,49.27844560485059,-122.91057905402371,356.4603685988113,1.399661703052965
2024-07-07 19:38:38.0750,0.007,-0.141,-1.039,0.21,-1.78,0.79,49.27844560485059,-122.91057905402371,356.4603685988113,1.399661703052965
2024-07-07 19:38:38.0850,0.03,-0.174,-1.068,0.22,-1.53,1.05,49.27844560485059,-122.91057905402371,356.4603685988113,1.399661703052965
2024-07-07 19:38:38.0950,0.084,-0.233,-1.105,-0.09,-1.06,1.39,49.27844560485059,-122.91057905402371,356.4603685988113,1.399661703052965
2024-07-07 19:38:38.1050,0.147,-0.33,-1.162,-0.57,-0.28,1.88,49.27844560485059,-122.91057905402371,356.4603685988113,1.399661703052965
2024-07-07 19:38:38.1150,0.209,-0.469,-1.222,-1.03,0.98,2.49,49.27844560485059,-122.91057905402371,356.4603685988113,1.399661703052965
2024-07-07 19:38:38.1250,0.257,-0.587,-1.297,-1.41,2.34,3.13,49.27844560485059,-122.91057905402371,356.4603685988113,1.399661703052965
2024-07-07 19:38:38.1350,0.296,-0.612,-1.414,-1.66,3.01,4.12,49.27844560485059,-122.91057905402371,356.4603685988113,1.399661703052965
2024-07-07 19:38:38.1460,0.338,-0.549,-1.553,-1.94,2.73,5.45,49.27844560485059,-122.91057905402371,356.4603685988113,1.399661703052965
2024-07-07 19:38:38.1550,0.37,-0.462,-1.654,-2.24,1.99,6.63,49.27844560485059,-122.91057905402371,356.4603685988113,1.399661703052965
2024-07-07 19:38:38.1670,0.378,-0.393,-1.698,-2.34,1.38,7.22,49.27843240927514,-122.91058313501571,356.4315718654543,1.472127108147935
2024-07-07 19:38:38.1750,0.375,-0.307,-1.708,-2.33,0.78,7.38,49.27843240927514,-122.91058313501571,356.4315718654543,1.472127108147935
2024-07-07 19:38:38.1860,0.366,-0.205,-1.692,-2.29,-0.06,7.28,49.27843240927514,-122.91058313501571,356.4315718654543,1.472127108147935
2024-07-07 19:38:38.1960,0.35,-0.133,-1.627,-2.21,-0.77,6.81,49.27843240927514,-122.91058313501571,356.4315718654543,1.472127108147935
2024-07-07 19:38:38.2060,0.325,-0.098,-1.508,-2.05,-1.11,5.78,49.27843240927514,-122.91058313501571,356.4315718654543,1.472127108147935
2024-07-07 19:38:38.2160,0.297,-0.091,-1.358,-1.84,-1.17,4.37,49.27843240927514,-122.91058313501571,356.4315718654543,1.472127108147935
2024-07-07 19:38:38.2260,0.268,-0.106,-1.211,-1.62,-1.03,2.86,49.27843240927514,-122.91058313501571,356.4315718654543,1.472127108147935
2024-07-07 19:38:38.2360,0.24,-0.137,-1.078,-1.36,-0.73,1.49,49.27843240927514,-122.91058313501571,356.4315718654543,1.472127108147935
2024-07-07 19:38:38.2490,0.218,-0.167,-0.969,-1.13,-0.4,0.32,49.27843240927514,-122.91058313501571,356.4315718654543,1.472127108147935
2024-07-07 19:38:38.2560,0.202,-0.192,-0.887,-0.94,-0.15,-0.59,49.27843240927514,-122.91058313501571,356.4315718654543,1.472127108147935
2024-07-07 19:38:38.2660,0.191,-0.214,-0.832,-0.8,0.06,-1.21,49.27843240927514,-122.91058313501571,356.4315718654543,1.472127108147935
2024-07-07 19:38:38.2760,0.184,-0.231,-0.79,-0.68,0.22,-1.66,49.27843240927514,-122.91058313501571,356.4315718654543,1.472127108147935
2024-07-07 19:38:38.2860,0.174,-0.249,-0.759,-0.57,0.37,-1.98,49.27843240927514,-122.91058313501571,356.4315718654543,1.472127108147935
2024-07-07 19:38:38.2960,0.162,-0.262,-0.733,-0.42,0.5,-2.26,49.27843240927514,-122.91058313501571,356.4315718654543,1.472127108147935
2024-07-07 19:38:38.3070,0.149,-0.274,-0.721,-0.31,0.6,-2.43,49.27843240927514,-122.91058313501571,356.4315718654543,1.472127108147935
2024-07-07 19:38:38.3170,0.13,-0.288,-0.706,-0.13,0.74,-2.52,49.27843240927514,-122.91058313501571,356.4315718654543,1.472127108147935
2024-07-07 19:38:38.3270,0.11,-0.298,-0.681,0.04,0.87,-2.75,49.27843240927514,-122.91058313501571,356.4315718654543,1.472127108147935
2024-07-07 19:38:38.3370,0.084,-0.301,-0.647,0.25,0.93,-3.05,49.27843240927514,-122.91058313501571,356.4315718654543,1.472127108147935
2024-07-07 19:38:38.3470,0.056,-0.302,-0.606,0.48,0.96,-3.44,49.27843240927514,-122.91058313501571,356.4315718654543,1.472127108147935
2024-07-07 19:38:38.3570,0.025,-0.295,-0.563,0.74,0.94,-3.88,49.27843240927514,-122.91058313501571,356.4315718654543,1.472127108147935
2024-07-07 19:38:38.3670,-0.003,-0.278,-0.535,0.98,0.83,-4.23,49.27843240927514,-122.91058313501571,356.4315718654543,1.472127108147935
2024-07-07 19:38:38.3770,-0.027,-0.26,-0.521,1.19,0.66,-4.42,49.27843240927514,-122.91058313501571,356.4315718654543,1.472127108147935
2024-07-07 19:38:38.3870,-0.049,-0.251,-0.521,1.37,0.57,-4.49,49.27843240927514,-122.91058313501571,356.4315718654543,1.472127108147935
2024-07-07 19:38:38.3970,-0.066,-0.241,-0.541,1.51,0.49,-4.36,49.27843240927514,-122.91058313501571,356.4315718654543,1.472127108147935
2024-07-07 19:38:38.4080,-0.081,-0.231,-0.557,1.62,0.42,-4.17,49.27843240927514,-122.91058313501571,356.4315718654543,1.472127108147935
2024-07-07 19:38:38.4170,-0.093,-0.216,-0.559,1.7,0.31,-4.11,49.27843240927514,-122.91058313501571,356.4315718654543,1.472127108147935
2024-07-07 19:38:38.4270,-0.1,-0.21,-0.543,1.73,0.2,-4.21,49.27843240927514,-122.91058313501571,356.4315718654543,1.472127108147935
2024-07-07 19:38:38.4370,-0.098,-0.22,-0.524,1.7,0.25,-4.41,49.27843240927514,-122.91058313501571,356.4315718654543,1.472127108147935
2024-07-07 19:38:38.4470,-0.091,-0.24,-0.518,1.61,0.42,-4.52,49.27843240927514,-122.91058313501571,356.4315718654543,1.472127108147935
2024-07-07 19:38:38.4570,-0.078,-0.262,-0.525,1.49,0.63,-4.51,49.27843240927514,-122.91058313501571,356.4315718654543,1.472127108147935
2024-07-07 19:38:38.4680,-0.059,-0.28,-0.553,1.31,0.82,-4.32,49.27843240927514,-122.91058313501571,356.4315718654543,1.472127108147935
2024-07-07 19:38:38.4780,-0.049,-0.292,-0.607,1.18,0.94,-3.89,49.27843240927514,-122.91058313501571,356.4315718654543,1.472127108147935
2024-07-07 19:38:38.4880,-0.045,-0.295,-0.675,1.15,0.98,-3.24,49.27843240927514,-122.91058313501571,356.4315718654543,1.472127108147935
2024-07-07 19:38:38.4980,-0.035,-0.297,-0.747,1.09,0.97,-2.54,49.27843240927514,-122.91058313501571,356.4315718654543,1.472127108147935
2024-07-07 19:38:38.5080,-0.018,-0.304,-0.818,0.98,0.99,-1.82,49.27843240927514,-122.91058313501571,356.4315718654543,1.472127108147935
2024-07-07 19:38:38.5180,0.006,-0.316,-0.885,0.77,1.08,-1.13,49.27843240927514,-122.91058313501571,356.4315718654543,1.472127108147935
2024-07-07 19:38:38.5280,0.029,-0.325,-0.926,0.55,1.16,-0.61,49.27843240927514,-122.91058313501571,356.4315718654543,1.472127108147935
2024-07-07 19:38:38.5380,0.054,-0.333,-0.945,0.32,1.22,-0.38,49.27843240927514,-122.91058313501571,356.4315718654543,1.472127108147935
2024-07-07 19:38:38.5480,0.074,-0.357,-0.974,0.11,1.37,-0.14,49.27843240927514,-122.91058313501571,356.4315718654543,1.472127108147935
2024-07-07 19:38:38.5580,0.093,-0.391,-1.005,-0.04,1.68,0.19,49.27843240927514,-122.91058313501571,356.4315718654543,1.472127108147935
2024-07-07 19:38:38.5680,0.11,-0.417,-1.033,-0.21,1.97,0.45,49.27843240927514,-122.91058313501571,356.4315718654543,1.472127108147935
2024-07-07 19:38:38.5780,0.117,-0.436,-1.088,-0.28,2.19,0.87,49.27843240927514,-122.91058313501571,356.4315718654543,1.472127108147935
2024-07-07 19:38:38.5880,0.127,-0.433,-1.16,-0.32,2.26,1.55,49.27843240927514,-122.91058313501571,356.4315718654543,1.472127108147935
2024-07-07 19:38:38.5990,0.138,-0.411,-1.224,-0.43,2.09,2.23,49.27843240927514,-122.91058313501571,356.4315718654543,1.472127108147935
2024-07-07 19:38:38.6090,0.139,-0.389,-1.279,-0.47,1.89,2.77,49.27843240927514,-122.91058313501571,356.4315718654543,1.472127108147935
2024-07-07 19:38:38.6190,0.136,-0.369,-1.33,-0.45,1.69,3.34,49.27843240927514,-122.91058313501571,356.4315718654543,1.472127108147935
2024-07-07 19:38:38.6280,0.122,-0.366,-1.315,-0.4,1.57,3.46,49.27843240927514,-122.91058313501571,356.4315718654543,1.472127108147935
2024-07-07 19:38:38.6390,0.082,-0.4,-1.299,-0.1,1.83,3.14,49.27843240927514,-122.91058313501571,356.4315718654543,1.472127108147935
2024-07-07 19:38:38.6490,0.053,-0.398,-1.373,0.29,2.08,3.52,49.27843240927514,-122.91058313501571,356.4315718654543,1.472127108147935
2024-07-07 19:38:38.6590,0.059,-0.323,-1.486,0.37,1.62,4.58,49.27843240927514,-122.91058313501571,356.4315718654543,1.472127108147935
2024-07-07 19:38:38.6690,0.067,-0.242,-1.571,0.28,0.81,5.56,49.27843240927514,-122.91058313501571,356.4315718654543,1.472127108147935
2024-07-07 19:38:38.6790,0.06,-0.184,-1.602,0.31,0.22,6.06,49.27843240927514,-122.91058313501571,356.4315718654543,1.472127108147935
2024-07-07 19:38:38.6890,0.049,-0.124,-1.579,0.42,-0.33,6.02,49.27843240927514,-122.91058313501571,356.4315718654543,1.472127108147935
2024-07-07 19:38:38.6990,0.042,-0.07,-1.521,0.52,-0.89,5.55,49.27843240927514,-122.91058313501571,356.4315718654543,1.472127108147935
2024-07-07 19:38:38.7090,0.043,-0.044,-1.453,0.57,-1.25,4.89,49.27843240927514,-122.91058313501571,356.4315718654543,1.472127108147935
2024-07-07 19:38:38.7190,0.051,-0.044,-1.404,0.54,-1.34,4.3,49.27843240927514,-122.91058313501571,356.4315718654543,1.472127108147935
2024-07-07 19:38:38.7290,0.069,-0.061,-1.409,0.49,-1.21,4.14,49.27843240927514,-122.91058313501571,356.4315718654543,1.472127108147935
2024-07-07 19:38:38.7400,0.102,-0.075,-1.444,0.26,-1.03,4.43,49.27843240927514,-122.91058313501571,356.4315718654543,1.472127108147935
2024-07-07 19:38:38.7500,0.134,-0.077,-1.474,0.0,-0.95,4.79,49.27843240927514,-122.91058313501571,356.4315718654543,1.472127108147935
2024-07-07 19:38:38.7600,0.156,-0.073,-1.47,-0.22,-0.94,4.89,49.27843240927514,-122.91058313501571,356.4315718654543,1.472127108147935
2024-07-07 19:38:38.7700,0.16,-0.061,-1.43,-0.32,-1.02,4.62,49.27843240927514,-122.91058313501571,356.4315718654543,1.472127108147935
2024-07-07 19:38:38.7800,0.142,-0.044,-1.36,-0.25,-1.17,4.04,49.27843240927514,-122.91058313501571,356.4315718654543,1.472127108147935
2024-07-07 19:38:38.7900,0.102,-0.033,-1.251,0.03,-1.32,3.12,49.27843240927514,-122.91058313501571,356.4315718654543,1.472127108147935
2024-07-07 19:38:38.8000,0.059,-0.029,-1.11,0.37,-1.38,1.83,49.27843240927514,-122.91058313501571,356.4315718654543,1.472127108147935
2024-07-07 19:38:38.8110,0.028,-0.025,-0.956,0.64,-1.44,0.33,49.27843240927514,-122.91058313501571,356.4315718654543,1.472127108147935
2024-07-07 19:38:38.8200,0.007,-0.029,-0.817,0.78,-1.48,-1.13,49.27843240927514,-122.91058313501571,356.4315718654543,1.472127108147935
2024-07-07 19:38:38.8310,-0.011,-0.053,-0.707,0.89,-1.36,-2.31,49.27843240927514,-122.91058313501571,356.4315718654543,1.472127108147935
2024-07-07 19:38:38.8410,-0.019,-0.086,-0.629,0.96,-1.1,-3.19,49.27843240927514,-122.91058313501571,356.4315718654543,1.472127108147935
2024-07-07 19:38:38.8510,-0.02,-0.114,-0.583,0.94,-0.86,-3.76,49.27843240927514,-122.91058313501571,356.4315718654543,1.472127108147935
2024-07-07 19:38:38.8610,-0.013,-0.137,-0.568,0.86,-0.67,-4.0,49.27843240927514,-122.91058313501571,356.4315718654543,1.472127108147935
2024-07-07 19:38:38.8710,-0.003,-0.15,-0.575,0.75,-0.58,-3.99,49.27843240927514,-122.91058313501571,356.4315718654543,1.472127108147935
2024-07-07 19:38:38.8810,0.009,-0.153,-0.581,0.61,-0.57,-3.87,49.27843240927514,-122.91058313501571,356.4315718654543,1.472127108147935
2024-07-07 19:38:38.8910,0.024,-0.143,-0.556,0.45,-0.69,-3.99,49.27843240927514,-122.91058313501571,356.4315718654543,1.472127108147935
2024-07-07 19:38:38.9010,0.041,-0.139,-0.53,0.25,-0.84,-4.27,49.27843240927514,-122.91058313501571,356.4315718654543,1.472127108147935
2024-07-07 19:38:38.9120,0.047,-0.148,-0.512,0.13,-0.87,-4.43,49.27843240927514,-122.91058313501571,356.4315718654543,1.472127108147935
2024-07-07 19:38:38.9220,0.051,-0.168,-0.486,0.06,-0.78,-4.65,49.27843240927514,-122.91058313501571,356.4315718654543,1.472127108147935
2024-07-07 19:38:38.9310,0.056,-0.189,-0.467,0.0,-0.64,-4.87,49.27843240927514,-122.91058313501571,356.4315718654543,1.472127108147935
2024-07-07 19:38:38.9410,0.061,-0.208,-0.462,-0.06,-0.51,-4.94,49.27843240927514,-122.91058313501571,356.4315718654543,1.472127108147935
2024-07-07 19:38:38.9520,0.066,-0.229,-0.465,-0.11,-0.4,-4.91,49.27843240927514,-122.91058313501571,356.4315718654543,1.472127108147935
2024-07-07 19:38:38.9620,0.079,-0.252,-0.479,-0.21,-0.24,-4.82,49.27843240927514,-122.91058313501571,356.4315718654543,1.472127108147935
2024-07-07 19:38:38.9720,0.098,-0.255,-0.517,-0.37,-0.17,-4.51,49.27843240927514,-122.91058313501571,356.4315718654543,1.472127108147935
2024-07-07 19:38:38.9820,0.116,-0.236,-0.568,-0.55,-0.35,-4.03,49.27843240927514,-122.91058313501571,356.4315718654543,1.472127108147935
2024-07-07 19:38:38.9920,0.118,-0.212,-0.623,-0.66,-0.65,-3.48,49.27843240927514,-122.91058313501571,356.4315718654543,1.472127108147935
2024-07-07 19:38:39.0020,0.098,-0.2,-0.663,-0.55,-0.86,-2.98,49.27843240927514,-122.91058313501571,356.4315718654543,1.472127108147935
2024-07-07 19:38:39.0120,0.067,-0.197,-0.67,-0.31,-0.96,-2.79,49.27843240927514,-122.91058313501571,356.4315718654543,1.472127108147935
2024-07-07 19:38:39.0220,0.031,-0.198,-0.677,0.01,-0.99,-2.78,49.27843240927514,-122.91058313501571,356.4315718654543,1.472127108147935
2024-07-07 19:38:39.0320,0.015,-0.196,-0.704,0.26,-1.02,-2.56,49.27843240927514,-122.91058313501571,356.4315718654543,1.472127108147935
2024-07-07 19:38:39.0420,0.02,-0.192,-0.742,0.26,-1.06,-2.24,49.27843240927514,-122.91058313501571,356.4315718654543,1.472127108147935
2024-07-07 19:38:39.0520,0.037,-0.179,-0.797,0.15,-1.16,-1.72,49.27843240927514,-122.91058313501571,356.4315718654543,1.472127108147935
2024-07-07 19:38:39.0620,0.065,-0.164,-0.838,-0.07,-1.34,-1.25,49.27843240927514,-122.91058313501571,356.4315718654543,1.472127108147935
2024-07-07 19:38:39.0720,0.083,-0.161,-0.864,-0.25,-1.44,-0.92,49.27843240927514,-122.91058313501571,356.4315718654543,1.472127108147935
2024-07-07 19:38:39.0820,0.093,-0.188,-0.886,-0.29,-1.35,-0.72,49.27843240927514,-122.91058313501571,356.4315718654543,1.472127108147935
2024-07-07 19:38:39.0920,0.117,-0.245,-0.926,-0.31,-0.89,-0.39,49.27843240927514,-122.91058313501571,356.4315718654543,1.472127108147935
2024-07-07 19:38:39.1030,0.2,-0.285,-1.004,-0.75,-0.43,0.26,49.27843240927514,-122.91058313501571,356.4315718654543,1.472127108147935
2024-07-07 19:38:39.1130,0.324,-0.328,-1.111,-1.74,-0.13,1.22,49.27843240927514,-122.91058313501571,356.4315718654543,1.472127108147935
2024-07-07 19:38:39.1230,0.418,-0.427,-1.241,-2.67,0.63,2.45,49.27843240927514,-122.91058313501571,356.4315718654543,1.472127108147935
2024-07-07 19:38:39.1330,0.472,-0.539,-1.373,-3.15,1.79,3.78,49.27843240927514,-122.91058313501571,356.4315718654543,1.472127108147935
2024-07-07 19:38:39.1430,0.513,-0.594,-1.499,-3.45,2.64,5.04,49.27843240927514,-122.91058313501571,356.4315718654543,1.472127108147935
2024-07-07 19:38:39.1530,0.54,-0.576,-1.622,-3.65,2.77,6.27,49.27843240927514,-122.91058313501571,356.4315718654543,1.472127108147935
2024-07-07 19:38:39.1630,0.561,-0.505,-1.703,-3.79,2.34,7.25,49.27843240927514,-122.91058313501571,356.4315718654543,1.472127108147935
2024-07-07 19:38:39.1730,0.583,-0.409,-1.731,-3.97,1.58,7.68,49.2784185552985,-122.91058209951248,356.5088525842875,1.515149588295586
2024-07-07 19:38:39.1830,0.596,-0.292,-1.722,-4.13,0.64,7.66,49.2784185552985,-122.91058209951248,356.5088525842875,1.515149588295586
2024-07-07 19:38:39.1930,0.603,-0.167,-1.677,-4.24,-0.44,7.33,49.2784185552985,-122.91058209951248,356.5088525842875,1.515149588295586
2024-07-07 19:38:39.2030,0.595,-0.075,-1.581,-4.29,-1.37,6.54,49.2784185552985,-122.91058209951248,356.5088525842875,1.515149588295586
2024-07-07 19:38:39.2140,0.562,-0.045,-1.454,-4.1,-1.74,5.31,49.2784185552985,-122.91058209951248,356.5088525842875,1.515149588295586
2024-07-07 19:38:39.2240,0.518,-0.045,-1.329,-3.76,-1.67,4.02,49.2784185552985,-122.91058209951248,356.5088525842875,1.515149588295586
2024-07-07 19:38:39.2330,0.467,-0.049,-1.215,-3.35,-1.52,2.82,49.2784185552985,-122.91058209951248,356.5088525842875,1.515149588295586
2024-07-07 19:38:39.2440,0.402,-0.052,-1.109,-2.84,-1.36,1.72,49.2784185552985,-122.91058209951248,356.5088525842875,1.515149588295586
2024-07-07 19:38:39.2540,0.324,-0.063,-1.008,-2.19,-1.17,0.68,49.2784185552985,-122.91058209951248,356.5088525842875,1.515149588295586
2024-07-07 19:38:39.2640,0.24,-0.081,-0.908,-1.44,-0.9,-0.33,49.2784185552985,-122.91058209951248,356.5088525842875,1.515149588295586
2024-07-07 19:38:39.2740,0.162,-0.098,-0.816,-0.7,-0.6,-1.29,49.2784185552985,-122.91058209951248,356.5088525842875,1.515149588295586
2024-07-07 19:38:39.2840,0.096,-0.11,-0.738,-0.05,-0.37,-2.14,49.2784185552985,-122.91058209951248,356.5088525842875,1.515149588295586
2024-07-07 19:38:39.2940,0.053,-0.121,-0.672,0.43,-0.2,-2.82,49.2784185552985,-122.91058209951248,356.5088525842875,1.515149588295586
2024-07-07 19:38:39.3040,0.029,-0.151,-0.605,0.7,0.05,-3.49,49.2784185552985,-122.91058209951248,356.5088525842875,1.515149588295586
2024-07-07 19:38:39.3140,0.014,-0.199,-0.55,0.89,0.49,-4.1,49.2784185552985,-122.91058209951248,356.5088525842875,1.515149588295586
2024-07-07 19:38:39.3240,0.003,-0.25,-0.526,1.06,0.98,-4.47,49.2784185552985,-122.91058209951248,356.5088525842875,1.515149588295586
2024-07-07 19:38:39.3340,-0.005,-0.297,-0.537,1.21,1.43,-4.45,49.2784185552985,-122.91058209951248,356.5088525842875,1.515149588295586
2024-07-07 19:38:39.3440,-0.012,-0.337,-0.554,1.35,1.81,-4.26,49.2784185552985,-122.91058209951248,356.5088525842875,1.515149588295586
2024-07-07 19:38:39.3550,-0.026,-0.369,-0.575,1.54,2.12,-4.07,49.2784185552985,-122.91058209951248,356.5088525842875,1.515149588295586
2024-07-07 19:38:39.3650,-0.038,-0.377,-0.615,1.74,2.28,-3.74,49.2784185552985,-122.91058209951248,356.5088525842875,1.515149588295586
2024-07-07 19:38:39.3750,-0.052,-0.35,-0.664,1.92,2.14,-3.26,49.2784185552985,-122.91058209951248,356.5088525842875,1.515149588295586
2024-07-07 19:38:39.3850,-0.06,-0.3,-0.706,2.05,1.71,-2.82,49.2784185552985,-122.91058209951248,356.5088525842875,1.515149588295586
2024-07-07 19:38:39.3950,-0.067,-0.255,-0.737,2.12,1.25,-2.47,49.2784185552985,-122.91058209951248,356.5088525842875,1.515149588295586
2024-07-07 19:38:39.4050,-0.082,-0.23,-0.755,2.22,0.98,-2.26,49.2784185552985,-122.91058209951248,356.5088525842875,1.515149588295586
2024-07-07 19:38:39.4150,-0.095,-0.215,-0.764,2.34,0.87,-2.15,49.2784185552985,-122.91058209951248,356.5088525842875,1.515149588295586
2024-07-07 19:38:39.4250,-0.1,-0.206,-0.756,2.36,0.8,-2.17,49.2784185552985,-122.91058209951248,356.5088525842875,1.515149588295586
2024-07-07 19:38:39.4350,-0.101,-0.214,-0.742,2.33,0.85,-2.31,49.2784185552985,-122.91058209951248,356.5088525842875,1.515149588295586
2024-07-07 19:38:39.4450,-0.097,-0.23,-0.714,2.26,1.01,-2.53,49.2784185552985,-122.91058209951248,356.5088525842875,1.515149588295586
2024-07-07 19:38:39.4550,-0.083,-0.24,-0.681,2.12,1.14,-2.88,49.2784185552985,-122.91058209951248,356.5088525842875,1.515149588295586
2024-07-07 19:38:39.4650,-0.068,-0.236,-0.673,1.91,1.12,-3.07,49.2784185552985,-122.91058209951248,356.5088525842875,1.515149588295586
2024-07-07 19:38:39.4750,-0.066,-0.224,-0.688,1.81,0.97,-2.97,49.2784185552985,-122.91058209951248,356.5088525842875,1.515149588295586
2024-07-07 19:38:39.4850,-0.067,-0.222,-0.71,1.8,0.85,-2.8,49.2784185552985,-122.91058209951248,356.5088525842875,1.515149588295586
2024-07-07 19:38:39.4950,-0.065,-0.22,-0.764,1.76,0.77,-2.4,49.2784185552985,-122.91058209951248,356.5088525842875,1.515149588295586
2024-07-07 19:38:39.5060,-0.063,-0.227,-0.816,1.71,0.73,-1.8,49.2784185552985,-122.91058209951248,356.5088525842875,1.515149588295586
2024-07-07 19:38:39.5160,-0.065,-0.244,-0.849,1.66,0.82,-1.44,49.2784185552985,-122.91058209951248,356.5088525842875,1.515149588295586
2024-07-07 19:38:39.5260,-0.067,-0.255,-0.881,1.65,0.91,-1.1,49.2784185552985,-122.91058209951248,356.5088525842875,1.515149588295586
2024-07-07 19:38:39.5360,-0.057,-0.254,-0.895,1.54,0.87,-0.9,49.2784185552985,-122.91058209951248,356.5088525842875,1.515149588295586
2024-07-07 19:38:39.5460,-0.047,-0.264,-0.922,1.36,0.84,-0.71,49.2784185552985,-122.91058209951248,356.5088525842875,1.515149588295586
2024-07-07 19:38:39.5560,-0.032,-0.287,-0.958,1.19,0.99,-0.35,49.2784185552985,-122.91058209951248,356.5088525842875,1.515149588295586
2024-07-07 19:38:39.5660,-0.011,-0.309,-0.992,0.93,1.16,-0.04,49.2784185552985,-122.91058209951248,356.5088525842875,1.515149588295586
2024-07-07 19:38:39.5760,-0.005,-0.318,-1.042,0.75,1.26,0.43,49.2784185552985,-122.91058209951248,356.5088525842875,1.515149588295586
2024-07-07 19:38:39.5860,-0.01,-0.309,-1.084,0.72,1.17,0.87,49.2784185552985,-122.91058209951248,356.5088525842875,1.515149588295586
2024-07-07 19:38:39.5960,-0.019,-0.287,-1.15,0.74,0.94,1.41,49.2784185552985,-122.91058209951248,356.5088525842875,1.515149588295586
2024-07-07 19:38:39.6060,-0.026,-0.249,-1.226,0.75,0.57,2.17,49.2784185552985,-122.91058209951248,356.5088525842875,1.515149588295586
2024-07-07 19:38:39.6170,-0.041,-0.218,-1.292,0.76,0.14,2.86,49.2784185552985,-122.91058209951248,356.5088525842875,1.515149588295586
2024-07-07 19:38:39.6270,-0.069,-0.222,-1.32,0.9,0.02,3.33,49.2784185552985,-122.91058209951248,356.5088525842875,1.515149588295586
2024-07-07 19:38:39.6370,-0.104,-0.259,-1.289,1.12,0.27,3.22,49.2784185552985,-122.91058209951248,356.5088525842875,1.515149588295586
2024-07-07 19:38:39.6470,-0.134,-0.321,-1.253,1.41,0.82,2.77,49.2784185552985,-122.91058209951248,356.5088525842875,1.515149588295586
2024-07-07 19:38:39.6570,-0.128,-0.36,-1.308,1.5,1.42,2.92,49.2784185552985,-122.91058209951248,356.5088525842875,1.515149588295586
2024-07-07 19:38:39.6670,-0.071,-0.325,-1.418,1.16,1.39,3.89,49.2784185552985,-122.91058209951248,356.5088525842875,1.515149588295586
2024-07-07 19:38:39.6770,0.013,-0.253,-1.518,0.45,0.78,4.95,49.2784185552985,-122.91058209951248,356.5088525842875,1.515149588295586
2024-07-07 19:38:39.6870,0.103,-0.186,-1.573,-0.3,0.13,5.66,49.2784185552985,-122.91058209951248,356.5088525842875,1.515149588295586
2024-07-07 19:38:39.6970,0.192,-0.118,-1.625,-1.07,-0.52,6.1,49.2784185552985,-122.91058209951248,356.5088525842875,1.515149588295586
2024-07-07 19:38:39.7070,0.254,-0.062,-1.712,-1.65,-1.15,6.86,49.2784185552985,-122.91058209951248,356.5088525842875,1.515149588295586
2024-07-07 19:38:39.7170,0.286,-0.031,-1.783,-1.92,-1.57,7.7,49.2784185552985,-122.91058209951248,356.5088525842875,1.515149588295586
2024-07-07 19:38:39.7270,0.298,-0.018,-1.799,-1.99,-1.76,8.07,49.2784185552985,-122.91058209951248,356.5088525842875,1.515149588295586
2024-07-07 19:38:39.7370,0.298,-0.002,-1.771,-1.94,-1.88,7.96,49.2784185552985,-122.91058209951248,356.5088525842875,1.515149588295586
2024-07-07 19:38:39.7470,0.298,0.014,-1.709,-1.91,-2.04,7.47,49.2784185552985,-122.91058209951248,356.5088525842875,1.515149588295586
2024-07-07 19:38:39.7580,0.289,0.023,-1.604,-1.86,-2.08,6.59,49.2784185552985,-122.91058209951248,356.5088525842875,1.515149588295586
2024-07-07 19:38:39.7680,0.271,0.03,-1.478,-1.78,-2.1,5.38,49.2784185552985,-122.91058209951248,356.5088525842875,1.515149588295586
2024-07-07 19:38:39.7780,0.239,0.028,-1.341,-1.6,-2.03,4.05,49.2784185552985,-122.91058209951248,356.5088525842875,1.515149588295586
2024-07-07 19:38:39.7880,0.205,0.03,-1.193,-1.38,-1.94,2.62,49.2784185552985,-122.91058209951248,356.5088525842875,1.515149588295586
2024-07-07 19:38:39.7980,0.164,0.037,-1.03,-1.14,-1.95,1.04,49.2784185552985,-122.91058209951248,356.5088525842875,1.515149588295586
2024-07-07 19:38:39.8080,0.116,0.032,-0.863,-0.82,-1.9,-0.6,49.2784185552985,-122.91058209951248,356.5088525842875,1.515149588295586
2024-07-07 19:38:39.8180,0.068,0.027,-0.71,-0.48,-1.83,-2.19,49.2784185552985,-122.91058209951248,356.5088525842875,1.515149588295586
2024-07-07 19:38:39.8280,0.019,0.019,-0.583,-0.1,-1.78,-3.53,49.2784185552985,-122.91058209951248,356.5088525842875,1.515149588295586
2024-07-07 19:38:39.8380,-0.024,0.002,-0.485,0.26,-1.67,-4.61,49.2784185552985,-122.91058209951248,356.5088525842875,1.515149588295586
2024-07-07 19:38:39.8480,-0.052,-0.016,-0.424,0.57,-1.52,-5.32,49.2784185552985,-122.91058209951248,356.5088525842875,1.515149588295586
2024-07-07 19:38:39.8580,-0.052,-0.027,-0.391,0.65,-1.46,-5.76,49.2784185552985,-122.91058209951248,356.5088525842875,1.515149588295586
2024-07-07 19:38:39.8680,-0.042,-0.052,-0.407,0.6,-1.34,-5.78,49.2784185552985,-122.91058209951248,356.5088525842875,1.515149588295586
2024-07-07 19:38:39.8780,-0.027,-0.082,-0.445,0.51,-1.09,-5.43,49.2784185552985,-122.91058209951248,356.5088525842875,1.515149588295586
2024-07-07 19:38:39.8890,-0.013,-0.103,-0.476,0.39,-0.91,-5.06,49.2784185552985,-122.91058209951248,356.5088525842875,1.515149588295586
2024-07-07 19:38:39.8990,-0.003,-0.12,-0.495,0.32,-0.79,-4.83,49.2784185552985,-122.91058209951248,356.5088525842875,1.515149588295586
2024-07-07 19:38:39.9090,0.003,-0.134,-0.51,0.27,-0.69,-4.66,49.2784185552985,-122.91058209951248,356.5088525842875,1.515149588295586
2024-07-07 19:38:39.9190,0.008,-0.141,-0.519,0.25,-0.65,-4.53,49.2784185552985,-122.91058209951248,356.5088525842875,1.515149588295586
2024-07-07 19:38:39.9290,0.008,-0.147,-0.528,0.25,-0.65,-4.45,49.2784185552985,-122.91058209951248,356.5088525842875,1.515149588295586
2024-07-07 19:38:39.9390,0.009,-0.154,-0.539,0.27,-0.61,-4.33,49.2784185552985,-122.91058209951248,356.5088525842875,1.515149588295586
2024-07-07 19:38:39.9490,0.008,-0.156,-0.549,0.25,-0.59,-4.23,49.2784185552985,-122.91058209951248,356.5088525842875,1.515149588295586
2024-07-07 19:38:39.9590,-0.006,-0.151,-0.561,0.34,-0.67,-4.11,49.2784185552985,-122.91058209951248,356.5088525842875,1.515149588295586
2024-07-07 19:38:39.9690,-0.018,-0.161,-0.576,0.47,-0.68,-3.98,49.2784185552985,-122.91058209951248,356.5088525842875,1.515149588295586
2024-07-07 19:38:39.9790,-0.027,-0.186,-0.588,0.56,-0.51,-3.82,49.2784185552985,-122.91058209951248,356.5088525842875,1.515149588295586
2024-07-07 19:38:39.9890,-0.032,-0.217,-0.596,0.61,-0.27,-3.73,49.2784185552985,-122.91058209951248,356.5088525842875,1.515149588295586
2024-07-07 19:38:39.9990,-0.03,-0.259,-0.61,0.61,0.06,-3.6,49.2784185552985,-122.91058209951248,356.5088525842875,1.515149588295586
2024-07-07 19:38:40.0090,-0.023,-0.296,-0.63,0.57,0.42,-3.42,49.2784185552985,-122.91058209951248,356.5088525842875,1.515149588295586
2024-07-07 19:38:40.0200,-0.007,-0.324,-0.658,0.44,0.66,-3.18,49.2784185552985,-122.91058209951248,356.5088525842875,1.515149588295586
2024-07-07 19:38:40.0300,0.006,-0.348,-0.708,0.33,0.85,-2.74,49.2784185552985,-122.91058209951248,356.5088525842875,1.515149588295586
2024-07-07 19:38:40.0400,0.02,-0.366,-0.761,0.2,0.98,-2.21,49.2784185552985,-122.91058209951248,356.5088525842875,1.515149588295586
2024-07-07 19:38:40.0500,0.02,-0.382,-0.826,0.19,1.1,-1.61,49.2784185552985,-122.91058209951248,356.5088525842875,1.515149588295586
2024-07-07 19:38:40.0600,0.023,-0.379,-0.901,0.22,1.09,-0.88,49.2784185552985,-122.91058209951248,356.5088525842875,1.515149588295586
2024-07-07 19:38:40.0700,0.024,-0.363,-0.985,0.24,0.93,-0.08,49.2784185552985,-122.91058209951248,356.5088525842875,1.515149588295586
2024-07-07 19:38:40.0800,0.038,-0.314,-1.07,0.22,0.57,0.79,49.2784185552985,-122.91058209951248,356.5088525842875,1.515149588295586
2024-07-07 19:38:40.0900,0.065,-0.242,-1.144,0.02,-0.13,1.55,49.2784185552985,-122.91058209951248,356.5088525842875,1.515149588295586
2024-07-07 19:38:40.1000,0.085,-0.211,-1.209,-0.17,-0.68,2.25,49.2784185552985,-122.91058209951248,356.5088525842875,1.515149588295586
2024-07-07 19:38:40.1100,0.104,-0.25,-1.226,-0.32,-0.59,2.66,49.2784185552985,-122.91058209951248,356.5088525842875,1.515149588295586
2024-07-07 19:38:40.1200,0.141,-0.329,-1.196,-0.52,0.06,2.5,49.2784185552985,-122.91058209951248,356.5088525842875,1.515149588295586
2024-07-07 19:38:40.1300,0.232,-0.386,-1.176,-1.12,0.67,2.24,49.2784185552985,-122.91058209951248,356.5088525842875,1.515149588295586
2024-07-07 19:38:40.1410,0.345,-0.451,-1.2,-2.16,1.13,2.32,49.2784185552985,-122.91058209951248,356.5088525842875,1.515149588295586
2024-07-07 19:38:40.1510,0.407,-0.567,-1.244,-2.9,2.04,2.78,49.2784185552985,-122.91058209951248,356.5088525842875,1.515149588295586
2024-07-07 19:38:40.1610,0.423,-0.673,-1.279,-3.07,3.23,3.12,49.2784185552985,-122.91058209951248,356.5088525842875,1.515149588295586
2024-07-07 19:38:40.1700,0.449,-0.658,-1.377,-3.18,3.61,3.79,49.27840526020419,-122.91058657398008,356.5207866318524,1.5690426379037319
2024-07-07 19:38:40.1800,0.495,-0.527,-1.515,-3.5,2.7,5.11,49.27840526020419,-122.91058657398008,356.5207866318524,1.5690426379037319
2024-07-07 19:38:40.1910,0.549,-0.382,-1.611,-4.02,1.32,6.23,49.27840526020419,-122.91058657398008,356.5207866318524,1.5690426379037319
2024-07-07 19:38:40.2010,0.573,-0.261,-1.661,-4.4,0.19,6.82,49.27840526020419,-122.91058657398008,356.5207866318524,1.5690426379037319
2024-07-07 19:38:40.2110,0.572,-0.152,-1.674,-4.5,-0.76,7.02,49.27840526020419,-122.91058657398008,356.5207866318524,1.5690426379037319
2024-07-07 19:38:40.2210,0.568,-0.053,-1.658,-4.54,-1.63,6.94,49.27840526020419,-122.91058657398008,356.5207866318524,1.5690426379037319
2024-07-07 19:38:40.2310,0.549,0.018,-1.585,-4.52,-2.31,6.42,49.27840526020419,-122.91058657398008,356.5207866318524,1.5690426379037319
2024-07-07 19:38:40.2410,0.507,0.042,-1.442,-4.31,-2.63,5.21,49.27840526020419,-122.91058657398008,356.5207866318524,1.5690426379037319
2024-07-07 19:38:40.2510,0.441,0.016,-1.275,-3.85,-2.46,3.58,49.27840526020419,-122.91058657398008,356.5207866318524,1.5690426379037319
2024-07-07 19:38:40.2610,0.367,-0.031,-1.112,-3.22,-1.99,1.93,49.27840526020419,-122.91058657398008,356.5207866318524,1.5690426379037319
2024-07-07 19:38:40.2720,0.298,-0.075,-0.979,-2.57,-1.53,0.48,49.27840526020419,-122.91058657398008,356.5207866318524,1.5690426379037319
2024-07-07 19:38:40.2820,0.243,-0.12,-0.883,-2.02,-1.12,-0.59,49.27840526020419,-122.91058657398008,356.5207866318524,1.5690426379037319
2024-07-07 19:38:40.2920,0.197,-0.159,-0.825,-1.53,-0.72,-1.3,49.27840526020419,-122.91058657398008,356.5207866318524,1.5690426379037319
2024-07-07 19:38:40.3020,0.169,-0.181,-0.794,-1.18,-0.49,-1.66,49.27840526020419,-122.91058657398008,356.5207866318524,1.5690426379037319
2024-07-07 19:38:40.3120,0.146,-0.19,-0.768,-0.94,-0.43,-1.9,49.27840526020419,-122.91058657398008,356.5207866318524,1.5690426379037319
2024-07-07 19:38:40.3220,0.119,-0.208,-0.727,-0.66,-0.36,-2.21,49.27840526020419,-122.91058657398008,356.5207866318524,1.5690426379037319
2024-07-07 19:38:40.3320,0.093,-0.231,-0.676,-0.38,-0.2,-2.68,49.27840526020419,-122.91058657398008,356.5207866318524,1.5690426379037319
2024-07-07 19:38:40.3420,0.07,-0.249,-0.623,-0.13,-0.05,-3.18,49.27840526020419,-122.91058657398008,356.5207866318524,1.5690426379037319
2024-07-07 19:38:40.3520,0.049,-0.267,-0.575,0.08,0.06,-3.68,49.27840526020419,-122.91058657398008,356.5207866318524,1.5690426379037319
2024-07-07 19:38:40.3620,0.024,-0.284,-0.547,0.33,0.22,-4.01,49.27840526020419,-122.91058657398008,356.5207866318524,1.5690426379037319
2024-07-07 19:38:40.3720,0.002,-0.288,-0.529,0.56,0.3,-4.21,49.27840526020419,-122.91058657398008,356.5207866318524,1.5690426379037319
2024-07-07 19:38:40.3820,-0.018,-0.291,-0.518,0.75,0.32,-4.35,49.27840526020419,-122.91058657398008,356.5207866318524,1.5690426379037319
2024-07-07 19:38:40.3920,-0.036,-0.301,-0.51,0.91,0.41,-4.44,49.27840526020419,-122.91058657398008,356.5207866318524,1.5690426379037319
2024-07-07 19:38:40.4020,-0.051,-0.305,-0.507,1.05,0.51,-4.51,49.27840526020419,-122.91058657398008,356.5207866318524,1.5690426379037319
2024-07-07 19:38:40.4120,-0.064,-0.298,-0.509,1.15,0.51,-4.5,49.27840526020419,-122.91058657398008,356.5207866318524,1.5690426379037319
2024-07-07 19:38:40.4230,-0.079,-0.29,-0.517,1.24,0.46,-4.47,49.27840526020419,-122.91058657398008,356.5207866318524,1.5690426379037319
2024-07-07 19:38:40.4330,-0.093,-0.278,-0.532,1.34,0.42,-4.35,49.27840526020419,-122.91058657398008,356.5207866318524,1.5690426379037319
2024-07-07 19:38:40.4430,-0.103,-0.256,-0.539,1.39,0.26,-4.25,49.27840526020419,-122.91058657398008,356.5207866318524,1.5690426379037319
2024-07-07 19:38:40.4530,-0.112,-0.247,-0.526,1.41,0.13,-4.31,49.27840526020419,-122.91058657398008,356.5207866318524,1.5690426379037319
2024-07-07 19:38:40.4630,-0.122,-0.263,-0.506,1.44,0.25,-4.51,49.27840526020419,-122.91058657398008,356.5207866318524,1.5690426379037319
2024-07-07 19:38:40.4730,-0.132,-0.279,-0.496,1.48,0.47,-4.67,49.27840526020419,-122.91058657398008,356.5207866318524,1.5690426379037319
2024-07-07 19:38:40.4830,-0.14,-0.288,-0.502,1.51,0.62,-4.7,49.27840526020419,-122.91058657398008,356.5207866318524,1.5690426379037319
2024-07-07 19:38:40.4930,-0.15,-0.296,-0.535,1.56,0.72,-4.47,49.27840526020419,-122.91058657398008,356.5207866318524,1.5690426379037319
2024-07-07 19:38:40.5030,-0.164,-0.3,-0.583,1.65,0.82,-4.06,49.27840526020419,-122.91058657398008,356.5207866318524,1.5690426379037319
2024-07-07 19:38:40.5130,-0.171,-0.297,-0.643,1.74,0.83,-3.51,49.27840526020419,-122.91058657398008,356.5207866318524,1.5690426379037319
2024-07-07 19:38:40.5230,-0.166,-0.296,-0.714,1.74,0.82,-2.87,49.27840526020419,-122.91058657398008,356.5207866318524,1.5690426379037319
2024-07-07 19:38:40.5330,-0.15,-0.31,-0.804,1.64,0.9,-2.06,49.27840526020419,-122.91058657398008,356.5207866318524,1.5690426379037319
2024-07-07 19:38:40.5430,-0.125,-0.331,-0.903,1.44,1.12,-1.11,49.27840526020419,-122.91058657398008,356.5207866318524,1.5690426379037319
2024-07-07 19:38:40.5540,-0.104,-0.336,-1.006,1.23,1.21,-0.12,49.27840526020419,-122.91058657398008,356.5207866318524,1.5690426379037319
2024-07-07 19:38:40.5640,-0.089,-0.323,-1.121,1.1,1.11,0.98,49.27840526020419,-122.91058657398008,356.5207866318524,1.5690426379037319
2024-07-07 19:38:40.5740,-0.076,-0.296,-1.227,0.99,0.84,2.11,49.27840526020419,-122.91058657398008,356.5207866318524,1.5690426379037319
2024-07-07 19:38:40.5840,-0.075,-0.28,-1.295,0.93,0.52,2.96,49.27840526020419,-122.91058657398008,356.5207866318524,1.5690426379037319
2024-07-07 19:38:40.5940,-0.085,-0.299,-1.291,0.99,0.49,3.24,49.27840526020419,-122.91058657398008,356.5207866318524,1.5690426379037319
2024-07-07 19:38:40.6040,-0.095,-0.335,-1.23,1.09,0.72,2.81,49.27840526020419,-122.91058657398008,356.5207866318524,1.5690426379037319
2024-07-07 19:38:40.6140,-0.103,-0.376,-1.165,1.17,1.0,2.17,49.27840526020419,-122.91058657398008,356.5207866318524,1.5690426379037319
2024-07-07 19:38:40.6240,-0.103,-0.423,-1.132,1.21,1.36,1.7,49.27840526020419,-122.91058657398008,356.5207866318524,1.5690426379037319
2024-07-07 19:38:40.6340,-0.083,-0.474,-1.16,1.13,1.78,1.78,49.27840526020419,-122.91058657398008,356.5207866318524,1.5690426379037319
2024-07-07 19:38:40.6440,-0.036,-0.524,-1.214,0.79,2.22,2.27,49.27840526020419,-122.91058657398008,356.5207866318524,1.5690426379037319
2024-07-07 19:38:40.6540,0.021,-0.569,-1.295,0.3,2.66,2.93,49.27840526020419,-122.91058657398008,356.5207866318524,1.5690426379037319
2024-07-07 19:38:40.6640,0.08,-0.586,-1.417,-0.2,2.94,4.03,49.27840526020419,-122.91058657398008,356.5207866318524,1.5690426379037319
2024-07-07 19:38:40.6750,0.133,-0.563,-1.535,-0.7,2.83,5.25,49.27840526020419,-122.91058657398008,356.5207866318524,1.5690426379037319
2024-07-07 19:38:40.6840,0.176,-0.507,-1.642,-1.09,2.4,6.33,49.27840526020419,-122.91058657398008,356.5207866318524,1.5690426379037319
2024-07-07 19:38:40.6940,0.203,-0.428,-1.729,-1.37,1.69,7.32,49.27840526020419,-122.91058657398008,356.5207866318524,1.5690426379037319
2024-07-07 19:38:40.7050,0.224,-0.338,-1.739,-1.56,0.82,7.73,49.27840526020419,-122.91058657398008,356.5207866318524,1.5690426379037319
2024-07-07 19:38:40.7150,0.229,-0.26,-1.691,-1.68,-0.04,7.44,49.27840526020419,-122.91058657398008,356.5207866318524,1.5690426379037319
2024-07-07 19:38:40.7250,0.21,-0.227,-1.592,-1.55,-0.57,6.66,49.27840526020419,-122.91058657398008,356.5207866318524,1.5690426379037319
2024-07-07 19:38:40.7350,0.188,-0.228,-1.488,-1.3,-0.67,5.57,49.27840526020419,-122.91058657398008,356.5207866318524,1.5690426379037319
2024-07-07 19:38:40.7450,0.181,-0.237,-1.431,-1.14,-0.59,4.84,49.27840526020419,-122.91058657398008,356.5207866318524,1.5690426379037319
2024-07-07 19:38:40.7550,0.19,-0.239,-1.409,-1.15,-0.54,4.51,49.27840526020419,-122.91058657398008,356.5207866318524,1.5690426379037319
2024-07-07 19:38:40.7650,0.199,-0.225,-1.416,-1.22,-0.61,4.5,49.27840526020419,-122.91058657398008,356.5207866318524,1.5690426379037319
2024-07-07 19:38:40.7750,0.198,-0.204,-1.409,-1.25,-0.81,4.53,49.27840526020419,-122.91058657398008,356.5207866318524,1.5690426379037319
2024-07-07 19:38:40.7850,0.181,-0.188,-1.363,-1.15,-0.96,4.22,49.27840526020419,-122.91058657398008,356.5207866318524,1.5690426379037319
2024-07-07 19:38:40.7950,0.154,-0.166,-1.287,-0.95,-1.09,3.55,49.27840526020419,-122.91058657398008,356.5207866318524,1.5690426379037319
2024-07-07 19:38:40.8050,0.119,-0.138,-1.191,-0.71,-1.32,2.67,49.27840526020419,-122.91058657398008,356.5207866318524,1.5690426379037319
2024-07-07 19:38:40.8160,0.081,-0.11,-1.079,-0.43,-1.55,1.59,49.27840526020419,-122.91058657398008,356.5207866318524,1.5690426379037319
2024-07-07 19:38:40.8260,0.043,-0.087,-0.963,-0.16,-1.76,0.45,49.27840526020419,-122.91058657398008,356.5207866318524,1.5690426379037319
2024-07-07 19:38:40.8360,0.012,-0.072,-0.844,0.07,-1.88,-0.73,49.27840526020419,-122.91058657398008,356.5207866318524,1.5690426379037319
2024-07-07 19:38:40.8460,-0.014,-0.061,-0.731,0.24,-1.96,-1.9,49.27840526020419,-122.91058657398008,356.5207866318524,1.5690426379037319
2024-07-07 19:38:40.8560,-0.031,-0.059,-0.643,0.35,-1.99,-2.88,49.27840526020419,-122.91058657398008,356.5207866318524,1.5690426379037319
2024-07-07 19:38:40.8660,-0.038,-0.059,-0.587,0.38,-1.99,-3.55,49.27840526020419,-122.91058657398008,356.5207866318524,1.5690426379037319
2024-07-07 19:38:40.8760,-0.033,-0.062,-0.555,0.31,-1.98,-3.93,49.27840526020419,-122.91058657398008,356.5207866318524,1.5690426379037319
2024-07-07 19:38:40.8860,-0.025,-0.069,-0.528,0.2,-1.97,-4.19,49.27840526020419,-122.91058657398008,356.5207866318524,1.5690426379037319
2024-07-07 19:38:40.8960,-0.016,-0.083,-0.505,0.09,-1.9,-4.41,49.27840526020419,-122.91058657398008,356.5207866318524,1.5690426379037319
2024-07-07 19:38:40.9060,-0.004,-0.095,-0.496,-0.04,-1.82,-4.55,49.27840526020419,-122.91058657398008,356.5207866318524,1.5690426379037319
2024-07-07 19:38:40.9160,0.003,-0.108,-0.494,-0.14,-1.78,-4.56,49.27840526020419,-122.91058657398008,356.5207866318524,1.5690426379037319
2024-07-07 19:38:40.9260,0.011,-0.124,-0.489,-0.21,-1.7,-4.57,49.27840526020419,-122.91058657398008,356.5207866318524,1.5690426379037319
2024-07-07 19:38:40.9360,0.017,-0.144,-0.483,-0.28,-1.59,-4.61,49.27840526020419,-122.91058657398008,356.5207866318524,1.5690426379037319
2024-07-07 19:38:40.9470,0.024,-0.165,-0.471,-0.34,-1.46,-4.67,49.27840526020419,-122.91058657398008,356.5207866318524,1.5690426379037319
2024-07-07 19:38:40.9570,0.033,-0.196,-0.454,-0.42,-1.28,-4.81,49.27840526020419,-122.91058657398008,356.5207866318524,1.5690426379037319
2024-07-07 19:38:40.9670,0.043,-0.231,-0.445,-0.5,-1.01,-4.92,49.27840526020419,-122.91058657398008,356.5207866318524,1.5690426379037319
2024-07-07 19:38:40.9770,0.053,-0.262,-0.449,-0.57,-0.77,-4.89,49.27840526020419,-122.91058657398008,356.5207866318524,1.5690426379037319
2024-07-07 19:38:40.9870,0.064,-0.296,-0.455,-0.66,-0.53,-4.8,49.27840526020419,-122.91058657398008,356.5207866318524,1.5690426379037319
2024-07-07 19:38:40.9970,0.072,-0.324,-0.467,-0.7,-0.31,-4.68,49.27840526020419,-122.91058657398008,356.5207866318524,1.5690426379037319
2024-07-07 19:38:41.0070,0.082,-0.345,-0.488,-0.73,-0.17,-4.48,49.27840526020419,-122.91058657398008,356.5207866318524,1.5690426379037319
2024-07-07 19:38:41.0170,0.096,-0.365,-0.527,-0.79,-0.08,-4.14,49.27840526020419,-122.91058657398008,356.5207866318524,1.5690426379037319
2024-07-07 19:38:41.0280,0.109,-0.385,-0.588,-0.87,0.05,-3.58,49.27840526020419,-122.91058657398008,356.5207866318524,1.5690426379037319
2024-07-07 19:38:41.0370,0.11,-0.399,-0.647,-0.89,0.13,-2.92,49.27840526020419,-122.91058657398008,356.5207866318524,1.5690426379037319
2024-07-07 19:38:41.0470,0.095,-0.407,-0.685,-0.75,0.15,-2.45,49.27840526020419,-122.91058657398008,356.5207866318524,1.5690426379037319
2024-07-07 19:38:41.0580,0.072,-0.416,-0.718,-0.5,0.17,-2.09,49.27840526020419,-122.91058657398008,356.5207866318524,1.5690426379037319
