time,ax,ay,az,speed
1970-01-01 00:00:00.000000000,0.29209601325323875,0.5526985065887355,-1.0018869168539988,0.4380959945947161
1970-01-01 00:00:00.000000025,0.7757795069209279,0.5828231733635701,-1.7010334222158743,0.4410292379335023
1970-01-01 00:00:00.000000025,0.9284020232945712,0.5532861284870211,-1.8062565287152597,0.4409194720016602
1970-01-01 00:00:00.000000025,0.8899814878695587,0.4814940534989718,-1.6923010953831623,0.44085535195675896
1970-01-01 00:00:00.000000025,0.8802372935287442,0.574107673807379,-1.5088186888079609,0.44069647678545454
1970-01-01 00:00:00.000000025,0.8909630623736956,0.6503405441822594,-1.414876097549791,0.44034401426496755
1970-01-01 00:00:00.000000025,0.853169312658243,0.6250609415998397,-1.5528620225501784,0.4400329189873451
1970-01-01 00:00:00.000000025,0.765830898186224,0.6246336488922551,-1.8640697414261793,0.44034065640465436
1970-01-01 00:00:00.000000025,0.7643974835170237,0.6304919418409533,-1.886576632606765,0.4410762554206864
1970-01-01 00:00:00.000000025,0.8989467562994826,0.7695760107450232,-2.2025721090249353,0.44111255801787874
1970-01-01 00:00:00.000000025,0.8981966849459909,0.7682356637942126,-2.212694995546941,0.44060521471403796
1970-01-01 00:00:00.000000025,0.8017977547791468,0.606435193626621,-2.1565444888145486,0.44034360932151206
1970-01-01 00:00:00.000000025,0.7409653689299581,0.49372310209628234,-1.8757976644741439,0.43834786307097046
1970-01-01 00:00:00.000000025,0.38509335341621337,0.6651220386761021,-0.7989589762842243,0.43754925743026113
1970-01-01 00:00:00.000000026,0.388119882898039,0.673263442596572,-0.7374031947618119,0.43564067611663837
1970-01-01 00:00:00.000000026,0.05908152887224487,0.7699873914772095,-0.10393080223883297,0.4332125658973044
1970-01-01 00:00:00.000000026,-0.34104659049425223,-0.3115232849594783,0.25335212206574437,0.43464627899546976
1970-01-01 00:00:00.000000026,-0.22106114371531285,-1.3989093362755698,-0.27335515287850487,0.43591080422039424
1970-01-01 00:00:00.000000026,-0.2261013376350795,-1.4563926209944427,-0.38130507629890487,0.43904869657410567
1970-01-01 00:00:00.000000026,0.32290463996238516,-2.002650725673741,-2.8508412022912584,0.4409117963135737
1970-01-01 00:00:00.000000026,0.3087195534616899,-1.992126943972877,-2.9683573573413526,0.44008692024851814
1970-01-01 00:00:00.000000026,0.1670191798605847,-1.1440182632277918,-3.6540489475591156,0.43366063689503087
1970-01-01 00:00:00.000000026,-1.0021878136707147,0.6612240440071749,-3.633374019570067,0.42780757123445556
1970-01-01 00:00:00.000000026,-1.9725058004130942,1.4560750188506653,-3.738042013403535,0.42761844199687954
1970-01-01 00:00:00.000000026,-1.9841826062600683,1.4827847416073914,-3.7637770656787715,0.424340727460356
1970-01-01 00:00:00.000000026,-2.608665055141292,1.6227638816238161,-4.090287882848381,0.42469916464010327
1970-01-01 00:00:00.000000026,-2.615684749435435,1.6100433213095768,-4.145792512153605,0.42220706502882654
1970-01-01 00:00:00.000000026,-3.0974283282165485,1.193651360744783,-5.250864378288942,0.4216042462806994
1970-01-01 00:00:00.000000026,-3.482964686116296,0.7280491832300968,-6.5180399372173055,0.42208043711305177
1970-01-01 00:00:00.000000026,-3.7040530097112803,0.061705057993187776,-7.388185455052963,0.4240631154295091
1970-01-01 00:00:00.000000026,-3.579447715239563,-0.7673524259545155,-7.918307157753214,0.4237509590756613
1970-01-01 00:00:00.000000026,-3.826922095624289,-1.7253649025107325,-7.101252148029447,0.42353552400017747
1970-01-01 00:00:00.000000026,-3.941511579253604,-2.504207484190639,-6.502208381397216,0.426467734706217
1970-01-01 00:00:00.000000026,-3.449241435303601,-2.9009770322975594,-7.471114011356406,0.429820539539116
1970-01-01 00:00:00.000000026,-2.937544194858878,-2.675450978460666,-8.32114851584296,0.42687533036516717
1970-01-01 00:00:00.000000026,-3.459098511354279,-2.867536411396042,-8.73123294165913,0.415943443197242
1970-01-01 00:00:00.000000026,-5.684212430021942,-3.9854452624717487,-8.409554042192791,0.41765159085354114
1970-01-01 00:00:00.000000026,-5.702517315013417,-4.0355572591162145,-8.372797781321246,0.41604501420578266
1970-01-01 00:00:00.000000026,-6.028867197452667,-4.224862024028585,-7.656247343843368,0.4167695904725369
1970-01-01 00:00:00.000000026,-5.862254253843031,-4.305620314038125,-7.365783426832205,0.4182980923026499
1970-01-01 00:00:00.000000026,-5.434818421284272,-5.600007121329264,-8.543025846954679,0.4056253235029529
1970-01-01 00:00:00.000000026,-5.310000205556366,-7.027203762230728,-8.928546241322811,0.0024209300308180755
1970-01-01 00:00:00.000000026,-5.339298055395185,-9.555379751071854,-8.19860796093262,-0.011145504842314809
1970-01-01 00:00:00.000000026,-5.348016515895783,-9.675047319027557,-8.140866506176174,-0.01034736309157638
1970-01-01 00:00:00.000000026,-5.108270887750795,-10.413462140399648,-7.347351983551534,-0.010797576357720932
1970-01-01 00:00:00.000000026,-5.113127143183605,-10.474330002494158,-7.223536580446458,-0.01708672929809578
1970-01-01 00:00:00.000000026,-6.286570825955065,-11.211151195184222,-4.50583895674446,-0.018247382932464442
1970-01-01 00:00:00.000000026,-6.2904733902458965,-11.277541091252374,-4.234904075426541,-0.026381433651031554
1970-01-01 00:00:00.000000026,-7.781671683089841,-12.116935076009527,0.5789521128482863,-0.028528133025034028
1970-01-01 00:00:00.000000026,-7.769292931150026,-12.165606274678044,0.8307108086570799,-0.029778471698160558
1970-01-01 00:00:00.000000026,-7.960365529975458,-12.60877202984476,2.8459020313457994,-0.029828292372398976
1970-01-01 00:00:00.000000026,-7.752440283035158,-12.77717575083985,4.502706817970125,-0.03152264206600325
1970-01-01 00:00:00.000000026,-7.796365487239299,-12.590271142444017,5.511884154234779,-0.03658094302251741
1970-01-01 00:00:00.000000026,-8.569778791715455,-12.492004418637695,7.23630602287979,-0.038022143031091665
1970-01-01 00:00:00.000000026,-8.575949085692484,-12.503568940603282,7.308657683690093,-0.04973769864646045
1970-01-01 00:00:00.000000026,-10.743955077927813,-12.60439669458865,7.8474117198150095,-0.054935437361036156
1970-01-01 00:00:00.000000026,-11.86354231640743,-12.440914875252462,8.445685689352883,-0.0592921720637822
1970-01-01 00:00:00.000000026,-12.702098429171924,-12.06398260591491,8.922424224025752,-0.05963087704816353
1970-01-01 00:00:00.000000026,-12.706093646009618,-12.049424282728411,8.946959561064126,-0.06355030651494763
1970-01-01 00:00:00.000000026,-13.445687728256578,-11.927301497726377,9.23865545473152,-0.06305586882959319
1970-01-01 00:00:00.000000026,-13.378901293776183,-11.910657350717498,9.073796521853145,-0.06189934671781454
1970-01-01 00:00:00.000000026,-13.1602010384737,-11.36616846264213,8.298129144307394,-0.06394798354739648
1970-01-01 00:00:00.000000026,-13.529859909722134,-11.379253183633482,7.572328331433051,-0.0680582520753376
1970-01-01 00:00:00.000000026,-14.454012583677939,-11.667968092578294,7.360435207268563,-0.06792541960314023
1970-01-01 00:00:00.000000026,-14.61820481502256,-11.080702849751937,7.98460473104671,-0.06574561098090823
1970-01-01 00:00:00.000000026,-14.055035794271468,-9.869752271538571,8.115149110177972,-0.06594949769599048
1970-01-01 00:00:00.000000026,-13.833505666103154,-9.504266791573968,7.522762933974067,-0.06654913659528194
1970-01-01 00:00:00.000000026,-13.915006473965745,-8.835621571296116,6.659279636784315,-0.07104766071414315
1970-01-01 00:00:00.000000026,-14.784626054863052,-9.529515495224611,5.305787397398924,-0.073737564490074
1970-01-01 00:00:00.000000026,-15.692691201251517,-9.363190020539367,3.4450868722156605,-0.07175980128884198
1970-01-01 00:00:00.000000026,-15.668636719291749,-8.23469573262995,2.5034774791322736,-0.07185774360030658
1970-01-01 00:00:00.000000026,-15.667906435343275,-8.177501665007837,2.4448981598171495,-0.07230618045801304
1970-01-01 00:00:00.000000026,-15.745604060663997,-7.750711269536934,1.8159107889754953,-0.07327117572131166
1970-01-01 00:00:00.000000026,-15.9258869829372,-7.764583569985733,0.9118121850249313,-0.07889652151371015
1970-01-01 00:00:00.000000026,-17.117597088933845,-5.16857572109184,-1.4725123943163154,-0.08246550616280082
1970-01-01 00:00:00.000000026,-17.799867736307235,-4.110265222283127,-1.8679511543546001,-0.09597646767109443
1970-01-01 00:00:00.000000026,-20.25424416754656,-1.4079560965580045,-1.5615395892633053,-0.10826993696219099
1970-01-01 00:00:00.000000026,-22.34706870106993,2.0551793316711606,-0.3338890393005156,-0.11758311385389726
1970-01-01 00:00:00.000000026,-23.667808677531795,5.598174319132092,0.7469117956021735,-0.11609786964023591
1970-01-01 00:00:00.000000026,-22.902012194221438,9.253869831624334,1.4088500672882076,-0.10871681970346284
1970-01-01 00:00:00.000000026,-20.8429119420048,9.974643733807076,-0.7396273797384362,-0.10092366327106929
1970-01-01 00:00:00.000000026,-19.442740470992344,11.093371856293448,-2.721928445099279,-0.0843612134886513
1970-01-01 00:00:00.000000026,-16.286074883506874,15.88984517763822,-6.033991846419907,-0.0833803094003525
1970-01-01 00:00:00.000000026,-15.663381742747315,17.031383670635073,-6.8469156775415385,-0.06797140962422726
1970-01-01 00:00:00.000000026,-12.69075127069737,17.902642214470866,-10.137603162239547,-0.05671946549166856
1970-01-01 00:00:00.000000026,-10.674845537794221,15.759391196096649,-11.94893462690788,-0.044019082632586186
1970-01-01 00:00:00.000000026,-8.61031255316289,16.18720681706865,-12.02234502734327,-0.04550902865822772
1970-01-01 00:00:00.000000026,-8.601596714193358,16.179286052506225,-12.020287923611049,-0.050631503390190714
1970-01-01 00:00:00.000000026,-9.42843942658953,15.655339148288812,-11.773606362465616,-0.06971901518749386
1970-01-01 00:00:00.000000026,-13.08173937821708,13.264280640382268,-11.867674173869943,-0.08237221758155591
1970-01-01 00:00:00.000000026,-16.245254728039423,10.05545866972956,-12.078375804325713,-0.07911033181735075
1970-01-01 00:00:00.000000026,-16.3065979198992,9.683563704396994,-12.048012280843261,-0.10314647940580926
1970-01-01 00:00:00.000000026,-20.98479171601847,3.5089215812678827,-10.359795546163863,-0.09768437986089874
1970-01-01 00:00:00.000000026,-21.041383504861155,3.2377087772322337,-10.236077678184692,-0.10394198944206587
1970-01-01 00:00:00.000000026,-22.24206134577712,2.25636196051647,-8.417155208308811,-0.11160277856081705
1970-01-01 00:00:00.000000026,-23.61235746710827,1.7188731436888347,-6.242303959176839,-0.12452404472362066
1970-01-01 00:00:00.000000026,-25.857032156554965,0.5129096063035957,-4.015355002244341,-0.1408497417553984
1970-01-01 00:00:00.000000026,-28.82601104721654,-1.1128747569663608,-2.91484208489503,-0.17097996614676175
1970-01-01 00:00:00.000000026,-34.71151035304142,-3.786265522086093,-3.661118767612163,-0.20134682189788558
1970-01-01 00:00:00.000000026,-41.45385627668756,-7.071062403986813,-3.1401327052620034,-0.22015228972475287
1970-01-01 00:00:00.000000026,-46.11894165514254,-10.11594623686629,-0.8559911257703414,-0.22629185197880144
1970-01-01 00:00:00.000000026,-48.19486760063678,-15.857528002082251,3.9803302987836533,-0.1877697243820473
1970-01-01 00:00:00.000000026,-41.24491806338788,-23.885006301793705,14.727212710489745,-0.1911871887757396
1970-01-01 00:00:00.000000026,-40.795926385301826,-27.503179489034558,15.438875541752452,-0.18982171525004388
1970-01-01 00:00:00.000000027,-40.81603954291826,-27.71334555218066,15.359921266785184,-0.19650477301673944
1970-01-01 00:00:00.000000027,-42.076202070381946,-29.596568274891037,12.689580806399759,-0.20522501124965692
1970-01-01 00:00:00.000000027,-44.44463177355111,-27.264189144247762,8.138569231637902,-0.21476180509437637
1970-01-01 00:00:00.000000027,-46.85325738851,-22.65690643485933,4.431420632762873,-0.21371154135920992
1970-01-01 00:00:00.000000027,-46.85403956428609,-22.623125677954448,4.358946771959177,-0.2062908926047663
1970-01-01 00:00:00.000000027,-45.493937136254544,-26.512711213231757,5.914917866813952,-0.20136690229047396
1970-01-01 00:00:00.000000027,-44.80889627991478,-33.43253041099201,7.631382300328465,-0.19306880092709006
1970-01-01 00:00:00.000000027,-44.054026799629874,-37.577091095082125,8.7209230305249,-0.17297193427066393
1970-01-01 00:00:00.000000027,-40.735066213407784,-36.57942321396181,8.403045466107384,-0.15766748211721301
1970-01-01 00:00:00.000000027,-37.581543005874934,-36.86557566920381,6.613064567057431,-0.13229007021110764
1970-01-01 00:00:00.000000027,-32.72183982563164,-37.00920145343348,4.9316162455507735,-0.13224601247514892
1970-01-01 00:00:00.000000027,-32.674272534613365,-37.04614976103661,4.8772878752768385,-0.10163845415449053
1970-01-01 00:00:00.000000027,-27.028207776821652,-38.704619204550205,4.287379276928692,-0.0797693596912757
1970-01-01 00:00:00.000000027,-22.68300953165825,-41.745895798005435,3.1146255656113415,-0.06946129369644682
1970-01-01 00:00:00.000000027,-20.991465006820118,-46.189967444316615,1.5521108918574453,-0.05108567283288932
1970-01-01 00:00:00.000000027,-18.374009643556107,-47.84863111388632,2.326962599196469,-0.025257788134771843
1970-01-01 00:00:00.000000027,-13.448744506116263,-43.6043348418586,4.894617075202537,-0.012136818050634738
1970-01-01 00:00:00.000000027,-9.62482553731277,-38.40594642522047,8.390161622347396,0.010026891842999576
1970-01-01 00:00:00.000000027,-4.3411806039117575,-33.291931417761646,11.954033949509704,0.09715011914417897
1970-01-01 00:00:00.000000027,14.077841573422099,-28.500483887127768,7.344472981630675,0.08874429226589234
1970-01-01 00:00:00.000000027,14.223256111156125,-28.388902601108928,6.928967488097655,0.13117670561403252
1970-01-01 00:00:00.000000027,22.157182539578056,-31.30011848195252,-0.8125829421332683,0.15279462017372616
1970-01-01 00:00:00.000000027,25.624587060273097,-33.81314972659166,-8.217560240678374,0.14542472409408394
1970-01-01 00:00:00.000000027,23.20730819132537,-29.040487111170346,-1.447106531330849,0.1381099552185066
1970-01-01 00:00:00.000000027,23.24683174232167,-28.73618804337524,-0.8105018736220595,0.127358298438071
1970-01-01 00:00:00.000000027,21.480785064349607,-25.021546374465483,9.878599629030933,0.11560778810515866
1970-01-01 00:00:00.000000027,21.135624589459724,-22.975186222079177,18.903069702570846,0.11442982551485012
1970-01-01 00:00:00.000000027,22.504477988290052,-21.665492502948137,22.897271459106133,0.11698661951998816
1970-01-01 00:00:00.000000027,23.894738617837756,-21.412714694022185,21.153656356793014,0.12460556502318855
1970-01-01 00:00:00.000000027,25.25713905824968,-21.34335383417639,16.385900575779623,0.1318140375804758
1970-01-01 00:00:00.000000027,26.08635983058132,-20.65904076934341,10.71445724865373,0.1331715090466239
1970-01-01 00:00:00.000000027,25.732240728628454,-20.7858410223019,4.06935105366482,0.12872262247207147
1970-01-01 00:00:00.000000027,23.908954231944367,-21.528723266007802,-2.56203523290347,0.12228286449943557
1970-01-01 00:00:00.000000027,21.616579615754596,-21.819958995309932,-6.324574177459645,0.09264288361152068
1970-01-01 00:00:00.000000027,15.157135146232966,-18.14971784168425,-1.741015792830879,0.08952675868758227
1970-01-01 00:00:00.000000027,15.149788129207167,-17.97458176691112,-1.435011265720443,0.07242056420681196
1970-01-01 00:00:00.000000027,12.082526064695008,-16.469982500080814,2.689718983214029,0.059835839731404904
1970-01-01 00:00:00.000000027,10.242189645953335,-14.95707417087191,6.065295376898128,0.05101867294002144
1970-01-01 00:00:00.000000027,9.187501989525012,-13.151253507629258,8.543022798866994,0.037434935480732144
1970-01-01 00:00:00.000000027,7.154602903492583,-9.802202732186835,10.420887995441936,0.03429238797099908
1970-01-01 00:00:00.000000027,7.164291481937917,-9.620292418389496,10.45888092109097,0.02638738276199306
1970-01-01 00:00:00.000000027,5.773480258401257,-7.85515982718708,9.80942961115668,0.01869968374526986
1970-01-01 00:00:00.000000027,4.380563360782704,-6.4358213113542835,8.428920184446767,0.011705682667690172
1970-01-01 00:00:00.000000027,2.954207864359045,-5.703259163459556,7.230171784825054,0.006110164201387654
1970-01-01 00:00:00.000000027,1.6913452709256211,-5.702049183745561,6.135844924137868,0.003395669077957975
1970-01-01 00:00:00.000000027,0.9056615316714747,-5.587884999167522,5.10182496540044,-0.00024330059347936028
1970-01-01 00:00:00.000000027,0.0176889434939682,-5.664856990615174,4.369417944836352,-0.003975981939549737
1970-01-01 00:00:00.000000027,-0.8833613773782886,-4.763432923875302,4.4722803687479304,-0.007287388207505074
1970-01-01 00:00:00.000000027,-1.4659130397566948,-3.263005122439688,4.066978842936054,-0.007956668084793199
1970-01-01 00:00:00.000000027,-1.467249618538418,-3.142302051749646,4.031551720772135,-0.012139319835310526
1970-01-01 00:00:00.000000027,-2.21176425121061,-1.276080133765349,3.5879877589470186,-0.016734826433181724
1970-01-01 00:00:00.000000027,-2.9494456358198287,0.3599495723327657,3.015928903044903,-0.017889861613062354
1970-01-01 00:00:00.000000027,-3.083252287475367,1.4421858261639389,2.0395598626792797,-0.01882419770560236
1970-01-01 00:00:00.000000027,-3.2648789787530315,1.8018200437185081,0.5249396989205786,-0.017611166813276357
1970-01-01 00:00:00.000000027,-3.231709192026078,1.647888858544993,-0.6752544875144498,-0.01574380194365162
1970-01-01 00:00:00.000000027,-3.0501201660210664,2.5794839531050835,-1.368506045701929,-0.019166669556532977
1970-01-01 00:00:00.000000027,-3.628215500614091,4.227277174816665,-1.0453094469132345,-0.022656976558333358
1970-01-01 00:00:00.000000027,-4.060794356780947,6.125905379780082,-1.5359434081201804,-0.023666084683246828
1970-01-01 00:00:00.000000027,-4.06210747697747,6.26103059349463,-1.586300058082559,-0.02746479564023476
1970-01-01 00:00:00.000000027,-4.7383176004984655,8.108718651144885,-2.3573601535389708,-0.031085391033174342
1970-01-01 00:00:00.000000027,-5.333367285302118,9.203980505354961,-3.532816569531968,-0.032233244317785945
1970-01-01 00:00:00.000000027,-5.624963803862224,9.456174089853654,-4.971268127409559,-0.03179310913244113
1970-01-01 00:00:00.000000027,-5.731252080690412,8.905303252861028,-6.898839538358803,-0.03359737009081194
1970-01-01 00:00:00.000000027,-6.4721324110537015,6.832649461997586,-11.451763683674626,-0.029700158715990056
1970-01-01 00:00:00.000000027,-6.779930490380886,6.56633068810109,-13.308681453828846,-0.02820844821361435
1970-01-01 00:00:00.000000027,-6.803243250473072,6.652404927373417,-13.438509759062672,-0.03780213241001731
1970-01-01 00:00:00.000000027,-8.639969747269735,9.502795989178797,-14.826888402665714,-0.03825548865922644
1970-01-01 00:00:00.000000027,-8.65107071682829,9.621249817259987,-14.939314076105797,-0.04693302458323126
1970-01-01 00:00:00.000000027,-10.304156040165905,10.20429849709718,-16.35124223193441,-0.04558675483168941
1970-01-01 00:00:00.000000027,-10.329355519528255,9.956418832316702,-16.407616958170575,-0.04730012791956728
1970-01-01 00:00:00.000000027,-10.916033812653517,2.832466524458499,-16.440959089666354,-0.01806014999188689
1970-01-01 00:00:00.000000027,-6.443899198601255,1.9400980576564801,-13.3283577332272,-0.02040319226761847
1970-01-01 00:00:00.000000027,-6.372846031866655,1.8457157636034045,-13.129164976131177,0.01270869010312967
1970-01-01 00:00:00.000000027,-0.06355070169703081,-0.7046933940037139,-11.75801757595373,0.014616871412958208
1970-01-01 00:00:00.000000027,0.7510718658676859,-9.983270481364254,-13.698142654280172,0.021113758386081725
1970-01-01 00:00:00.000000027,0.6684780751792492,-10.40363598877336,-13.651860475552978,-0.0045717809308682585
1970-01-01 00:00:00.000000027,-4.07874588245757,-11.808520050167102,-9.795709020300835,-0.03817067817019114
1970-01-01 00:00:00.000000027,-10.44198844922781,-8.960909007631543,-0.8667867144627385,-0.0605401715574949
1970-01-01 00:00:00.000000027,-13.974058837901765,-5.80804179043843,13.970449095253048,-0.018432588436014846
1970-01-01 00:00:00.000000027,-3.8471044898285194,-8.426525384796555,36.998606235704464,-0.007445766805437562
1970-01-01 00:00:00.000000027,2.1568205996492704,-12.263863667443966,40.68619920039227,0.011676816313817425
1970-01-01 00:00:00.000000027,6.509646886187951,-17.004365773308155,36.72220003776928,0.01614767016085325
1970-01-01 00:00:00.000000027,6.5004474426060534,-17.247474992762776,36.16973903849152,0.03084749714266618
1970-01-01 00:00:00.000000027,9.055911307828868,-19.450951752931676,24.837261279856907,0.04324203104625975
1970-01-01 00:00:00.000000027,9.632047541738562,-17.256313049902445,8.608224804135045,0.05859662759629635
1970-01-01 00:00:00.000000027,10.643646050185197,-15.71442828909054,7.839880737133129,0.043939219397691735
1970-01-01 00:00:00.000000027,8.027031241061216,-21.869546462262516,18.23225939173919,0.04146658942103401
1970-01-01 00:00:00.000000027,8.017616623040837,-22.065449549646985,18.62899948217536,0.02353533732056414
1970-01-01 00:00:00.000000027,4.705676426727593,-20.724442204190133,19.42387580101152,0.017136692250203218
1970-01-01 00:00:00.000000027,3.588376263702767,-20.18618361961053,18.37395348901176,-0.00253830268898157
1970-01-01 00:00:00.000000027,-0.20146579613290352,-18.11283378146009,12.987550146140185,-0.02098912101862181
1970-01-01 00:00:00.000000027,-4.206996256491338,-16.369585196093343,6.280643740491811,-0.0734246810952213
1970-01-01 00:00:00.000000027,-15.176313229256252,-10.745795376649168,-1.5399980164502585,-0.09130613214129857
1970-01-01 00:00:00.000000027,-19.98321486186165,-5.479517059533945,-2.323217270748471,-0.1044679728196
1970-01-01 00:00:00.000000027,-22.498974909306185,-1.562285146990838,-7.04798820998197,-0.0904490502114041
1970-01-01 00:00:00.000000028,-20.24469684854474,2.048456521759565,-15.84682596778647,-0.08701795191006582
1970-01-01 00:00:00.000000028,-20.082184745114482,8.788646435657434,-17.27327771909439,-0.09100045020203708
1970-01-01 00:00:00.000000028,-20.055883178565196,9.020313628826873,-17.256356059926375,-0.09467781570921598
1970-01-01 00:00:00.000000028,-20.68861343832225,8.630766665925862,-15.277390775660026,-0.09435545068910356
1970-01-01 00:00:00.000000028,-20.479412342982577,7.87094979783504,-12.872631436230717,-0.09235590623296461
1970-01-01 00:00:00.000000028,-19.843554750987945,7.942529346514666,-11.476006531674953,-0.0916025467065424
1970-01-01 00:00:00.000000028,-19.418018389591985,8.117085541387523,-12.189801935666459,-0.09116987151714696
1970-01-01 00:00:00.000000028,-19.334913375582378,8.744387627637968,-14.373038374629957,-0.09437662756693616
1970-01-01 00:00:00.000000028,-20.058607439383454,9.8301232012526,-16.53349138292741,-0.1082562763751203
1970-01-01 00:00:00.000000028,-22.81463925691082,10.373480775878413,-17.82668699471386,-0.12400086486507433
1970-01-01 00:00:00.000000028,-26.115224399781994,9.10708433946347,-16.683830882347866,-0.1365404829829022
1970-01-01 00:00:00.000000028,-28.806338685062382,7.184618163539409,-13.969925054774366,-0.1457704017690937
1970-01-01 00:00:00.000000028,-30.689118874419492,4.273880915610203,-9.857870757050271,-0.1529855252729584
1970-01-01 00:00:00.000000028,-32.05357729618864,1.5368220801654786,-6.115929863353548,-0.15818325837134242
1970-01-01 00:00:00.000000028,-33.002922223463024,-1.0752055500129374,-3.8177563523660645,-0.16348324962381552
1970-01-01 00:00:00.000000028,-34.1033612171818,-3.731883018900933,-4.1280027389161935,-0.17037556985773153
1970-01-01 00:00:00.000000028,-35.9525057671248,-7.669418132621278,-5.122099770680142,-0.1704393088439391
1970-01-01 00:00:00.000000028,-36.90026697079157,-13.578767077587257,-4.905051585161321,-0.16784628464222837
1970-01-01 00:00:00.000000028,-37.325690697453545,-19.267724654035977,-4.624724720476908,-0.17184206829755863
1970-01-01 00:00:00.000000028,-38.96866559687585,-24.844654024883347,-2.1573713112143547,-0.16674500289095875
1970-01-01 00:00:00.000000028,-38.842981895374585,-28.597013571096987,1.8166197644067108,-0.13935256304095356
1970-01-01 00:00:00.000000028,-33.9173566229747,-30.77779519760244,5.203022147328511,-0.09885700208186474
1970-01-01 00:00:00.000000028,-25.9273007144387,-36.41942331312703,5.1490116645049175,-0.04575304212755708
1970-01-01 00:00:00.000000028,-16.028529519269387,-39.92495195619943,3.1919750949320633,-0.014792834734327317
1970-01-01 00:00:00.000000028,-9.890466940182487,-41.21626750065909,1.8723279022592472,-0.0156414921008266
1970-01-01 00:00:00.000000028,-9.715875588553832,-40.27958275206934,3.4955660755942644,-0.022839642461310507
1970-01-01 00:00:00.000000028,-10.822088969753471,-34.98487514814069,7.605547795858371,-0.0034371972820956063
1970-01-01 00:00:00.000000028,-10.69055341642165,-27.31442794787238,12.351842712438705,0.6776536157017071
1970-01-01 00:00:00.000000028,-5.400332153147508,-20.49218747337522,18.906697411025178,0.7575849043485423
1970-01-01 00:00:00.000000028,7.178499041229063,-19.873504319147845,22.980116899351913,0.8232764279016432
1970-01-01 00:00:00.000000028,21.086111659605837,-24.870553933980528,20.02833408111252,0.8877619707137244
1970-01-01 00:00:00.000000028,33.37695648091398,-30.53807697522808,13.12827821378438,0.9346798165491446
1970-01-01 00:00:00.000000028,41.79698981598434,-32.26816124866814,4.824540839575203,0.9329643367044188
1970-01-01 00:00:00.000000028,41.24113831045795,-31.26651531264682,0.5700858809109717,0.8861268127169397
1970-01-01 00:00:00.000000028,32.11271791138523,-28.269963878296213,1.7255662595208099,0.8452560332345277
1970-01-01 00:00:00.000000028,24.098467301937518,-21.074967603301264,3.2177449242005944,0.8283359947469092
1970-01-01 00:00:00.000000028,21.342582955215807,-12.150761865579627,4.006946239153587,0.8182234822722403
1970-01-01 00:00:00.000000028,20.602079392538066,-6.645768998583074,4.819637301711831,0.8085399074510545
1970-01-01 00:00:00.000000028,19.691368558729305,-6.442486040680898,7.465775962548249,0.7998771864704965
1970-01-01 00:00:00.000000028,18.41113380784031,-9.237323483542706,11.070344303349376,0.7971828555926986
1970-01-01 00:00:00.000000028,17.91534429540955,-12.840197954624578,14.308570288232515,0.7941180869618406
1970-01-01 00:00:00.000000028,17.278972698824283,-15.749846226368842,15.95922854388062,0.7871886694109564
1970-01-01 00:00:00.000000028,15.79582071150699,-17.28481085929545,16.711439694582868,0.7758233972545058
1970-01-01 00:00:00.000000028,13.428554025541569,-17.778218217213848,16.661471967251277,0.766879925937064
1970-01-01 00:00:00.000000028,11.436167566699492,-17.090692709643303,16.284691717036843,0.7613310109633455
1970-01-01 00:00:00.000000028,10.239775378454697,-15.397914249901218,15.797775085997595,0.7566361754092545
1970-01-01 00:00:00.000000028,9.42696423161381,-13.264547700766341,15.893679941821432,0.7512981740916113
1970-01-01 00:00:00.000000028,8.688832116071337,-10.972659393103058,15.853797620867983,0.7456369148330317
1970-01-01 00:00:00.000000028,7.903695298621628,-9.332606468543474,14.823505266086803,0.7405560829548057
1970-01-01 00:00:00.000000028,6.976649956822073,-9.214678852843194,12.923880968203196,0.7374218417561303
1970-01-01 00:00:00.000000028,6.046459866913037,-10.093211561406799,10.741791872215535,0.7353527533585877
1970-01-01 00:00:00.000000028,5.136076412522918,-10.382859449910187,8.523673436846376,0.7312844662377923
1970-01-01 00:00:00.000000028,3.937971747158398,-9.723595624868723,6.4177888839362245,0.7247339084432496
1970-01-01 00:00:00.000000028,2.4141513651316826,-7.720563679910974,4.440285171066062,0.7151979154462045
1970-01-01 00:00:00.000000028,0.5026446868276263,-5.056282632804038,2.8952518347709812,0.7059590206096761
1970-01-01 00:00:00.000000028,-1.257117358259893,-2.389327612795878,1.6412541607525946,0.7004435460990878
1970-01-01 00:00:00.000000028,-2.287700110762054,-0.9061752509025608,0.7179981673311955,0.7004124979296787
1970-01-01 00:00:00.000000028,-2.3194155982067635,0.21695060260062568,-0.21094887863641015,0.7000567742580102
1970-01-01 00:00:00.000000028,-2.349355868386789,1.0657499983612502,-0.8617094132724784,0.6980369963602538
1970-01-01 00:00:00.000000028,-2.6875196332204414,1.4117454505892955,-0.9517591822843277,0.6953963369868954
1970-01-01 00:00:00.000000028,-3.1623573354400794,2.2207374060132756,-1.1664282699408215,0.6920324528313423
1970-01-01 00:00:00.000000028,-3.7333838788343208,3.051217734383639,-2.03875088350334,0.6875412241557235
1970-01-01 00:00:00.000000028,-4.61625522779509,4.028425080995361,-3.7635619259989945,0.68287237010543
1970-01-01 00:00:00.000000028,-5.668586527104828,5.199261457629746,-6.094419113330864,0.6780228859114086
1970-01-01 00:00:00.000000028,-6.8809508391245675,7.96234027135623,-9.925048137585884,0.679459657932923
1970-01-01 00:00:00.000000028,-6.894166263952575,8.100285926661076,-10.065520543815394,0.6787560480319911
1970-01-01 00:00:00.000000028,-7.030283240991766,9.080794628774283,-10.008591665148332,0.677376631294167
1970-01-01 00:00:00.000000028,-7.159740180354312,8.953282796903695,-8.794340668530477,0.6775348556514867
1970-01-01 00:00:00.000000028,-6.981716714333154,8.024022621984427,-7.572424650815603,0.6772543177367824
1970-01-01 00:00:00.000000028,-6.969245877122615,6.8192773700112745,-7.287175530155339,0.6772892086589545
1970-01-01 00:00:00.000000028,-7.0476217465968105,6.463177544581326,-9.064603487117179,0.6712736043982265
1970-01-01 00:00:00.000000028,-8.476860081118208,7.461808462106748,-12.181826493586183,0.6673983505972915
1970-01-01 00:00:00.000000028,-9.644632720815617,9.625219483372065,-15.225143288638517,0.6630585248817183
1970-01-01 00:00:00.000000028,-10.68238650213677,11.394870045966945,-18.17128984262589,0.6559423903189001
1970-01-01 00:00:00.000000028,-12.327841917319383,10.951333184291013,-19.234621035704908,0.6574555523660421
1970-01-01 00:00:00.000000028,-12.533941387269225,9.67161693552059,-17.78298711577643,0.6708566412762491
1970-01-01 00:00:00.000000028,-10.148420962776436,8.472600083312097,-14.365755081711477,0.6909578827217838
1970-01-01 00:00:00.000000028,-5.7935699873718915,7.602370282673742,-10.578615121665734,0.6937992730614881
1970-01-01 00:00:00.000000028,-4.2834476094419065,5.987676177656808,-9.560574574485418,0.6829092307982193
1970-01-01 00:00:00.000000028,-6.071566527412244,3.034177228243605,-10.337607675256981,0.6590487847558232
1970-01-01 00:00:00.000000028,-11.211332227117461,-1.9759451711273766,-12.715886813500903,0.6453619136430185
1970-01-01 00:00:00.000000028,-15.41588763018849,-4.201317778542907,-4.557957219127555,0.6441100658274013
1970-01-01 00:00:00.000000028,-15.394442351291119,-4.2442761848254635,-3.8835994382375594,0.6559766404842873
1970-01-01 00:00:00.000000028,-13.112037865016223,-3.4903996780248203,5.854511920433258,0.666006873050024
1970-01-01 00:00:00.000000028,-9.551097629241156,-5.5906108070703135,15.36132560470994,0.6771213587226398
1970-01-01 00:00:00.000000028,-6.137860552200198,-9.313621605007816,23.793749914601026,0.703748432409027
1970-01-01 00:00:00.000000028,-0.20057500089242394,-14.165066793327878,27.5320278243308,0.7312001632158055
1970-01-01 00:00:00.000000028,5.4655039067760365,-19.889717832622452,19.574465324552744,0.7371280687220204
1970-01-01 00:00:00.000000028,5.216094332246268,-25.7308449881847,5.355005637886779,0.7427355036541877
1970-01-01 00:00:00.000000028,3.421414330383813,-23.622951537498125,-4.019167790743333,0.7318839528892059
1970-01-01 00:00:00.000000028,0.23703061757906588,-14.849177013858846,-5.882866477551041,0.7028088468420484
1970-01-01 00:00:00.000000028,-4.514355463944109,-7.063370039045828,-2.8267693054899174,0.6804208215728256
1970-01-01 00:00:00.000000028,-7.59963416169627,-3.5577722349880596,1.1141370347137451,0.6676032530965695
1970-01-01 00:00:00.000000028,-9.308177173366117,-6.86084830957736,2.7941012388154705,0.6755071201708562
1970-01-01 00:00:00.000000028,-8.31787394760838,-12.757994888180225,2.753733648724408,0.6932343390188739
1970-01-01 00:00:00.000000028,-5.7111345735115435,-14.399195184457536,0.7625257635746963,0.6926466322517525
1970-01-01 00:00:00.000000028,-6.01612480516929,-13.041835673612058,-2.187098613646479,0.6816722624214534
1970-01-01 00:00:00.000000028,-8.278709642061019,-11.218362472672792,-2.8021828016344132,0.6695180956045751
1970-01-01 00:00:00.000000029,-10.57464579523496,-8.286547880537979,-2.1544338224673214,0.6577276389993011
1970-01-01 00:00:00.000000029,-12.446625636387436,-5.908577934795636,-1.257678037926293,0.6439886365153814
1970-01-01 00:00:00.000000029,-14.72445941660705,-6.282567747661407,-0.3403845902598624,0.6374622702806335
1970-01-01 00:00:00.000000029,-16.176670604114925,-9.836734304277758,1.9513110486945948,0.6465177209282005
1970-01-01 00:00:00.000000029,-14.873593089828438,-13.665746621379892,3.919294751472092,0.6570361533208311
1970-01-01 00:00:00.000000029,-13.08829516063854,-16.760317283053844,4.497754430977391,0.6665737207416121
1970-01-01 00:00:00.000000029,-11.465938504530168,-17.480435263738716,5.152459642252745,0.6678471761198199
1970-01-01 00:00:00.000000029,-11.005208342639605,-16.613061572728373,5.7170291750098805,0.6586814117385522
1970-01-01 00:00:00.000000029,-12.44268040527529,-13.230885766836586,5.048669516104814,0.6529004859937166
1970-01-01 00:00:00.000000029,-13.262546717280431,-12.636952366899637,4.580949524779924,0.6485415871334596
1970-01-01 00:00:00.000000029,-14.222004482105763,-11.610423328503533,3.3683724639032375,0.6591352896416609
1970-01-01 00:00:00.000000029,-12.428290622708163,-11.266595562101166,2.4429889412020382,0.6710012858678027
1970-01-01 00:00:00.000000029,-10.160306309589123,-12.057992055677554,2.1219937411021914,0.6825723334212771
1970-01-01 00:00:00.000000029,-7.9353476353933035,-12.812767376464766,3.5872646332851668,0.68988239331658
1970-01-01 00:00:00.000000029,-6.233711401629361,-12.832979356252347,5.537899110216047,0.6930081508269887
1970-01-01 00:00:00.000000029,-5.200787100581034,-12.697302410894403,7.416384174002328,0.6967186225481861
1970-01-01 00:00:00.000000029,-4.14676799676057,-12.35204929108001,8.59661003466337,0.7055392168724735
1970-01-01 00:00:00.000000029,-2.2339887548353,-10.635833405152031,7.864281805022439,0.720043388204284
1970-01-01 00:00:00.000000029,0.7331951904939735,-7.00683795035863,5.547613398608669,0.7392550743912424
1970-01-01 00:00:00.000000029,4.7301987358122775,-1.9722921172052468,2.747779094737349,0.7613508697668849
1970-01-01 00:00:00.000000029,9.550945192439087,3.2716675244184925,0.6591388979012532,0.7789432599980263
1970-01-01 00:00:00.000000029,13.839067554375418,7.625416557276969,-1.132927570631114,0.783226543034099
1970-01-01 00:00:00.000000029,15.535423029535108,9.0801155607878,-2.532647266213156,0.7787175527326732
1970-01-01 00:00:00.000000029,14.93438413560757,8.124293148294782,-2.4119590528229495,0.7737450571311192
1970-01-01 00:00:00.000000029,13.84572460954729,7.73821800215003,-1.3778286010278036,0.7698256608681072
1970-01-01 00:00:00.000000029,13.081262079510875,8.369882462182785,-0.9771236225009823,0.7688454508164058
1970-01-01 00:00:00.000000029,12.679042337244255,10.123605895048007,-1.6295117882358765,0.8090070415195676
1970-01-01 00:00:00.000000029,12.814292137304818,10.463208442915997,-2.1489629210650607,1.8900845210963795
1970-01-01 00:00:00.000000029,14.09357854918782,9.092561585276503,-2.4329475589281433,1.934535824977246
1970-01-01 00:00:00.000000029,14.845454785790475,6.881683130189874,-1.9448923993545173,1.939832799231504
1970-01-01 00:00:00.000000029,15.381276675115462,4.4626970603092335,-1.5793330931846699,1.9424851600344304
1970-01-01 00:00:00.000000029,15.649313736324832,3.042035370777895,-1.7662032440131343,1.9398856696184927
1970-01-01 00:00:00.000000029,15.000081463517322,2.6684024941495266,-1.6120099517143691,1.9322937384223862
1970-01-01 00:00:00.000000029,13.5492951613395,2.939847787050465,-1.0730496364836852,1.9187823588790345
1970-01-01 00:00:00.000000029,11.029666071019605,4.488132471483995,-0.07968551807419334,1.9071959418844449
1970-01-01 00:00:00.000000029,8.979648840696052,6.0625896620790245,0.7444013675420607,1.9000900663645115
1970-01-01 00:00:00.000000029,7.786114386829264,5.951583230061593,1.178317267121756,1.8967519506712283
1970-01-01 00:00:00.000000029,7.09628160372093,5.210480156394515,1.9004874515558716,1.8942564838711065
1970-01-01 00:00:00.000000029,6.565559748346539,4.622868712686104,3.2763316449825783,1.891382109246392
1970-01-01 00:00:00.000000029,6.093150838363258,5.1959190554594645,4.149410932302895,1.8887257104125696
1970-01-01 00:00:00.000000029,5.74774199177632,6.324791822957666,3.0406095654338134,1.888779385433171
1970-01-01 00:00:00.000000029,5.7438942187328665,6.350254552799975,2.973841722812525,1.8868333599874436
1970-01-01 00:00:00.000000029,5.360123360918097,5.962584190951461,2.3336200388141535,1.8879456978395281
1970-01-01 00:00:00.000000029,5.360457618779658,5.4413552285188,2.0857359507989237,1.8912583826110705
1970-01-01 00:00:00.000000029,5.845425476417734,4.421234169230974,1.448477822931626,1.8949790981361425
1970-01-01 00:00:00.000000029,6.333248778842263,3.8059972895813887,0.8971952172188575,1.8989284912306017
1970-01-01 00:00:00.000000029,6.938304161677208,3.614848520079785,0.2999489125907857,1.9019673110052993
1970-01-01 00:00:00.000000029,7.457068045333226,3.7415177805210362,-0.3519695493194244,1.9025152091626187
1970-01-01 00:00:00.000000029,7.551301129443386,4.089193562441546,-0.8700647357618861,1.9007266201407058
1970-01-01 00:00:00.000000029,7.195529197214799,4.1488645013194185,-1.1576222203327742,1.9009809058570992
1970-01-01 00:00:00.000000029,7.189910945676344,4.151267566005294,-1.1646156204004696,1.8985987061254581
1970-01-01 00:00:00.000000029,6.746004952256529,4.219453858369237,-1.002905452934194,1.8969995123779089
1970-01-01 00:00:00.000000029,6.436141621794821,4.0978430855913714,-0.5899751331955105,1.8959658790072722
1970-01-01 00:00:00.000000029,6.252678271352559,3.521901227099845,-0.32683136884254826,1.895392270622426
1970-01-01 00:00:00.000000029,6.060745727937174,2.610340326116675,-0.3676215455410641,1.898196983112396
1970-01-01 00:00:00.000000029,6.46346568182768,2.243614834161128,-0.3126231046554479,1.893974804824945
1970-01-01 00:00:00.000000029,5.656609696209944,2.370276469527484,-0.17018600686231847,1.8938602957567672
1970-01-01 00:00:00.000000029,5.645880996607062,2.397481358807147,-0.13876756490093373,1.8856059716359261
1970-01-01 00:00:00.000000029,4.231056543282979,3.2076835048609404,0.7694250411325357,1.8651855003106232
1970-01-01 00:00:00.000000029,0.4727195027469427,4.347018708290047,3.5502891113312023,1.8631692479046438
1970-01-01 00:00:00.000000029,0.4456782079047528,4.305961951803861,3.732521297643436,1.8362458012502303
1970-01-01 00:00:00.000000029,-4.6376763095504145,2.7839364402600415,6.597768374887407,1.8371711109993702
1970-01-01 00:00:00.000000029,-4.6763243732250395,2.6599441236834025,6.706847012782646,1.8187176595008538
1970-01-01 00:00:00.000000029,-8.001924650490041,1.3064142493329765,7.258960320385221,1.7917863209668217
1970-01-01 00:00:00.000000029,-13.545520164648549,2.0904493277990883,14.012290357110468,1.7884430013974102
1970-01-01 00:00:00.000000029,-13.555427714942036,2.1547215793111176,14.341883299666042,1.7668999701337817
1970-01-01 00:00:00.000000029,-17.302687348016583,3.647149789660084,17.028675209931688,1.7296939435756085
1970-01-01 00:00:00.000000029,-24.129168605004747,-0.39118800860528613,16.222836618373144,1.7270470315931745
1970-01-01 00:00:00.000000029,-26.106021056474457,-4.373995290622697,13.323144217523273,1.737527916122106
1970-01-01 00:00:00.000000029,-25.508961944195903,-5.886035112411564,10.322706980551187,1.758577704801606
1970-01-01 00:00:00.000000029,-22.314940522168,-6.762272584496382,10.926624417351917,1.7824715488163345
1970-01-01 00:00:00.000000029,-17.688189607573378,-8.257915029388974,11.633561927552396,1.8072850281432176
1970-01-01 00:00:00.000000029,-12.743456496545264,-9.389976955354358,9.4910038802143,1.8274017400040576
1970-01-01 00:00:00.000000029,-8.902337519363792,-9.972841947572139,6.672163655840303,1.8329040448748675
1970-01-01 00:00:00.000000029,-7.9379721628391975,-8.956471988120349,4.077698468446919,1.8330123878923243
1970-01-01 00:00:00.000000029,-7.9542905917049715,-8.941743544853116,3.8358531790506847,1.820309890344008
1970-01-01 00:00:00.000000029,-10.355806384682298,-9.223570596262771,0.2373704925726255,1.814109053348865
1970-01-01 00:00:00.000000029,-12.325092498687289,-5.444703057878685,-3.026890383226793,1.812315321740292
1970-01-01 00:00:00.000000029,-12.924106233842558,2.4223204262648927,-3.7576784469694218,1.8258583016675782
1970-01-01 00:00:00.000000029,-9.301441138977987,11.669984128124032,9.142201876145608,1.8102096596793233
1970-01-01 00:00:00.000000029,-9.09967377672039,11.983678621483005,9.663556691299847,1.8679513733750175
1970-01-01 00:00:00.000000029,2.130892548708435,9.628292744698747,9.262782881731935,1.8651527895297586
1970-01-01 00:00:00.000000029,2.205992529216465,9.380363942265522,9.081719572344811,1.8930336761128084
1970-01-01 00:00:00.000000029,7.396178166916087,4.295767961751959,3.84787983685969,1.902712006099702
1970-01-01 00:00:00.000000029,8.360880986033578,0.7683416895867655,2.2240066874161775,1.8948824284304806
1970-01-01 00:00:00.000000029,6.439095816847449,1.3010659969339615,1.801909063220388,1.8624431766684812
1970-01-01 00:00:00.000000029,0.07595328326853099,5.581009173414931,0.14810696531902123,1.863373562705174
1970-01-01 00:00:00.000000029,0.04151363242912931,5.78585456197727,0.09665187710132103,1.8500371683812948
1970-01-01 00:00:00.000000029,-2.493747136011698,7.400002077899428,0.7244317943447307,1.8522893368198088
1970-01-01 00:00:00.000000029,-2.0565765650147307,4.2089632863508655,4.157768315249987,1.8582579460990456
1970-01-01 00:00:00.000000029,-0.8504306173845865,1.0288719701824196,5.572178034013402,1.859261799764842
1970-01-01 00:00:00.000000029,-0.8446111652632513,0.8452841757246925,5.565742870262153,1.8682361900038849
1970-01-01 00:00:00.000000029,0.7512035237399664,-1.162357946411073,3.7467207422693605,1.8786778848466186
1970-01-01 00:00:00.000000030,2.303376252614363,-1.7012489875923913,0.12341691224183804,1.8854877173880191
1970-01-01 00:00:00.000000030,3.1454770071834433,-1.6664306804628028,-2.5595300736190354,1.8861457980525258
1970-01-01 00:00:00.000000030,2.996583500571841,-0.9528663580458326,-3.641215873098304,1.8816831321895886
1970-01-01 00:00:00.000000030,2.121444523884208,-0.1073735513608754,-3.7997110646213828,1.8746074817821072
1970-01-01 00:00:00.000000030,0.8346218675911364,0.6867020580365666,-3.5680612849446702,1.8673617379636154
1970-01-01 00:00:00.000000030,-0.46435943692942744,1.2108330701915453,-2.7254396770413587,1.8583846703808162
1970-01-01 00:00:00.000000030,-2.1078470715357027,0.8035859454355758,-1.221014886871596,1.8585407459207899
1970-01-01 00:00:00.000000030,-2.108788793157468,0.7728357134957268,-1.2051140115650238,1.8607850017091758
1970-01-01 00:00:00.000000030,-1.736459855682433,0.2965172128733546,-2.333524531459734,1.8679144694532046
1970-01-01 00:00:00.000000030,-0.6298720038507005,-0.4658140548547527,-4.248991426787407,1.8756838598896899
1970-01-01 00:00:00.000000030,0.522127611644779,-1.5182513974434102,-5.783998695292007,1.8825163193786338
1970-01-01 00:00:00.000000030,1.5450227239143155,-3.5964148057863894,-7.238414475765869,1.8845369089662845
1970-01-01 00:00:00.000000030,1.5301818903916011,-3.7031538843973197,-7.271397675994686,1.8834959724047693
1970-01-01 00:00:00.000000030,1.3067381012845185,-4.4782753513024,-6.678858054451844,1.882040342903267
1970-01-01 00:00:00.000000030,0.9863102062501209,-5.012441592975029,-6.109930786412684,1.881153569077796
1970-01-01 00:00:00.000000030,0.7834345755711216,-5.3867249851324654,-6.068350504799703,1.8817499713900878
1970-01-01 00:00:00.000000030,0.8199127979586321,-5.9742606162970295,-6.780660453874755,1.8826893230610486
1970-01-01 00:00:00.000000030,0.8130541829574512,-5.988075897294042,-6.829245992225363,1.8828187841534678
1970-01-01 00:00:00.000000030,0.8137112028767923,-5.775049026291175,-7.4302417518591115,1.8838787087354607
1970-01-01 00:00:00.000000030,0.9477513434563708,-6.036437615023984,-7.3854711104269155,1.885437824549643
1970-01-01 00:00:00.000000030,1.2174619251838958,-7.597017738737046,-6.615729389048309,1.8864126700261645
1970-01-01 00:00:00.000000030,1.3119717126909298,-7.24530791224748,-8.901488975248702,1.8871589600874634
1970-01-01 00:00:00.000000030,1.2701119473663678,-5.719907504520438,-11.418084555242174,1.8749889150617771
1970-01-01 00:00:00.000000030,-1.1705164924637905,-3.5593700766941154,-8.253969383179674,1.872087654992728
1970-01-01 00:00:00.000000030,-1.1635111894892252,-3.4428022762185977,-7.998806500606931,1.863381335045912
1970-01-01 00:00:00.000000030,-2.713227562989941,-2.2277600096454218,-4.045274761644852,1.8594610381114787
1970-01-01 00:00:00.000000030,-2.8675997242147133,-2.192853900004335,-2.459747979600686,1.8576520534693786
1970-01-01 00:00:00.000000030,-2.8597313532410444,-2.1868435750097914,-2.325468972111849,1.841317396325503
1970-01-01 00:00:00.000000030,-2.8689682483254932,-2.0554806314643077,-0.28147227362347677,1.4060809164169106
1970-01-01 00:00:00.000000030,-2.6851571074451295,-1.0057553423731376,1.0310957164313823,1.3910789319132904
1970-01-01 00:00:00.000000030,-2.0961634760083676,1.4229221842021689,0.393892414083357,1.3887194948832335
1970-01-01 00:00:00.000000030,-2.085252815903462,1.4941857619442303,0.4235309099317858,1.3867123288753085
1970-01-01 00:00:00.000000030,-2.4561641481374052,1.0446852804959015,1.9160340462787129,1.3899387297827597
1970-01-01 00:00:00.000000030,-1.7234603846625987,-0.0037559603330981003,4.593315567815256,1.3883940563098025
1970-01-01 00:00:00.000000030,-1.7095037388601466,-0.0662746188929617,4.683307875329733,1.3893558340072765
1970-01-01 00:00:00.000000030,-1.5159152475309918,-0.7325517928362612,4.409104023028154,1.3901538716560713
1970-01-01 00:00:00.000000030,-1.4307927821328545,-0.936779281254176,3.8883452528623197,1.3834766599673505
1970-01-01 00:00:00.000000030,-2.7903834442583673,-1.6041020467178093,6.282604558563161,1.3829361545998469
1970-01-01 00:00:00.000000030,-2.789132339503148,-1.6603252693306096,6.455628539139077,1.3822836778533603
1970-01-01 00:00:00.000000030,-2.9108473475653796,-2.491310504559023,8.752735718841542,1.3849263209192861
1970-01-01 00:00:00.000000030,-2.23675338428025,-2.940376062576363,10.032918160769205,1.3882427309828054
1970-01-01 00:00:00.000000030,-1.4281591933952895,-3.0687302845477262,10.216167522382044,1.3905737689003312
1970-01-01 00:00:00.000000030,-0.8936097725011919,-2.8938031581405426,9.075143405617654,1.3916209442266307
1970-01-01 00:00:00.000000030,-0.7797156916036234,-2.0673740693294658,7.559285345212063,1.392606093964943
1970-01-01 00:00:00.000000030,-0.7031259753229874,-1.2012823493771947,5.99957527948588,1.3955914100334643
1970-01-01 00:00:00.000000030,-0.2768898687324046,-0.716406450589271,4.3300901141722115,1.4020383430329266
1970-01-01 00:00:00.000000030,0.8067046172190803,-0.9104519643376143,1.8940976553593403,1.4035171568798652
1970-01-01 00:00:00.000000030,0.8011932465284993,-0.9151176920366177,1.7612254750196512,1.4064372400419243
1970-01-01 00:00:00.000000030,1.3201904612809297,-0.9238158559315817,0.5329000348907273,1.4070316418003816
1970-01-01 00:00:00.000000030,1.3154972729405434,-0.9178881304824815,0.4870977546635953,1.4062728290307986
1970-01-01 00:00:00.000000030,1.1698108282706898,-0.7293094483541679,0.4985935597675976,1.4050224136012386
1970-01-01 00:00:00.000000030,0.9569973836519958,-0.36222150660174646,0.3861738275398432,1.4034112595097448
1970-01-01 00:00:00.000000030,0.6768654658704244,-0.09870728116828573,-0.11993626746712634,1.4018789947153774
1970-01-01 00:00:00.000000030,0.32725183659243934,-0.061748976583671095,-0.6333269407939598,1.4012811589925411
1970-01-01 00:00:00.000000030,0.1022399266148559,-0.06211018481037066,-1.2234862321893227,1.4019506526924974
1970-01-01 00:00:00.000000030,0.10859046879579394,-0.12625854613064308,-1.9118338611520587,1.4031873836993802
1970-01-01 00:00:00.000000030,0.22140689169131292,-0.1390862111145612,-2.688243669313833,1.4047265096220034
1970-01-01 00:00:00.000000030,0.4014053874667461,-0.4606165489645173,-3.752292605323453,1.4057144339215009
1970-01-01 00:00:00.000000030,0.41299539906014776,-0.40519903359432424,-3.481295097086323,1.4047582364203957
1970-01-01 00:00:00.000000030,0.2709064460546741,-0.31031821009663985,-3.823235868021667,1.4050305502435827
1970-01-01 00:00:00.000000030,0.2694183639471375,-0.31163149831844417,-3.83431219880218,1.405661213681639
1970-01-01 00:00:00.000000030,0.3847838337244484,-0.4586725247702447,-3.8081337799060875,1.4057153917205782
1970-01-01 00:00:00.000000030,0.3937608699037305,-0.1788560721434143,-3.841629260327438,1.405158413937523
1970-01-01 00:00:00.000000030,0.3189694196663951,0.039050939739401824,-4.256363886093398,1.4058876002626859
1970-01-01 00:00:00.000000030,0.4147352357711432,0.12358680998640217,-5.189840299315159,1.406995610862941
1970-01-01 00:00:00.000000030,0.5076724595022789,-0.09034846056416192,-5.757465585873493,1.407685955407896
1970-01-01 00:00:00.000000030,0.5746100490403248,-0.22462878694477548,-5.923364060995134,1.4017250962530423
