time,ax,ay,az,speed
1970-01-01 00:00:00.000000000,0.5551438574813373,0.020695728559991335,0.780260696369786,0.5591301899813096
1970-01-01 00:00:00.000000016,0.9059740999027345,-0.2017107175073108,0.03610264079221352,0.5696569271828411
1970-01-01 00:00:00.000000016,1.08123986160952,0.0027065486525189985,-0.5858977450701197,0.5718035499667634
1970-01-01 00:00:00.000000016,0.9387201089939874,-0.29440056384537033,-0.924529852656132,0.5804558830505423
1970-01-01 00:00:00.000000016,0.6219983265662496,-0.25642171168098915,-0.6813082158489157,0.576210409295871
1970-01-01 00:00:00.000000016,0.4371081045147309,-0.31188477374303125,-0.40369109746629034,0.5749311018377354
1970-01-01 00:00:00.000000016,0.4337533863773989,-0.32188307216832496,-0.3757673085283931,0.570118503636975
1970-01-01 00:00:00.000000016,0.29599052568720335,-0.4205002950945207,0.21643164690690714,0.5573314321692829
1970-01-01 00:00:00.000000016,0.1425869422079321,-0.4835631196110984,0.31748355078751994,0.5564969968077613
1970-01-01 00:00:00.000000016,0.03543813782917355,-0.3260249650693765,0.1653031936918963,0.5583715070774968
1970-01-01 00:00:00.000000016,0.027083166476204186,-0.3161211725933437,0.14869244356239497,0.5531285150548295
1970-01-01 00:00:00.000000016,-0.16199766154603978,-0.06858180249173236,-0.009942325048052432,0.5473683479635413
1970-01-01 00:00:00.000000016,-0.4346561854477429,0.25501202370961473,-0.1265357014667679,0.5470214544552857
1970-01-01 00:00:00.000000016,-0.493206201628069,0.24928037622543162,-0.11114768098057001,0.5481899120047466
1970-01-01 00:00:00.000000016,-0.49320867029936516,0.2406789286354481,-0.10933089075021483,0.5498320200327442
1970-01-01 00:00:00.000000016,-0.44966059367278394,-0.023763408831389304,-0.11360047503828204,0.5550655792177567
1970-01-01 00:00:00.000000016,-0.4535252250663527,-0.041451560023176605,-0.11704252822362086,0.5583830820079221
1970-01-01 00:00:00.000000016,-0.3770535627083853,-0.3292187309051363,-0.28033780611023873,0.5680926719868455
1970-01-01 00:00:00.000000016,-0.3466487145269602,-0.3367670402900176,-0.4413911026273411,0.5714112518638522
1970-01-01 00:00:00.000000016,-0.35224844572975555,-0.3338509217709434,-0.45758152967357824,0.570256619593019
1970-01-01 00:00:00.000000016,-0.41617565930329814,-0.2093652334456805,-0.6954675844795006,0.5739651473288915
1970-01-01 00:00:00.000000016,-0.42399448079830604,-0.20500716574457603,-0.7060400357550902,0.5714106299063617
1970-01-01 00:00:00.000000016,-0.5189051982017001,-0.14677222145459018,-0.6885573607046523,0.5637829364476171
1970-01-01 00:00:00.000000016,-0.7970671997628994,0.12568461278885093,-0.7514812769523087,0.5648611365989742
1970-01-01 00:00:00.000000016,-0.8016899386107041,0.13464135497330118,-0.7570525287879426,0.5624573960458875
1970-01-01 00:00:00.000000016,-0.8879929241203722,0.17042334211894716,-0.778145629693471,0.5628849833701198
1970-01-01 00:00:00.000000016,-0.9333416356188172,0.11855889830648285,-0.8511094568675674,0.5678122271170186
1970-01-01 00:00:00.000000016,-0.9046386111946589,0.05482428981758054,-0.9276523280693604,0.5728075825523353
1970-01-01 00:00:00.000000016,-0.8289216766196171,0.008002814014661417,-1.0491975137586895,0.5749034451439665
1970-01-01 00:00:00.000000016,-0.8338285287247973,0.004058343985519349,-1.057873888008012,0.572997147843464
1970-01-01 00:00:00.000000016,-0.9189806991812588,-0.0001422583665643528,-1.1151121944185614,0.5749098707700963
1970-01-01 00:00:00.000000016,-0.9694713584576911,0.08886891507289507,-1.2033871263374885,0.576942654006248
1970-01-01 00:00:00.000000016,-0.9416094785346064,0.19393454694914755,-1.3320086350792135,0.5774784251144703
1970-01-01 00:00:00.000000016,-0.9221741211508546,0.17929029810798544,-1.4789195752473823,0.5775063257398049
1970-01-01 00:00:00.000000016,-1.0334695646187964,0.17736570582610026,-1.3183576927404648,0.5762596298213648
1970-01-01 00:00:00.000000016,-1.035134095305009,0.1705930263734321,-1.305728861568448,0.5731180027152212
1970-01-01 00:00:00.000000016,-1.1347482515031972,0.06963431305372998,-1.0453332628104646,0.5695198063882276
1970-01-01 00:00:00.000000016,-1.2040278684925687,-0.3086741943688403,-0.43647685476021386,0.5663142054222663
1970-01-01 00:00:00.000000016,-1.1987948490646656,-0.3260088218292603,-0.4117130765321462,0.5793975352975858
1970-01-01 00:00:00.000000016,-1.165475288518001,-0.42594328369119705,-0.362155500277743,0.9256450150440004
1970-01-01 00:00:00.000000016,-1.097028138941107,-0.4526489756741516,-0.39467456880800406,0.9391698390609571
1970-01-01 00:00:00.000000016,-1.056908964170996,-0.3412908664128542,-0.5897696644403218,0.940569938711502
1970-01-01 00:00:00.000000016,-1.0591402963841638,-0.33290329784434625,-0.5998052514521177,0.9398607317897824
1970-01-01 00:00:00.000000016,-1.0934398637406342,-0.19339641937100918,-0.6512703687533745,0.9437126816377255
1970-01-01 00:00:00.000000016,-0.907085910919425,0.2030370444254652,-0.8926576352906256,0.9365598480387926
1970-01-01 00:00:00.000000016,-0.8929688223885026,0.21788772548985533,-0.907994677462234,0.9402354280525802
1970-01-01 00:00:00.000000016,-0.7524451974449897,0.12150811180159642,-1.1816220881887203,0.9457143833934574
1970-01-01 00:00:00.000000016,-0.7551724546983586,0.11457300073654068,-1.1940599960499187,0.9501357371656836
1970-01-01 00:00:00.000000016,-0.6343022815184467,-0.08374040788097192,-1.3637011211250594,0.9565883101256458
1970-01-01 00:00:00.000000016,-0.6290857407736531,-0.33796789860425747,-1.5882741594081555,0.9696858571568978
1970-01-01 00:00:00.000000016,-0.5847506726057761,-0.5810193038180478,-1.8093276322791976,0.9896444897381599
1970-01-01 00:00:00.000000016,-0.2507970508186276,-0.6585336546993382,-2.322552262346471,0.9960761215687345
1970-01-01 00:00:00.000000017,-0.2603222437762947,-0.6594960010061927,-2.3596900790176356,0.9986452706871766
1970-01-01 00:00:00.000000017,-0.23129077324324523,-0.6596431565202174,-2.900864655182048,1.0099025089442861
1970-01-01 00:00:00.000000017,-0.26511960034890736,-0.7033462711290108,-3.2661326569869966,1.0205865307308326
1970-01-01 00:00:00.000000017,-0.2708484233505936,-0.6525592707429536,-3.606570190246732,1.0284218200199151
1970-01-01 00:00:00.000000017,-0.2547507654114918,-0.6827110945265105,-3.878219535270504,1.034186660222754
1970-01-01 00:00:00.000000017,-0.29240689656998364,-0.9450807926819451,-3.7697977732659984,1.0345186007969542
1970-01-01 00:00:00.000000017,-0.4524488442617514,-1.2427402952983313,-3.564590330323732,1.0438866798943587
1970-01-01 00:00:00.000000017,-0.3430888138509255,-1.2583785680933135,-3.6236125331950935,1.05529147464202
1970-01-01 00:00:00.000000017,0.054002740752987013,-1.6698915766941613,-3.7093585994168308,1.0669137079787705
1970-01-01 00:00:00.000000017,0.3448056784412238,-2.802776390020485,-3.503152038430852,1.0816373594248585
1970-01-01 00:00:00.000000017,0.3292333073995546,-2.8605300215490606,-3.4812055059063565,1.0861770348138544
1970-01-01 00:00:00.000000017,0.4045772385077239,-3.376676375904289,-3.1845388051408636,1.1043415024607464
1970-01-01 00:00:00.000000017,0.9275292436162461,-3.3261106525327353,-3.2427207575629358,1.0940061129719751
1970-01-01 00:00:00.000000017,0.9491232587794738,-3.316740985592566,-3.257351392171372,1.099734910681212
1970-01-01 00:00:00.000000017,1.166838196350561,-3.273685691092757,-3.753556563690297,1.1053878488062188
1970-01-01 00:00:00.000000017,1.1635144743105827,-3.263585006939118,-3.779488160493929,1.10926578007102
1970-01-01 00:00:00.000000017,1.2725973919095006,-3.1304588948562477,-4.079973168238538,1.1117799205301626
1970-01-01 00:00:00.000000017,1.3516841586539114,-2.8944738152965597,-4.015456043063624,1.077464519137985
1970-01-01 00:00:00.000000017,0.49705375494236403,-2.7566566316852597,-2.073662508013795,1.0477806886725585
1970-01-01 00:00:00.000000017,0.5126927324609695,-2.7762783233262445,-1.9644547564296395,1.0259320979119007
1970-01-01 00:00:00.000000017,-0.10553028830740767,-2.898792205556464,-0.41255002301963495,1.0107929535272284
1970-01-01 00:00:00.000000017,0.038219414319197884,-2.7968619559793564,-0.48014659438153107,1.014068024053842
1970-01-01 00:00:00.000000017,0.3128473997257463,-2.5259206819523374,-1.210848101347854,1.013944725871987
1970-01-01 00:00:00.000000017,0.16023268680344555,-2.558365442199381,-1.1181211274761547,1.0114116950357892
1970-01-01 00:00:00.000000017,-0.003820794050846593,-2.634834308505164,-1.0633103915825017,1.0136240950317599
1970-01-01 00:00:00.000000017,-0.07438825736979549,-2.477190953163548,-1.2362895109748997,1.0157499111098391
1970-01-01 00:00:00.000000017,-0.0640405016047311,-2.2057006436745765,-1.272885621503757,1.0095853941815562
1970-01-01 00:00:00.000000017,-0.07998173162846903,-1.8688513813458831,-1.4237472249223957,1.0052718825079399
1970-01-01 00:00:00.000000017,-0.07968216123541041,-1.4405847052127774,-1.6055875039494345,0.9997984869959284
1970-01-01 00:00:00.000000017,-0.04354587181199521,-0.8400649771156368,-1.4902446994288703,0.9804990546772064
1970-01-01 00:00:00.000000017,-0.09133841979911034,-0.5517557423232025,-1.1916054460438446,0.967431029886471
1970-01-01 00:00:00.000000017,-0.08188811519570946,-0.5419401359410697,-1.167702414085167,0.9598797879388933
1970-01-01 00:00:00.000000017,-0.27101862235817975,-0.3920614935984698,-0.6477932997684507,0.942230784962488
1970-01-01 00:00:00.000000017,-0.46221386309968243,-0.4094015385450371,0.0616019730095801,0.9190111647324805
1970-01-01 00:00:00.000000017,-0.8225840109242962,-0.437735129861317,1.2850914882833246,0.8994566860823082
1970-01-01 00:00:00.000000017,-0.8013745228048796,-0.4354780177631404,1.3598371605875328,0.8946294154487922
1970-01-01 00:00:00.000000017,-0.8496592382853053,-0.2485569323919383,2.2521262649316074,0.8814930543982302
1970-01-01 00:00:00.000000017,-0.4534487795053924,0.12581157421587089,2.8489427236008726,0.8613948903500595
1970-01-01 00:00:00.000000017,-0.019876025298921907,0.6807381725459788,2.954596008617458,0.8407788273904753
1970-01-01 00:00:00.000000017,0.14431205879840314,0.9642225522805187,2.885252976825465,0.8540780229593685
1970-01-01 00:00:00.000000017,0.9762630504027522,2.2742404244693506,2.6182040511114386,0.8196385839654204
1970-01-01 00:00:00.000000017,1.272255011356169,2.667329927107631,2.783317421899127,0.8075658688343178
1970-01-01 00:00:00.000000017,1.604138366179044,2.865339501588786,3.528038234317056,0.7856528747248613
1970-01-01 00:00:00.000000017,1.9214014461283218,2.9850440802552063,4.761922369126985,0.7476103192141706
1970-01-01 00:00:00.000000017,1.9672966167111035,3.0176260685954572,4.830641135405237,0.7409422533630174
1970-01-01 00:00:00.000000017,1.94507690437776,3.884413468488849,5.558941983481147,0.7057253242656378
1970-01-01 00:00:00.000000017,1.9892660415408636,3.9446929413467906,5.593947779329208,0.7011379685642424
1970-01-01 00:00:00.000000017,2.0020024307950135,4.780821381241137,5.8861734917741435,0.6878663663471435
1970-01-01 00:00:00.000000017,2.5530186659363343,6.822261561468742,6.767513707877486,0.6103722381250791
1970-01-01 00:00:00.000000017,2.655394227406647,6.926572229992207,6.843028072495245,0.6028566206189419
1970-01-01 00:00:00.000000017,2.8208572417078375,7.743912382780079,8.042967983953389,0.5198213590572457
1970-01-01 00:00:00.000000017,1.771418090934337,7.374453330991347,12.28249872016752,0.45205240585963313
1970-01-01 00:00:00.000000017,1.8190737837228697,7.288936940482768,12.50710684706608,0.41254409166079475
1970-01-01 00:00:00.000000017,0.739632878359944,6.302252300891516,15.284794389464867,0.36638741384161844
1970-01-01 00:00:00.000000017,-0.2159819403677279,5.179979648171704,17.74044613306857,0.342361652657871
1970-01-01 00:00:00.000000017,-0.7202918009946755,4.4910877473695345,18.391140751011854,0.36560786155797864
1970-01-01 00:00:00.000000017,-0.37225078501329567,5.156984226489694,15.3979488399355,0.41098641110318834
1970-01-01 00:00:00.000000017,-0.42056018897339753,5.187575907505188,15.243567466899844,0.4254558838929413
1970-01-01 00:00:00.000000017,-0.15832792685371233,5.238935494309007,13.759742984518743,0.4620337781765011
1970-01-01 00:00:00.000000017,0.12409973303293248,4.901508169227298,12.657318845495713,0.49162296327384797
1970-01-01 00:00:00.000000017,0.16273017023880026,4.243868792630745,12.129949561668367,0.5082110540320288
1970-01-01 00:00:00.000000017,-0.23144375971327336,3.422652741998219,11.841022829745395,0.5241201117977813
1970-01-01 00:00:00.000000017,-0.9128549330015037,2.506435098302282,11.666346698438344,0.5360529275007346
1970-01-01 00:00:00.000000017,-2.040187264864964,0.371385972186299,11.02062908811279,0.6239410967567149
1970-01-01 00:00:00.000000017,-2.1416962848564864,0.30029875164942593,10.919951281528826,0.6440103918640215
1970-01-01 00:00:00.000000017,-1.8378514255024567,0.11355209756182494,8.444927288378974,0.6955523647969838
1970-01-01 00:00:00.000000017,-1.9766962938544266,0.5409101381889825,7.368387760372737,0.7155468193354128
1970-01-01 00:00:00.000000017,-1.9898825940392126,0.5399335288649973,7.300454137009173,0.7274647585950273
1970-01-01 00:00:00.000000017,-1.70832410938832,-0.18246086843526857,6.274117929273791,0.7605867591407965
1970-01-01 00:00:00.000000017,-1.749407109169499,-0.3125302137503861,6.254576716249978,0.7665656070849343
1970-01-01 00:00:00.000000017,-1.8039875914254357,-3.175649645459103,6.679658666841635,0.8212309955301
1970-01-01 00:00:00.000000017,-1.8888242425036803,-3.32778340264089,6.698434099478777,0.8132391892439255
1970-01-01 00:00:00.000000017,-2.4012919566586515,-4.307635277849291,7.044928967080941,0.8074351680631265
1970-01-01 00:00:00.000000017,-3.499170505851932,-3.967432886124687,8.025584224871963,0.8027876676374248
1970-01-01 00:00:00.000000017,-3.4859809048893347,-3.9242080228872442,8.034689729092047,0.8110175887889742
1970-01-01 00:00:00.000000017,-3.214887814062442,-3.266431773459504,7.130790418984676,0.8687802940478695
1970-01-01 00:00:00.000000017,-1.2780172948541206,-2.5393981492948265,3.4767032947187535,0.9304431677396438
1970-01-01 00:00:00.000000017,-0.0796702746104351,-2.6100277343988667,1.177489061523578,0.994816864036059
1970-01-01 00:00:00.000000017,1.106532162310714,-2.8903760862655954,-0.8935240403731574,1.0249278604545637
1970-01-01 00:00:00.000000017,1.1105568079370187,-2.8619135646303824,-0.9844251214570222,1.050789504390553
1970-01-01 00:00:00.000000017,2.3511107519875933,-2.821450109506213,-2.376114189717944,0.7105699133504786
1970-01-01 00:00:00.000000017,4.228113326368122,-2.7877202050161642,-4.3911388139061325,0.7319114543715723
1970-01-01 00:00:00.000000017,5.3063306752179065,-2.82854555923208,-5.566183919049499,0.7372833326580154
1970-01-01 00:00:00.000000017,5.326222420106221,-2.8142568774864247,-5.6270739836668495,0.7612856554362591
1970-01-01 00:00:00.000000017,6.105910221094685,-3.010145611552392,-6.718569118606455,0.7814679967478988
1970-01-01 00:00:00.000000017,6.375918069213797,-3.087468519748504,-7.402086104027664,0.7783504827146805
1970-01-01 00:00:00.000000017,5.8675434479593935,-2.8876637769834566,-7.673915045466682,0.7656297925001722
1970-01-01 00:00:00.000000017,4.987797447349695,-2.3411583299899728,-7.755324994757785,0.7497431548828429
1970-01-01 00:00:00.000000017,4.1411735361911965,-2.134165379394217,-7.7804140596419495,0.7346752539660645
1970-01-01 00:00:00.000000017,3.0731423308650734,-2.422435781761197,-7.706983483682124,0.7631539453715297
1970-01-01 00:00:00.000000017,3.044538207709633,-2.4351695735958785,-7.721708845213154,0.7747065369053696
1970-01-01 00:00:00.000000017,3.329427223071866,-2.7457592227266483,-8.447771854472196,0.803100144952173
1970-01-01 00:00:00.000000017,3.6860909387001684,-3.011500037192247,-9.029301822704651,0.8156208909126792
1970-01-01 00:00:00.000000017,3.681228141803202,-3.025120642928687,-9.053756220018224,0.8260791595032592
1970-01-01 00:00:00.000000018,3.974660107701381,-3.381358724785228,-9.386717520690485,0.8417091240502068
1970-01-01 00:00:00.000000018,4.180769522889164,-3.641257844576695,-9.5073097569292,0.8481683828258928
1970-01-01 00:00:00.000000018,4.249921155767572,-3.7138085625359647,-9.341851400148514,0.8454258397761498
1970-01-01 00:00:00.000000018,4.290917374876657,-3.5944223517404934,-8.935527054926984,0.8332743945616925
1970-01-01 00:00:00.000000018,4.341921602104914,-3.48749668276996,-8.5692808311926,0.818875176354966
1970-01-01 00:00:00.000000018,4.2888444755962425,-3.3544593847770305,-8.221526689001886,0.8076781765715235
1970-01-01 00:00:00.000000018,4.2614093101512935,-3.333485223322053,-8.162518288970327,0.8056511852419643
1970-01-01 00:00:00.000000018,4.245181322386014,-3.3552722208247645,-8.12209768910335,0.8070673603329621
1970-01-01 00:00:00.000000018,4.295759259221351,-3.50234297690467,-8.127597554778257,0.8094834170678569
1970-01-01 00:00:00.000000018,4.294324202310593,-3.513449818889544,-8.128497953197932,0.8113173484887396
1970-01-01 00:00:00.000000018,4.3377965954892606,-3.7082358387416,-8.189280887194451,0.8164453977774749
1970-01-01 00:00:00.000000018,4.348244123966538,-3.845876407521536,-8.219044581440313,0.8135439223929467
1970-01-01 00:00:00.000000018,4.1411170487892,-3.8038110831451792,-7.648306730499377,0.7936506993045436
1970-01-01 00:00:00.000000018,3.810224033460413,-3.522382888681405,-6.950597193325989,0.7674590188244388
1970-01-01 00:00:00.000000018,3.4760967734170354,-3.3055058714431382,-6.022796449492731,0.7405579600428698
1970-01-01 00:00:00.000000018,3.242738636171628,-3.2986633974429207,-5.237294700137306,0.7230122564513928
1970-01-01 00:00:00.000000018,3.1196360086847674,-3.3895355566022465,-4.765290151301018,0.7174373783360728
1970-01-01 00:00:00.000000018,3.155149228345585,-3.46815986027001,-4.674902614442321,0.7162278404483727
1970-01-01 00:00:00.000000018,3.157085207021714,-3.472481484426837,-4.678781252380441,0.7168076113091228
1970-01-01 00:00:00.000000018,3.1697113614413706,-3.524197718370419,-4.887548698945365,0.720014277060067
1970-01-01 00:00:00.000000018,3.07891962590827,-3.4990204693606164,-5.103197176930559,0.7232084228044358
1970-01-01 00:00:00.000000018,2.9632803195135833,-3.3517259036284153,-5.301146027441825,0.722036300675478
1970-01-01 00:00:00.000000018,2.785705970008907,-3.3647280103800403,-5.144894645772225,0.7224167249378505
1970-01-01 00:00:00.000000018,2.779281913010013,-3.3794835992093955,-4.994562630984952,0.7174561613476127
1970-01-01 00:00:00.000000018,2.702332156755813,-3.62488384763491,-4.976851070182751,0.723139063364323
1970-01-01 00:00:00.000000018,2.6532279467650923,-4.136359026636989,-4.77439500365323,0.7311139210630967
1970-01-01 00:00:00.000000018,2.6398472230535917,-4.162109387300841,-4.787113544191524,0.7294314008801448
1970-01-01 00:00:00.000000018,2.510427402573371,-4.276785484675042,-5.263861743707284,0.7451369597893146
1970-01-01 00:00:00.000000018,2.4861733649462066,-4.274997042843965,-5.301051879823698,0.7431622807906819
1970-01-01 00:00:00.000000018,2.3502292027355094,-4.0428636822741995,-5.759268021694686,0.74330972267486
1970-01-01 00:00:00.000000018,2.080337888506689,-3.291573682362668,-5.8584360097362245,0.7347430389050118
1970-01-01 00:00:00.000000018,2.090182882886271,-3.259833553814981,-5.848712053480667,0.732338626741133
1970-01-01 00:00:00.000000018,2.076943980571008,-3.1125963574474973,-5.445453521047569,0.7175299075777095
1970-01-01 00:00:00.000000018,2.0117011953917725,-3.285782528085086,-4.684047445621337,0.7032485583172888
1970-01-01 00:00:00.000000018,1.9617090337659422,-3.7467575300143454,-3.6670531398930417,0.6947496491025095
1970-01-01 00:00:00.000000018,2.1005954874322024,-4.315073517236838,-2.76479006642541,0.6843833437937688
1970-01-01 00:00:00.000000018,2.110757665805729,-3.9135429354354176,-3.38559415364819,0.6980792445520441
1970-01-01 00:00:00.000000018,2.4525220671593018,-3.149898628988464,-3.695564971544732,0.682237480920308
1970-01-01 00:00:00.000000018,2.497341921516692,-2.9744983327232424,-3.735438363529719,0.6993485661040177
1970-01-01 00:00:00.000000018,3.3385490225086576,0.4530683633551641,-5.046646125863458,0.6325926330603381
1970-01-01 00:00:00.000000018,3.3973023916953156,0.6078013815879951,-5.123549796508305,0.5989038760783365
1970-01-01 00:00:00.000000018,2.5070001526201144,2.1321193099717584,-5.114648009409708,0.5301565027837383
1970-01-01 00:00:00.000000018,0.7916262663321523,2.613753375845847,-2.0676130693574244,0.43744919855691833
1970-01-01 00:00:00.000000018,-0.7357698127908373,-0.09956597322052263,7.750307325672516,0.30997815844400867
1970-01-01 00:00:00.000000018,-0.5818063954723678,-0.2585818364534688,8.119363678861816,0.29320800705523375
1970-01-01 00:00:00.000000018,-0.7274167980345843,-1.5026280716864264,8.60202754293323,0.3039476826618961
1970-01-01 00:00:00.000000018,-1.2053264186202088,-1.370520447258066,4.327235632157411,0.4230291879158649
1970-01-01 00:00:00.000000018,-0.9739235605539066,-0.5975204302782056,-3.1127619006799656,0.5895380763475218
1970-01-01 00:00:00.000000018,-0.5012375601270154,-0.45923368597748604,-3.418509466240485,0.6155904690211282
1970-01-01 00:00:00.000000018,0.4298429892054575,0.22018784696621652,-4.665016749733042,0.6211756365809205
1970-01-01 00:00:00.000000018,0.968173591017725,0.9819534437796181,-3.4592948868373483,0.5515937196559201
1970-01-01 00:00:00.000000018,0.6501298193780092,0.6678692133520706,-0.36063111660674835,0.46496298367546757
1970-01-01 00:00:00.000000018,-0.22923695241859246,-0.36528638368515504,3.0564530380437023,0.40439925044814373
1970-01-01 00:00:00.000000018,-0.9740401205511973,-1.187972225021184,5.72749249161682,0.3642402375324181
1970-01-01 00:00:00.000000018,-1.4016575758731549,-1.8527318677353966,7.193076059761828,0.35511309835644866
1970-01-01 00:00:00.000000018,-1.381470134022085,-2.0138237624900155,7.3075255632970615,0.36357197071410763
1970-01-01 00:00:00.000000018,-1.1006599590991275,-1.4335365702518714,6.947087298501949,0.36609737144546195
1970-01-01 00:00:00.000000018,-0.6178904610956457,-0.4200836199422539,7.03541151062389,0.36043118395959106
1970-01-01 00:00:00.000000018,0.5153468389701257,1.2114904852631945,6.879235141795226,0.30355036019354337
1970-01-01 00:00:00.000000018,0.6091985195356634,1.2934828889288212,6.867093484727623,0.31637881942434865
1970-01-01 00:00:00.000000018,1.2627127955985726,1.4672823409053521,6.287023770941008,0.3112067006322278
1970-01-01 00:00:00.000000018,1.2680836142534886,1.4770589373034935,6.286466952467437,0.3079148307115426
1970-01-01 00:00:00.000000018,1.2103911669279708,1.6203254307348822,6.904600410125702,0.2773043043032168
1970-01-01 00:00:00.000000018,0.7930446987441176,1.9877439029035644,8.603760331291662,0.21311170711839073
1970-01-01 00:00:00.000000018,-0.0008522465557420644,2.651708271983609,10.499876859071486,0.14745422349357895
1970-01-01 00:00:00.000000018,-0.7234034639573517,3.6146663760450433,12.149201799029598,0.09223337387724334
1970-01-01 00:00:00.000000018,-1.0089120045913467,4.590872071412982,13.17515990490804,0.05722917265030819
1970-01-01 00:00:00.000000018,-0.7800742818697929,5.369338688903568,13.360574770285483,0.051207535757048006
1970-01-01 00:00:00.000000018,-0.009997379964476139,6.050891761326102,12.479978125143047,0.06278763641097573
1970-01-01 00:00:00.000000018,0.8647609863386382,6.597214531393769,11.316310273069357,0.0543284231098034
1970-01-01 00:00:00.000000018,0.786464840944368,6.636539112666129,11.123037774089967,0.03451242519204373
1970-01-01 00:00:00.000000018,-0.022007396467232043,6.135898575255264,12.552266692023432,-0.00814176698303637
1970-01-01 00:00:00.000000018,-1.3036853560708508,4.648865890235173,15.904306381551747,-0.07040255144711272
1970-01-01 00:00:00.000000018,-2.9426760298657366,1.634926562172477,20.615451710951948,-0.07348690973304561
1970-01-01 00:00:00.000000018,-2.9347450492615286,1.5242326526107302,20.742971178340063,-0.06586853587805003
1970-01-01 00:00:00.000000018,-2.7051138514289965,1.3871265426135393,19.312541588525907,-0.01939796340025396
1970-01-01 00:00:00.000000018,-2.2329534797021973,2.101321442307631,16.368789156212312,0.03305507970197169
1970-01-01 00:00:00.000000018,-1.9521495195177643,2.9672725646858935,13.2634857942,0.09839939162498024
1970-01-01 00:00:00.000000018,-1.3766650774554297,3.4753680421564455,9.95565752513255,0.15185284339533006
1970-01-01 00:00:00.000000018,-1.4158342609027468,2.6080187087341526,8.654621519574887,0.1847756265229878
1970-01-01 00:00:00.000000018,-2.098564181650457,1.971489788366281,8.749476198090077,0.18523587870397795
1970-01-01 00:00:00.000000018,-3.097595625800051,1.6720810844107716,9.13111133611243,0.1842627170176298
1970-01-01 00:00:00.000000018,-3.8287204321171595,1.7248808984862256,10.340711284707202,0.15783299981163457
1970-01-01 00:00:00.000000018,-3.7765488187744163,1.7283889380335475,10.396779114298093,-0.2762918475094311
1970-01-01 00:00:00.000000018,-2.8344161493520805,0.815805120225898,9.746509493147807,-0.24352819075977636
1970-01-01 00:00:00.000000018,-1.729933027258759,-0.3295942399922904,8.63103365263479,-0.17691285106247215
1970-01-01 00:00:00.000000018,-0.4817153312340542,-1.0274893813832777,6.7287593466259255,-0.09575856929254288
1970-01-01 00:00:00.000000018,1.1079889869049349,-0.2966058580277842,2.1614819055935905,-0.04255532050777874
1970-01-01 00:00:00.000000018,1.0496888182637243,-0.2089845961912285,1.9031362935767082,-0.03135089524177308
1970-01-01 00:00:00.000000018,1.1659616143889975,1.1952430505596676,-0.7355806893274127,-0.012697561325041226
1970-01-01 00:00:00.000000018,0.8512951990785772,2.325245857456891,-2.9191160092622126,0.03321563562029872
1970-01-01 00:00:00.000000018,1.2982859691169708,2.9869418271609898,-4.180004834367739,0.06006644945768011
1970-01-01 00:00:00.000000018,2.0457134163089292,2.5481581729393343,-4.465039821617266,0.0645531967865422
1970-01-01 00:00:00.000000018,2.109428187002012,2.5063844611468946,-4.433014730352558,0.12592548272482224
1970-01-01 00:00:00.000000018,4.253762737831232,0.18306371058828835,-4.917516465340399,0.14427626934509907
1970-01-01 00:00:00.000000018,4.2561292036665055,0.08431200588401465,-4.9419535526910465,0.16751007073999094
1970-01-01 00:00:00.000000019,4.900842381001023,-0.8338535359457516,-5.692443441543712,0.20128165640878293
1970-01-01 00:00:00.000000019,5.167771040157784,-1.8658146532753703,-6.2714765458452915,0.24963747544107168
1970-01-01 00:00:00.000000019,5.679092663313354,-2.7891243753063844,-6.8834055690963085,0.2929479076830772
1970-01-01 00:00:00.000000019,6.249754327748853,-4.012539998602973,-7.902470338360965,0.337959513396049
1970-01-01 00:00:00.000000019,6.358599742441534,-5.739420441016332,-8.923258420692116,0.3919940999677803
1970-01-01 00:00:00.000000019,6.027834747260218,-7.267031352244414,-9.59072646373256,0.4306617423276551
1970-01-01 00:00:00.000000019,5.250904774414976,-8.243780112035891,-10.299710142539894,0.46251890042596466
1970-01-01 00:00:00.000000019,4.295286449563191,-8.618511449659314,-10.804927161779187,0.5038687922388206
1970-01-01 00:00:00.000000019,4.234890363898731,-8.5988544093224,-10.826148606054579,0.49911310946562104
1970-01-01 00:00:00.000000019,4.003761590350192,-7.55165116658463,-10.752178766233722,0.4710915987938438
1970-01-01 00:00:00.000000019,3.803117658951824,-6.3405923663263,-10.277543360119646,0.4254947801043264
1970-01-01 00:00:00.000000019,3.500988766406353,-5.286117947289729,-9.383267180061006,0.3754922409585499
1970-01-01 00:00:00.000000019,3.20045678577945,-4.274914557952932,-8.210992848984029,0.32247337832007916
1970-01-01 00:00:00.000000019,2.980667058859219,-3.4418279961494216,-7.118792621217845,0.27603609497359144
1970-01-01 00:00:00.000000019,2.830227916229113,-2.788162315147049,-6.380128900963307,0.24678020890133007
1970-01-01 00:00:00.000000019,2.87590861808206,-2.239904210942172,-6.296037402912703,0.23567984724106225
1970-01-01 00:00:00.000000019,3.058006809460036,-2.0627924026107562,-6.4864219999990125,0.24303464428806415
1970-01-01 00:00:00.000000019,3.4539189601985227,-2.28257094753102,-6.914436885043431,0.24917526055386
1970-01-01 00:00:00.000000019,3.450972856845072,-2.2971436324974404,-6.933894347944444,0.25417693889535187
1970-01-01 00:00:00.000000019,3.5750505754627797,-2.58988911734888,-7.15029249690556,0.2640201021716356
1970-01-01 00:00:00.000000019,3.592142563526213,-2.980923558444222,-7.225064091027675,0.27330479721682155
1970-01-01 00:00:00.000000019,3.547647370315217,-3.239254328969286,-7.020645329165834,0.27100205435839386
1970-01-01 00:00:00.000000019,3.3958736530940214,-3.266152013539787,-6.6195684862631845,0.2565419806464979
1970-01-01 00:00:00.000000019,3.1018480209813375,-3.1181279542728273,-6.1289817176080685,0.23435350542908243
1970-01-01 00:00:00.000000019,2.654913157960843,-2.784346857804654,-4.973981995132658,0.20995855996064083
1970-01-01 00:00:00.000000019,2.677528517426406,-2.7932806278459634,-4.90257557236687,0.20048419211509413
1970-01-01 00:00:00.000000019,2.458782957471251,-3.1461721274327084,-3.9075004921691074,0.19117259375058476
1970-01-01 00:00:00.000000019,2.477552518503704,-3.167720240067375,-3.8642911434292193,0.1968224119204856
1970-01-01 00:00:00.000000019,2.713033157443134,-3.554906371377678,-3.8509923974110776,0.20040051111127313
1970-01-01 00:00:00.000000019,2.713451521865023,-3.573190748046409,-3.870942547586333,0.20555242716741545
1970-01-01 00:00:00.000000019,2.835934327491292,-3.797911657475831,-4.541124219020371,0.2228471908084028
1970-01-01 00:00:00.000000019,2.813142860244239,-3.8076522549564884,-4.576639617119049,0.22409347350401998
1970-01-01 00:00:00.000000019,2.7708281843949276,-3.8545844941622582,-4.874030711006932,0.23179132598720908
1970-01-01 00:00:00.000000019,2.724080266103927,-3.8150202924374783,-5.071080785081151,0.23538112313761472
1970-01-01 00:00:00.000000019,2.672675869060756,-3.786123207542436,-5.180310292076895,0.2383391928355159
1970-01-01 00:00:00.000000019,2.662127235098946,-3.868705772056506,-5.255696561843123,0.24137762257317763
1970-01-01 00:00:00.000000019,2.628675432278802,-3.955602045876333,-5.2601662855804925,0.2421872087472184
1970-01-01 00:00:00.000000019,2.5450215464765886,-3.9812274264408436,-5.317471108666595,0.24899905376532405
1970-01-01 00:00:00.000000019,2.6360135374364155,-4.009951497641495,-5.783966678032678,0.25837421330137944
1970-01-01 00:00:00.000000019,2.6268311887570146,-4.0028794452817005,-5.815045633617843,0.2616882699697973
1970-01-01 00:00:00.000000019,2.6980485521483306,-3.858852868752143,-6.2633247734368735,0.26614973209535864
1970-01-01 00:00:00.000000019,2.6736016985423676,-3.602645616647031,-6.461220854798535,0.25785689098402825
1970-01-01 00:00:00.000000019,2.438216054948724,-3.1254500043395703,-5.902509529745491,0.23311510085146467
1970-01-01 00:00:00.000000019,2.2515985795277484,-2.8569888246779804,-5.229020772486298,0.21376650784885548
1970-01-01 00:00:00.000000019,2.2476271827621463,-2.865997826870723,-5.133800892289369,0.18583104616285007
1970-01-01 00:00:00.000000019,1.4251951012217787,-2.688450880269401,-2.547101698764487,0.14017335911030324
1970-01-01 00:00:00.000000019,1.4573300346430496,-2.709203006400958,-2.3749720403496477,0.11182258381744435
1970-01-01 00:00:00.000000019,0.7340761130171426,-2.772834296203441,0.36005260567701397,0.06623240031369197
1970-01-01 00:00:00.000000019,0.7692019687380052,-2.7919843430214843,0.4617310416994966,0.04179087272270146
1970-01-01 00:00:00.000000019,0.08789916503457046,-2.643855184833377,1.073573300752691,0.029008943742545756
1970-01-01 00:00:00.000000019,-0.22146915240782117,-1.337128433473084,1.0297252926297618,-0.0035721776673776004
1970-01-01 00:00:00.000000019,-0.5508032643508364,0.6424003308676404,0.330022450058404,-0.024444890954215294
1970-01-01 00:00:00.000000019,-0.49630711379593806,1.8288866870291587,-0.7221698209230845,-0.009490557966670981
1970-01-01 00:00:00.000000019,0.2018716050515251,2.4577580502299607,-0.8583897836713904,-0.011582342835587857
1970-01-01 00:00:00.000000019,1.1363253394722175,2.0103744855482413,1.0254394781640204,-0.0734388822257299
1970-01-01 00:00:00.000000019,0.9016131368194454,-1.0471694671159932,4.675733167411365,-0.09079000394768444
1970-01-01 00:00:00.000000019,0.6190039054311894,-4.462481244299798,7.290824895323086,-0.0564223709815486
1970-01-01 00:00:00.000000019,0.8905883332753926,-5.499258648824179,5.36710448646633,0.007951467600266666
1970-01-01 00:00:00.000000019,0.8682010146725366,-4.222923511393938,1.4155750018269022,0.06569075874780327
1970-01-01 00:00:00.000000019,0.6598271132718793,-2.732701595005823,-0.6096048733335613,0.052673582396814356
1970-01-01 00:00:00.000000019,-0.3390923941985391,-0.7071822412345097,-0.022069269304166667,-0.040666721504994306
1970-01-01 00:00:00.000000019,-2.104462095150312,3.861315847198981,3.2362693676459866,-0.17814029750674135
1970-01-01 00:00:00.000000019,-1.9223450935815907,4.045723527829018,3.4843556079678293,-0.1861078989550293
1970-01-01 00:00:00.000000019,-1.4163201715788654,4.437910688493805,6.906023331794749,-0.28208168996973093
1970-01-01 00:00:00.000000019,-1.2890220026741024,4.418921506255273,7.119330795241988,-0.2890412854760488
1970-01-01 00:00:00.000000019,-1.1054923834201356,3.567373906500357,9.51031206584068,-0.32762909178177607
1970-01-01 00:00:00.000000019,-0.9936639792572619,3.0733395120425957,12.082260525244587,-0.38377864984360394
1970-01-01 00:00:00.000000019,-1.0953872834061524,3.019530042929039,14.067459240042574,-0.4276573297161966
1970-01-01 00:00:00.000000019,-1.0470281748482413,4.404294439350067,14.18946174821356,-0.4626464601849632
1970-01-01 00:00:00.000000019,-0.985280318743115,4.511260558505796,14.162848700706652,-0.448956356294794
1970-01-01 00:00:00.000000019,-0.3650078139191413,5.619479428874762,12.927191959434492,-0.4394363712060532
1970-01-01 00:00:00.000000019,0.35278137043868996,6.931379459050625,11.588029641962445,-0.4491302283308585
1970-01-01 00:00:00.000000019,0.5966266732901836,7.456920438500523,12.178762846560069,-0.4829253207185577
1970-01-01 00:00:00.000000019,0.5824470500734095,7.436732420978969,12.294827255674956,-0.5335933905546123
1970-01-01 00:00:00.000000019,-0.9938122945143358,7.6658127887547085,16.112530917486705,-0.5931383634328573
1970-01-01 00:00:00.000000019,-0.9674643201256924,7.628618935565329,16.331913576633536,-0.6427363619651079
1970-01-01 00:00:00.000000019,-2.3915065775660107,7.629894029836304,19.672131209945967,-0.6877478512978323
1970-01-01 00:00:00.000000019,-2.347076982761322,7.6031621545719394,19.790271376464563,-0.7018133385193674
1970-01-01 00:00:00.000000019,-2.6717178229090903,7.215804362602905,19.97551617359429,-0.7008920697281814
1970-01-01 00:00:00.000000019,-3.137635212663219,6.071493629276112,18.146603304150513,-0.6243345505720279
1970-01-01 00:00:00.000000019,-3.2341822311928814,6.007642641125019,18.025892051742616,-0.6130217824434765
1970-01-01 00:00:00.000000019,-3.239141777458288,5.26088959340892,16.428514005209777,-0.5512216630921072
1970-01-01 00:00:00.000000019,-3.0685190706615173,4.326542875481421,14.834152583486704,-0.47979662647798726
1970-01-01 00:00:00.000000019,-2.682023669748122,1.83858942254661,12.126427126888341,-0.3704658738564418
1970-01-01 00:00:00.000000019,-2.8200670264500576,1.7286594569223213,11.992667766143663,-0.3594940440007883
1970-01-01 00:00:00.000000019,-2.9232028589651424,1.095579525805699,10.935966170440247,-0.3255097027151763
1970-01-01 00:00:00.000000019,-3.23894392747194,1.2486809316308598,9.675112027542232,-0.2825747375096889
1970-01-01 00:00:00.000000019,-2.9990460046807046,1.4492933454736603,7.747546290446118,-0.22352049280033753
1970-01-01 00:00:00.000000019,-2.3003797589457546,1.001171705768642,6.1275701241137535,-0.13354625848862
1970-01-01 00:00:00.000000019,-0.42749653484619915,-0.10103064672864179,2.513473703616892,-0.06560184340075202
1970-01-01 00:00:00.000000019,-0.48504224457043194,-0.12604812033896842,2.3391709206453544,-0.03475246622866471
1970-01-01 00:00:00.000000019,0.23132598507216195,-0.41297623996531446,0.5334335162658641,0.016577617685005767
1970-01-01 00:00:00.000000019,0.8160671223544755,-0.44054776130213846,-2.1027033840446494,0.06611074114618999
1970-01-01 00:00:00.000000019,0.7804840768356551,-0.406267305508529,-2.2308788757875555,0.09395840294598477
1970-01-01 00:00:00.000000019,1.5670400951616343,-0.1438122187895213,-3.74616899358071,0.10562340703405729
1970-01-01 00:00:00.000000019,1.558468600430766,-0.12318057303972732,-3.8122019221227945,0.11135561574240727
1970-01-01 00:00:00.000000019,1.6947722096726083,0.032311176846278294,-4.2189084736053415,0.11535264814031534
1970-01-01 00:00:00.000000019,1.7098309834133976,-0.12234649899767101,-4.216255712108373,0.1352370371592138
1970-01-01 00:00:00.000000019,2.2192820111206686,-1.9334341482759727,-4.21776325181334,0.18827985666583585
1970-01-01 00:00:00.000000020,2.90558356120261,-3.5170750078369495,-5.100051590235176,0.26161958943498614
1970-01-01 00:00:00.000000020,3.8569544299257785,-5.803469223471238,-6.634507844686163,0.349570897929073
1970-01-01 00:00:00.000000020,4.4295018222865155,-8.046671674776393,-8.77673786518105,0.431717005760111
1970-01-01 00:00:00.000000020,4.097705499044193,-8.552645730425802,-9.558394250136564,0.4608085226594297
1970-01-01 00:00:00.000000020,3.7341677681249283,-7.689475625522235,-9.364619467308225,0.44540052724243445
1970-01-01 00:00:00.000000020,3.72671657238704,-7.192162410018831,-9.415297618529799,0.4360394615420091
1970-01-01 00:00:00.000000020,3.7756052889078218,-6.894317516972922,-9.493824304983084,0.43225686240504513
1970-01-01 00:00:00.000000020,3.8968167968840115,-6.15369769824015,-9.242245766003375,0.410608673404295
1970-01-01 00:00:00.000000020,4.063958096530036,-6.020770424534255,-8.562061466131052,0.3889272304878055
1970-01-01 00:00:00.000000020,4.169567999432087,-5.648760301733927,-7.425070357084017,0.3487700122174337
1970-01-01 00:00:00.000000020,4.145394562616372,-4.970051283978104,-6.389131736833696,0.3035695376867583
1970-01-01 00:00:00.000000020,4.033504598722592,-4.134818706431834,-5.423680878182771,0.255413164568069
1970-01-01 00:00:00.000000020,3.8086335478405546,-3.54313203829695,-4.673330222716592,0.21950765703560815
1970-01-01 00:00:00.000000020,3.5354961818196187,-3.249891933595081,-4.2263807411744665,0.20114796938405052
1970-01-01 00:00:00.000000020,3.311895872408317,-3.2116178060992606,-4.1966174263229,0.20381987900479887
1970-01-01 00:00:00.000000020,3.2895597880941168,-3.30059667765355,-4.419097616112457,0.215180917176865
1970-01-01 00:00:00.000000020,3.3983121426856977,-3.5322948628749273,-4.746820581041843,0.22826251244216544
1970-01-01 00:00:00.000000020,3.4697501293377573,-3.783452225405211,-4.957145677452966,0.23581931332589842
1970-01-01 00:00:00.000000020,3.4236834436953423,-3.7888000938579736,-4.263997580980413,0.22097407656484983
1970-01-01 00:00:00.000000020,3.428980327983658,-3.7888403824503207,-4.195479082708527,0.2057906802347824
1970-01-01 00:00:00.000000020,3.021712107612963,-3.4231669841266985,-2.677214403975719,0.1720975379483541
1970-01-01 00:00:00.000000020,3.0583130919464105,-3.414320142182118,-2.6169617778474987,0.1631908911591427
1970-01-01 00:00:00.000000020,2.88760422810551,-3.343847491528561,-2.311124234644767,0.1536858866104424
1970-01-01 00:00:00.000000020,2.7102831218465746,-3.4344344843376637,-2.8482649128098823,0.17145569207409125
1970-01-01 00:00:00.000000020,2.690724365278798,-3.434274081196047,-2.8904189068297717,0.1772273037823061
1970-01-01 00:00:00.000000020,2.7949019105174573,-3.457664878157876,-3.6097447417963155,0.1969823398457934
1970-01-01 00:00:00.000000020,2.9340048038319675,-3.5924059393470897,-4.492417431951284,0.2215675617735164
1970-01-01 00:00:00.000000020,3.019586236975036,-3.816378676509173,-5.714609113183935,0.25625863574353674
1970-01-01 00:00:00.000000020,3.1003660146848357,-3.8837603674024193,-5.985970665016811,0.2634735623001014
1970-01-01 00:00:00.000000020,3.0965942631864407,-3.885050775684439,-5.996498374598248,0.2676280140308923
1970-01-01 00:00:00.000000020,3.215071833869474,-3.954092093498935,-6.110966966557485,0.2710012991124124
1970-01-01 00:00:00.000000020,3.2784139576432327,-3.906439053613391,-6.030613027280527,0.2684037571775948
1970-01-01 00:00:00.000000020,3.360863075708883,-3.746754193936864,-5.442576609891032,0.24890830480842235
1970-01-01 00:00:00.000000020,3.3700498949703994,-3.726307941863883,-5.389339198959263,0.2317367134678503
1970-01-01 00:00:00.000000020,2.911679111320259,-2.9273369354304437,-4.1333584610516425,0.19420625978101114
1970-01-01 00:00:00.000000020,2.934789709844681,-2.9056157790396657,-4.0551657137167405,0.16800583633774394
1970-01-01 00:00:00.000000020,2.2075044935975647,-2.4776655499126488,-2.559492260572437,0.13857487006597938
1970-01-01 00:00:00.000000020,2.2115822065998727,-2.4582229721237088,-2.517994225260915,0.10664675192183266
1970-01-01 00:00:00.000000020,1.2041784816385959,-1.5381452315783943,-2.070142355623172,0.0970968976725723
1970-01-01 00:00:00.000000020,1.208769937877851,-1.4966453391463825,-2.050796435218179,0.09002242658416987
1970-01-01 00:00:00.000000020,1.054196086477537,-1.136154578006784,-1.8162370479005174,0.06863296746717835
1970-01-01 00:00:00.000000020,0.6777718549869205,-1.1290149655903168,-1.6870905566493302,0.06358099647611924
1970-01-01 00:00:00.000000020,0.33094411741875895,-1.1760266622870537,-1.3139851509866904,0.06927676803274399
1970-01-01 00:00:00.000000020,0.5421548337825104,-0.6301827690614876,-1.0469863728926703,0.05041388750659223
1970-01-01 00:00:00.000000020,0.7188513821341502,0.40116186678526145,-1.214576947957045,0.03196816380361489
1970-01-01 00:00:00.000000020,0.9595748308149964,1.6578517304670284,-1.8002926637440646,0.009025093394489472
1970-01-01 00:00:00.000000020,0.970255344397365,2.862050305610511,-2.142109523346694,-0.03707519236639936
1970-01-01 00:00:00.000000020,0.14673654450868776,2.54866042173372,-0.35551056589972324,-0.07890138657036315
1970-01-01 00:00:00.000000020,-0.7130521821530492,0.45285594971973503,3.044399112573947,-0.09218737651360175
1970-01-01 00:00:00.000000020,-0.7949941779904645,-1.2319829097341641,4.143853474963001,-0.07059090973015907
1970-01-01 00:00:00.000000020,-0.6480948064429852,-1.4031466318606958,1.9028925921084994,-0.0005193055192689172
1970-01-01 00:00:00.000000020,-0.09307152106762388,-0.6732461368303877,-0.7860234743592869,0.036299674384117714
1970-01-01 00:00:00.000000020,-0.015593336278646328,0.026830749860830533,-1.3241965873886596,0.031940326311036465
1970-01-01 00:00:00.000000020,-0.01311182165346831,0.09602162034667613,-1.26893914786067,0.02443437328772547
1970-01-01 00:00:00.000000020,-0.07201489974877326,1.386705300191245,0.8837918958423447,-0.051259946850643924
1970-01-01 00:00:00.000000020,0.017207624645561102,1.4425398349408975,0.9788386857279845,-0.06093458813108883
1970-01-01 00:00:00.000000020,-0.006198061242563668,1.8241036050137245,1.557085980613965,-0.08174057088801524
1970-01-01 00:00:00.000000020,0.04205822426037639,1.8625078436520488,2.116733134071448,-0.09181048262294339
1970-01-01 00:00:00.000000020,0.2668703758500754,1.9922009480490064,3.1233014137725705,-0.11854968547403565
1970-01-01 00:00:00.000000020,0.498510200484632,2.366970997742234,4.652458281859043,-0.16897778110492143
1970-01-01 00:00:00.000000020,0.538816125469882,2.395838973251329,6.472895178681687,-0.2140274220988133
1970-01-01 00:00:00.000000020,0.6105346494333446,2.412750390489957,8.457780652992884,-0.2676935051166829
1970-01-01 00:00:00.000000020,0.5182250098536194,2.444459961916569,10.083220844065385,-0.31765882411241136
1970-01-01 00:00:00.000000020,0.14404935580334444,2.2919740276456677,11.743487583160821,-0.3547892995301559
1970-01-01 00:00:00.000000020,-0.1568976446096525,2.0778638451536446,13.129968961914004,-0.3726272025644112
1970-01-01 00:00:00.000000020,-0.039485571317002366,2.6470167235909576,12.85234132060574,-0.36947823762052856
1970-01-01 00:00:00.000000020,0.4432072331352104,3.855171359287862,12.096830361926685,-0.38970154570419746
1970-01-01 00:00:00.000000020,0.5085646672300521,4.684286348498757,11.753754822732045,-0.4107871250754483
1970-01-01 00:00:00.000000020,0.26599223842301895,5.391561855664913,11.775551657324797,-0.4305490258465305
1970-01-01 00:00:00.000000020,0.03585785968676458,6.13800582192181,12.186261992505326,-0.4639145053130458
1970-01-01 00:00:00.000000020,-0.3265940819771669,6.43983091843115,12.858757722526013,-0.4899070353987725
1970-01-01 00:00:00.000000020,-0.6580041280662488,6.477948189279568,13.99071572925741,-0.5230562368934509
1970-01-01 00:00:00.000000020,-1.0630340720141072,6.038428950590326,15.714225725897474,-0.5589526022510467
1970-01-01 00:00:00.000000020,-1.5499425592097085,5.555427580733703,16.789172974048913,-0.5728699198103991
1970-01-01 00:00:00.000000020,-1.8929551252322239,5.284783584532777,17.420112428736587,-0.5818673773164666
1970-01-01 00:00:00.000000020,-2.1888892619084026,4.951274134901569,17.371407535089055,-0.5700043344839747
1970-01-01 00:00:00.000000020,-2.343713816445943,4.668047458765115,16.626320419623493,-0.5398202527953001
1970-01-01 00:00:00.000000020,-2.3133781320980464,4.599374519616889,15.05261106260581,-0.49177522312874855
1970-01-01 00:00:00.000000020,-2.0430620672936843,4.821714789790797,12.850828489633537,-0.43146055278051637
1970-01-01 00:00:00.000000020,-1.442425150434064,4.870089687682023,10.702923040447034,-0.37449481899771336
1970-01-01 00:00:00.000000020,-0.795291372544193,4.524517940628819,8.981904765441415,-0.326088397152753
1970-01-01 00:00:00.000000020,-0.3502044063603583,4.172155809958137,7.938766727133159,-0.29963080346451665
1970-01-01 00:00:00.000000020,-0.2520349881573326,3.8400506315461262,7.581158570459033,-0.2975815930840343
1970-01-01 00:00:00.000000020,-0.6735875788595846,3.4375089496313445,7.93081238310488,-0.3067745019602773
1970-01-01 00:00:00.000000020,-1.3613549888513128,2.6419967741748547,9.220081539047369,-0.3160241941688181
1970-01-01 00:00:00.000000020,-1.8332634138296187,2.587590524363206,9.252575742447732,-0.3096921693242552
1970-01-01 00:00:00.000000020,-2.0427852488767893,1.9969160489278557,8.873432172337582,-0.27169571228981637
1970-01-01 00:00:00.000000020,-1.7702106972464269,1.4125378825208978,7.163487996499138,-0.192696976668674
1970-01-01 00:00:00.000000020,-0.8105490742851753,0.7293188893873098,4.378455843390046,-0.09341054751346171
1970-01-01 00:00:00.000000020,0.40856634449625945,-0.13124666741277163,1.144500976682846,0.010293395455970062
1970-01-01 00:00:00.000000020,1.486426617629048,-0.29860049493323165,-3.7525510583543227,0.09571063942355358
1970-01-01 00:00:00.000000020,1.182629378104201,1.3121992343736786,-4.22021362209148,0.06705979913811866
1970-01-01 00:00:00.000000020,0.8326015959728885,3.013771668277452,-2.657424892860753,0.0006957825605342885
1970-01-01 00:00:00.000000021,0.9070241814921365,3.091625611466132,-2.4982686828002234,-0.0162838676550574
1970-01-01 00:00:00.000000021,0.7237593025373119,3.8246930934495746,0.5687437093961651,-0.07578695710565676
1970-01-01 00:00:00.000000021,1.6730173292167976,3.038993371495715,4.468254296320049,-0.16605851437433614
1970-01-01 00:00:00.000000021,1.8198222631852936,2.9936782578909105,4.5896726122014675,-0.14224261004514596
1970-01-01 00:00:00.000000021,2.837362727761751,1.9021072303785895,3.3146938719393306,-0.06270431802479465
1970-01-01 00:00:00.000000021,4.350582789690304,0.46539571631773624,0.009240684147163641,0.05140477736238626
1970-01-01 00:00:00.000000021,5.455636159353644,-1.5887263501598285,-4.067498860326033,0.19832984644911972
1970-01-01 00:00:00.000000021,6.232443862767481,-3.5747494047105843,-8.04545214702757,0.33975884268633677
1970-01-01 00:00:00.000000021,6.713323834011835,-4.9748468016039755,-11.205048333996363,0.4298196815038815
1970-01-01 00:00:00.000000021,6.3888869835977165,-5.561781561461863,-12.556520193739424,0.44970523505303606
1970-01-01 00:00:00.000000021,5.219090837476106,-5.249433989722654,-11.877175528824484,0.4060430330717352
1970-01-01 00:00:00.000000021,3.624742037049488,-4.850271841904262,-9.554554765376123,0.33612097702933746
1970-01-01 00:00:00.000000021,2.2355369197773927,-4.608744149383657,-6.496641544022148,0.2683849390290489
1970-01-01 00:00:00.000000021,1.5531902704626641,-4.775327966787403,-3.7942746985547884,0.22076460142207027
1970-01-01 00:00:00.000000021,1.4737687851079335,-5.306596239990196,-2.430260603071112,0.21077401325284315
1970-01-01 00:00:00.000000021,1.7481596600442257,-5.7314953736098895,-3.0514864450272836,0.24140889574269309
1970-01-01 00:00:00.000000021,2.1532059047221095,-5.714819567184644,-5.230914132373442,0.2862254520919126
1970-01-01 00:00:00.000000021,2.1976592134822837,-4.960943764033428,-8.57550595271346,0.34436748708116804
1970-01-01 00:00:00.000000021,2.1251517764749095,-4.892571702943621,-8.719656232115588,0.34978705787395165
1970-01-01 00:00:00.000000021,2.1318013737049233,-3.8962654332149684,-9.362985532178254,0.3421098577447222
1970-01-01 00:00:00.000000021,2.144055288759926,-3.8510085922466724,-9.375366735083349,0.34276550284736884
1970-01-01 00:00:00.000000021,2.228710261404568,-3.663757703091417,-9.104707460718554,0.32976757348783237
1970-01-01 00:00:00.000000021,2.2290756132076153,-3.567815370024935,-8.69910068312095,0.313593002520742
1970-01-01 00:00:00.000000021,2.0981879989185708,-3.5024777556044415,-8.356231451569712,0.3020230265495852
1970-01-01 00:00:00.000000021,1.9457691136415667,-3.5444774473619174,-8.214541925328232,0.29563529825104573
1970-01-01 00:00:00.000000021,1.679557971565068,-3.5693245349121763,-8.557311744037317,0.30921881448383504
1970-01-01 00:00:00.000000021,1.6574267942822507,-3.573775655072211,-8.579365823484801,0.3067820330069258
1970-01-01 00:00:00.000000021,1.514316062836657,-3.5875407026360056,-8.750488040650664,0.30897352610478374
1970-01-01 00:00:00.000000021,1.3425547627915915,-3.5245316110140608,-8.668519568997189,0.30079487690818013
1970-01-01 00:00:00.000000021,1.0555074040198391,-3.3531364242636434,-7.827863951793307,0.2841645208961459
1970-01-01 00:00:00.000000021,1.0726825458814087,-3.353081411673701,-7.77673669699149,0.27871761971826003
1970-01-01 00:00:00.000000021,0.9752510465462542,-3.405533949159812,-7.1194991252105275,0.2657389532633369
1970-01-01 00:00:00.000000021,0.9502542134557691,-3.4884987588285905,-6.591903226880311,0.254070575204316
1970-01-01 00:00:00.000000021,0.9064033098880864,-3.6325541199608793,-6.210509581306718,0.24554499650437686
1970-01-01 00:00:00.000000021,0.7837052301027755,-3.7241356345547114,-5.9755286228406606,0.24197117597423298
1970-01-01 00:00:00.000000021,0.6875493660941734,-3.7153633718580727,-5.925018594232952,0.24142139595803902
1970-01-01 00:00:00.000000021,0.640559226835366,-3.6232412450158735,-6.032539260851651,0.24384067549020436
1970-01-01 00:00:00.000000021,0.6657233496233076,-3.4527691651809733,-6.2941603703721904,0.25165792066694964
1970-01-01 00:00:00.000000021,0.8731321314538645,-3.144160332617603,-6.952424856944742,0.2582890647702306
1970-01-01 00:00:00.000000021,0.9710577419130266,-3.021135709814902,-7.252886661456383,0.2655709338087457
1970-01-01 00:00:00.000000021,1.138419358045704,-3.0621236730084713,-7.511134843001277,0.27650630744218385
1970-01-01 00:00:00.000000021,1.3987075752711489,-3.32573505334062,-7.467285691504838,0.28056777520350684
1970-01-01 00:00:00.000000021,1.5771187911287505,-3.391040503832045,-7.138896564273194,0.26550588640876166
1970-01-01 00:00:00.000000021,1.4182724110915899,-3.1188670930434754,-6.794430086790157,0.2515826149142423
1970-01-01 00:00:00.000000021,1.3389644447850717,-2.8603450975411167,-6.3526898682603665,0.23525062707642702
1970-01-01 00:00:00.000000021,1.298619929687683,-2.737005301244148,-6.104751116917203,0.22362955547173102
1970-01-01 00:00:00.000000021,1.200737309579718,-2.634991452992554,-5.5717837054457275,0.20655395371869928
1970-01-01 00:00:00.000000021,1.0820224880593785,-2.7047702859851084,-4.380415286547741,0.18132083850285188
1970-01-01 00:00:00.000000021,1.0746617901979616,-2.6901817336896343,-3.245804496427599,0.14273322077401096
1970-01-01 00:00:00.000000021,0.7350728142282295,-2.7567295678096584,-0.8328991611721187,0.09588307822073239
1970-01-01 00:00:00.000000021,0.7787176594661269,-2.6103810328233754,-0.7363372908717986,0.07724545553353501
1970-01-01 00:00:00.000000021,0.4573332576442604,-1.9166896947096796,0.008660931345351341,0.04661284489650291
1970-01-01 00:00:00.000000021,0.2935285149835518,-0.7640599949531575,-0.40363683341886153,0.05748208605688211
1970-01-01 00:00:00.000000021,1.2332825295332845,1.2873892162358185,-0.6565360483931781,0.005722863900760653
1970-01-01 00:00:00.000000021,1.759572418778725,3.057972482877713,1.2115671763605032,-0.11856111117889305
1970-01-01 00:00:00.000000021,0.9508210759264671,2.0177777867203686,5.6087597753847085,-0.2169629004729235
1970-01-01 00:00:00.000000021,-0.2319054215354891,-0.5933032889222275,9.959615711532186,-0.25476824908450973
1970-01-01 00:00:00.000000021,-1.0134860180293987,-2.1008272708410822,10.73700375276376,-0.2256405080294062
1970-01-01 00:00:00.000000021,-1.2325229615620283,-1.9583737257877143,8.110144911088675,-0.16686616971017162
1970-01-01 00:00:00.000000021,-1.4725187671687023,-1.340089787116924,4.672082384940662,-0.09457253583498716
1970-01-01 00:00:00.000000021,-1.5077938787466287,-0.15468684430619525,2.355443164372242,-0.06722861577142887
1970-01-01 00:00:00.000000021,-1.521196206955182,1.5214110725574608,2.0327491348176845,-0.11273400828578825
1970-01-01 00:00:00.000000021,-1.9869173931343274,2.782100293442665,3.328097965790299,-0.17727511785977007
1970-01-01 00:00:00.000000021,-2.433042850186093,3.284047967546339,5.2646470586721374,-0.2349430567762269
1970-01-01 00:00:00.000000021,-2.7290754508447868,3.038142911004349,6.968320699053228,-0.26523933440256703
1970-01-01 00:00:00.000000021,-2.7541954037792293,2.6340290160775615,8.518230202271601,-0.28830058558657556
1970-01-01 00:00:00.000000021,-2.576040178459386,2.5228369180736694,10.216091157263826,-0.3266800814511125
1970-01-01 00:00:00.000000021,-2.447206606263361,2.4166556283661746,11.500318900306368,-0.34797375713868717
1970-01-01 00:00:00.000000021,-2.0829075696565265,2.6858857944194177,12.001539897614505,-0.35959061468697234
1970-01-01 00:00:00.000000021,-1.567730564879642,3.1130983514651027,11.552095865792372,-0.35013530890253847
1970-01-01 00:00:00.000000021,-0.8532791876315907,3.6282507563615995,10.415529540002783,-0.3335816644582613
1970-01-01 00:00:00.000000021,-0.23133493842977038,4.434431949526153,9.251961593510831,-0.32180975224237235
1970-01-01 00:00:00.000000021,0.40728209678200994,6.602878387355606,7.8888999913005735,-0.35381513957478866
1970-01-01 00:00:00.000000021,0.44389916605518387,6.71072326940761,7.865776931936978,-0.3637602559445464
1970-01-01 00:00:00.000000021,0.3163203702032115,7.626285105191624,8.776712389539655,-0.42807655238612335
1970-01-01 00:00:00.000000021,-0.46173757277886435,7.894350888714388,11.050833903581749,-0.4989303405328012
1970-01-01 00:00:00.000000021,-1.3503825501392406,7.497552022382093,14.072166139452895,-0.5666795097142565
1970-01-01 00:00:00.000000021,-2.1610502662727247,6.968882649364254,17.076980795408826,-0.6220874879897698
1970-01-01 00:00:00.000000021,-2.6444037559123035,6.497151742996187,19.0911875691293,-0.6448104334656091
1970-01-01 00:00:00.000000021,-2.571707250012457,6.38822465493777,18.81909381448717,-0.6037839721767723
1970-01-01 00:00:00.000000021,-1.4470366481137207,6.354002614059553,14.89343409576013,-0.5382681415714502
1970-01-01 00:00:00.000000021,-1.511809380326926,6.334674741336283,14.718455587702685,-0.5146270335859903
1970-01-01 00:00:00.000000021,-1.0447157559884803,5.325886851474102,13.398538221666586,-0.46299031579604166
1970-01-01 00:00:00.000000021,-0.8130316481240516,4.276050281694309,12.603856430524955,-0.4243314596772194
1970-01-01 00:00:00.000000021,-0.8545277374154987,3.474350856906969,12.00246550514201,-0.3970789928540345
1970-01-01 00:00:00.000000021,-1.1359132566889467,2.953833174241738,11.38512252775731,-0.37439102793372625
1970-01-01 00:00:00.000000021,-1.5414282040194152,2.8890886672800487,10.505786563965428,-0.3515349416964995
1970-01-01 00:00:00.000000021,-1.8837002819777893,3.3429450777892944,9.312498934779216,-0.3256681624018328
1970-01-01 00:00:00.000000021,-1.8988439442156086,3.754528703096104,8.315784945138663,-0.30740517308771054
1970-01-01 00:00:00.000000021,-1.800922358216559,3.716501883968579,7.6508665621278,-0.2870995328032547
1970-01-01 00:00:00.000000021,-1.6267420615236023,3.268832149162548,7.435422217419101,-0.2664722274930757
1970-01-01 00:00:00.000000021,-1.3788620637295939,2.4755323763177284,7.289099541085431,-0.22408437661222486
1970-01-01 00:00:00.000000021,-0.5548369541406024,0.9363598123579997,6.2360831928294385,-0.16798814009518606
1970-01-01 00:00:00.000000021,-0.10731760347267141,0.23032739385071554,5.25929150181176,-0.13745056945544218
1970-01-01 00:00:00.000000022,-0.12627420842830817,0.2079628452570404,5.190270379733807,-0.11769421155601578
1970-01-01 00:00:00.000000022,0.3873426306651101,-0.15621884298173955,3.8371204799298586,-0.08118141362808677
1970-01-01 00:00:00.000000022,0.6212292568878909,-0.14292275648227168,2.1949314276540837,-0.04125510712060058
1970-01-01 00:00:00.000000022,0.811306288414218,0.3198676341128022,0.4485912828827828,-0.010143262475725081
1970-01-01 00:00:00.000000022,0.9336971182913482,1.0309862415775362,-1.0813294257693364,0.01902438432562934
1970-01-01 00:00:00.000000022,1.3795924447848533,2.490378429667512,-1.9208682374680572,-0.002580819545460563
1970-01-01 00:00:00.000000022,1.4253980144965561,2.558306946056684,-1.9330373992568295,0.01036907455832719
1970-01-01 00:00:00.000000022,1.968206394421561,2.5733933451554356,-1.7816573111738572,0.02203006391277079
1970-01-01 00:00:00.000000022,2.8836396676799025,1.8909571270739327,-1.9540662485034501,0.052086405020347185
1970-01-01 00:00:00.000000022,3.8692074145866857,0.22284128515313673,-2.487739199106908,0.12469507094899128
1970-01-01 00:00:00.000000022,5.222629926598401,-4.436439974100996,-4.777089673544833,0.25248296444066576
1970-01-01 00:00:00.000000022,5.076306552396073,-4.668454634324001,-4.905416035047643,0.2806109205049675
1970-01-01 00:00:00.000000022,5.384544894583133,-6.822355862613303,-6.62966398270778,0.36349117922717034
1970-01-01 00:00:00.000000022,5.302440173305765,-8.14088491113723,-8.701242752964356,0.4279196637266396
1970-01-01 00:00:00.000000022,4.651010148550795,-8.478940368046793,-10.301293977284757,0.44293611143715655
1970-01-01 00:00:00.000000022,2.9479533339313497,-7.81402657592115,-12.207216183518865,0.5078337952817391
1970-01-01 00:00:00.000000022,2.847652745156955,-7.768670369547005,-12.312436165447298,0.49968317344713176
1970-01-01 00:00:00.000000022,2.348904059133921,-6.918562137334813,-12.957049019045078,0.505123152303915
1970-01-01 00:00:00.000000022,2.3289217911364157,-5.92754366156541,-13.422923671842288,0.4936056156862142
1970-01-01 00:00:00.000000022,2.357259345189004,-5.229772817293522,-13.316546213058942,0.4675723788615231
1970-01-01 00:00:00.000000022,2.175120552530105,-4.974712508372773,-12.322214183762197,0.43245851056185364
1970-01-01 00:00:00.000000022,1.8945497880074118,-4.90814388076631,-10.7039157205153,0.3881284343135568
1970-01-01 00:00:00.000000022,1.574917617484173,-4.7492154260319905,-8.88755342386553,0.34296606218957815
1970-01-01 00:00:00.000000022,1.4213328139442425,-4.631465873819947,-7.320819975576624,0.31116199308241244
1970-01-01 00:00:00.000000022,1.6409369828156304,-4.58566456893324,-5.809887318530011,0.2731063492088064
1970-01-01 00:00:00.000000022,1.789258577061292,-4.482899341981053,-5.597559479337315,0.26128758095174714
1970-01-01 00:00:00.000000022,1.8000809921095093,-4.47636979333325,-5.597970752355607,0.2579062077102607
1970-01-01 00:00:00.000000022,1.7126855627901991,-4.324656579293469,-5.743222335540944,0.2566085259484368
1970-01-01 00:00:00.000000022,1.6056688733737774,-3.9518521748691318,-6.131526634528578,0.2580296656187646
1970-01-01 00:00:00.000000022,1.5507478304074636,-3.5708857534708,-6.7535304080283325,0.2646588344604461
1970-01-01 00:00:00.000000022,1.5319728328491815,-3.3260665983998483,-7.327797811793813,0.27375543525581686
1970-01-01 00:00:00.000000022,1.5661705045254533,-3.339131600616674,-7.203229707696153,0.27051872015502293
1970-01-01 00:00:00.000000022,1.5655028919381584,-3.345859993952083,-7.174777671704036,0.2648766332280177
1970-01-01 00:00:00.000000022,1.4135107137902119,-3.3836729275097737,-6.400352119732913,0.24656568558132375
1970-01-01 00:00:00.000000022,1.2815590969550632,-3.433824432328276,-5.5552449446011885,0.22188149395116538
1970-01-01 00:00:00.000000022,0.9964797165127608,-3.618461000207425,-4.380135639352885,0.20536039624636646
1970-01-01 00:00:00.000000022,1.0170880695154494,-3.633198748089202,-4.3269934927436795,0.2042730298837594
1970-01-01 00:00:00.000000022,1.047299244927125,-3.8338142337460233,-4.0545977002715725,0.2041023750700021
1970-01-01 00:00:00.000000022,1.1150188152475558,-3.9750646122417472,-4.2424234637770075,0.2112120478180394
1970-01-01 00:00:00.000000022,1.138203907671802,-4.017847807092059,-4.765753332018618,0.22370540570609612
1970-01-01 00:00:00.000000022,1.0992433863098823,-3.8369890326993072,-6.013079354181133,0.24867105279110854
1970-01-01 00:00:00.000000022,1.0671022556327485,-3.8203806654508874,-6.076913820533645,0.25088842999214744
1970-01-01 00:00:00.000000022,1.036573060941437,-3.5774146941012326,-6.5777195598538984,0.2611907973702423
1970-01-01 00:00:00.000000022,1.1513541624795094,-3.5516099586851015,-6.803308178924283,0.2694692156017501
1970-01-01 00:00:00.000000022,1.3486246883955224,-3.803555042213624,-6.849102122918798,0.276977172059888
1970-01-01 00:00:00.000000022,1.513393934139859,-4.071999115757981,-6.8000720745583845,0.2812914953400724
1970-01-01 00:00:00.000000022,1.6089840600259655,-4.176060163412995,-6.788482970318759,0.282254121960825
1970-01-01 00:00:00.000000022,1.6441554748389815,-4.242681067441656,-6.800023895096878,0.2785140265534162
1970-01-01 00:00:00.000000022,1.4954290195909834,-4.098592048474183,-6.7844255882596105,0.2653612040187481
1970-01-01 00:00:00.000000022,1.0796192437020469,-3.3118869140387037,-6.5220496605900955,0.24365580927524919
1970-01-01 00:00:00.000000022,0.8640842618760368,-2.9056283757429804,-6.144188992845216,0.2300719012407398
1970-01-01 00:00:00.000000022,0.8778962551854015,-2.882510935463894,-6.113484850672802,0.22585381978260824
1970-01-01 00:00:00.000000022,0.8244164559525873,-2.5818157569533593,-5.579550850491758,0.2083323577183526
1970-01-01 00:00:00.000000022,0.8785869855780942,-2.2951967919319176,-4.753070402259825,0.18043754895774317
1970-01-01 00:00:00.000000022,0.9071333666005824,-1.9076084543045613,-3.7724608396197072,0.14437063504444267
1970-01-01 00:00:00.000000022,0.8413488571528761,-1.5643707409029102,-2.9575115340839844,0.11343033063050267
1970-01-01 00:00:00.000000022,0.6895425713852011,-1.3907639067070763,-1.8907129372809321,0.10788593534603165
1970-01-01 00:00:00.000000022,1.498993930172066,-0.7545109497017994,0.1400060179851519,0.031233714198700774
1970-01-01 00:00:00.000000022,1.6103541021492072,-0.6826884394098122,0.21921871871173407,0.033767643850596184
1970-01-01 00:00:00.000000022,2.0579722505478775,0.43182046929543544,0.13879677089020934,-0.009609946574053717
1970-01-01 00:00:00.000000022,1.8557041666318894,3.7746049791041454,0.46105796404149246,-0.11047233263247141
1970-01-01 00:00:00.000000022,1.1989537722759522,3.8944532081913623,0.5717074999049345,-0.1362037928277926
1970-01-01 00:00:00.000000022,0.20822983630901123,4.464858662635489,3.8142715539646446,-0.22780305314502666
1970-01-01 00:00:00.000000022,-0.6305886516512723,3.144907534721594,7.651801308895199,-0.2763017903332504
1970-01-01 00:00:00.000000022,-0.8817086182346756,1.9192596532060624,9.005978664564232,-0.26073040749428483
1970-01-01 00:00:00.000000022,-0.43582835674334686,1.973861237209106,7.058380769706068,-0.21466107664532152
1970-01-01 00:00:00.000000022,-0.07171332496058302,1.9956558166751655,4.440964182735046,-0.16445659669392326
1970-01-01 00:00:00.000000022,-0.13490206465490284,2.946995062621931,4.635801413741731,-0.18751778448906956
1970-01-01 00:00:00.000000022,-0.11506613811315297,3.017500931673785,4.669964045848586,-0.20423352695405542
1970-01-01 00:00:00.000000022,-0.4414312659450989,4.298006078786028,5.725703810385806,-0.3043114570546984
1970-01-01 00:00:00.000000022,-2.1502946636720672,4.622454517600049,11.517830156619267,-0.4183844914716391
1970-01-01 00:00:00.000000022,-2.4380557408573975,4.303101507267816,12.800546029187137,-0.44723420182676055
1970-01-01 00:00:00.000000022,-2.7399932095522437,4.0065309838709595,14.042157436673142,-0.4616941526111154
1970-01-01 00:00:00.000000022,-2.698292039228722,3.9338020166705996,14.3982717204103,-0.45794095925070655
1970-01-01 00:00:00.000000022,-2.3313435260593214,3.9329897789615638,13.688045327131109,-0.42584543443181366
1970-01-01 00:00:00.000000022,-1.6015701869233097,4.204951155633262,10.37698125247137,-0.3418566300665121
1970-01-01 00:00:00.000000022,-0.5820137645591261,5.326201737670551,8.490958804129852,-0.3287732628300372
1970-01-01 00:00:00.000000022,-0.016695215260422003,6.422709298024507,6.6991199955874805,-0.3398079297916135
1970-01-01 00:00:00.000000022,-0.46182110323225783,6.297158647021762,7.8454904147627245,-0.3858315035128979
1970-01-01 00:00:00.000000022,-1.5610199817357384,5.52175381918969,10.550300850632508,-0.4064630174300836
1970-01-01 00:00:00.000000022,-1.5455366426503672,5.4622717060692505,10.684709787284627,-0.41659273212966347
1970-01-01 00:00:00.000000022,-1.7855857990584665,4.873681414871198,11.850962576243571,-0.42744157987957215
1970-01-01 00:00:00.000000022,-1.9087290282645248,4.346423517211316,12.260576793050157,-0.405032902860409
1970-01-01 00:00:00.000000022,-1.406767896413661,3.6609464246592807,10.615803710935403,-0.3272539225267113
1970-01-01 00:00:00.000000022,-0.32019273667942416,2.205459306927879,7.072452760544241,-0.2244936470223431
1970-01-01 00:00:00.000000022,-0.031688453042078096,1.4480632207888773,5.402029182154412,-0.17246618868121252
1970-01-01 00:00:00.000000022,-0.08062471376217836,1.4195952798977647,5.309682783150853,-0.15474582184449226
1970-01-01 00:00:00.000000022,0.28760904866384407,1.018788296350184,4.097184922818034,-0.11789204122064464
1970-01-01 00:00:00.000000022,0.512654879565589,0.5303424539117731,3.2569638652906114,-0.08568555875834725
1970-01-01 00:00:00.000000022,0.68090849312402,-0.3200699362071749,3.220311544553572,-0.06614594072961397
1970-01-01 00:00:00.000000022,0.724065300273075,-1.5204194438641652,3.5932591252971924,-0.04844355329988826
1970-01-01 00:00:00.000000022,0.6523450570821995,-2.5082849864761285,3.5206549001197684,-0.018859936718250713
1970-01-01 00:00:00.000000022,0.7108836249005497,-2.975904830732082,2.6917935381957876,0.016595622166359365
1970-01-01 00:00:00.000000022,0.8836969384606244,-3.013679819325908,1.485236255130668,0.04440735917411223
1970-01-01 00:00:00.000000022,0.9325807549730394,-2.7665584066666566,0.28647723473301834,0.05929495993543642
1970-01-01 00:00:00.000000023,0.6677343807096887,-1.9084905956237646,-1.4754443522891072,0.08146312413273905
1970-01-01 00:00:00.000000023,0.4719075367145081,-1.5586998850167813,-2.169486956380723,0.09419718180675199
1970-01-01 00:00:00.000000023,0.45566896612450075,-1.543796364259712,-2.218093534420822,0.09447072021916306
1970-01-01 00:00:00.000000023,0.41319935500597427,-1.4888642471188782,-2.8341007701049055,0.09144996698721697
1970-01-01 00:00:00.000000023,-0.15096676535320933,-0.7059367534127386,-2.3530257038743634,0.07427994297293705
1970-01-01 00:00:00.000000023,-0.15422666690766804,-0.6864585684270949,-2.3126237079049177,0.049078019880066964
1970-01-01 00:00:00.000000023,-0.9183292242388857,-0.31517444054202104,-1.0745442559816285,0.014096747365630947
1970-01-01 00:00:00.000000023,-1.3930929955536686,0.33170080594815976,-0.04511907144342574,-0.013513708852411653
1970-01-01 00:00:00.000000023,-1.3865671048163308,0.6650560934902359,-0.9997107806429342,0.014993005967184248
1970-01-01 00:00:00.000000023,-0.9301960854961518,0.28378769385916924,-2.7880980303448384,0.0772988455373398
1970-01-01 00:00:00.000000023,-0.2573086056310687,-0.4261999593545528,-4.452347638729597,0.14866422347910493
1970-01-01 00:00:00.000000023,0.7176584469274692,-2.2741921106599734,-5.908293729582128,0.20362967417063607
1970-01-01 00:00:00.000000023,0.6615852582312287,-2.356939487487517,-5.951535519010682,0.21938452010522885
1970-01-01 00:00:00.000000023,0.9721137971377924,-3.095800919214226,-6.015792151417537,0.23712550095927282
1970-01-01 00:00:00.000000023,1.1669497580670873,-3.6684692691488605,-5.913636507115228,0.24422006794279144
1970-01-01 00:00:00.000000023,1.1965227429924492,-3.8354655928850705,-5.28498978577368,0.22422008841600014
1970-01-01 00:00:00.000000023,0.9220633283165068,-3.7544423688834554,-4.146428338909701,0.19438168915363932
1970-01-01 00:00:00.000000023,0.6948672064662547,-3.638683252252688,-2.7727802500726977,0.16988063344783214
1970-01-01 00:00:00.000000023,0.8817320365481245,-3.4583541505816653,-2.6869871216956933,0.17404670529528904
1970-01-01 00:00:00.000000023,1.400219435413156,-3.0782407896715065,-3.867234011930219,0.18801843330577317
1970-01-01 00:00:00.000000023,1.6476347702587708,-2.8621933900605203,-4.936377419931696,0.19440477444907794
1970-01-01 00:00:00.000000023,1.3537454705965974,-3.0549496682185713,-5.018925252481649,0.20694155056326768
1970-01-01 00:00:00.000000023,1.3325835935214172,-3.061456609545905,-5.014613354777774,0.20300813305415316
1970-01-01 00:00:00.000000023,1.1764733543235149,-2.9373923691949675,-4.708648906192335,0.19126446222481802
1970-01-01 00:00:00.000000023,1.0245864275140633,-2.794013453887442,-4.16478320758451,0.16525625184667872
1970-01-01 00:00:00.000000023,0.6039590287003865,-2.389041717119899,-2.878568529943453,0.13258350628150117
1970-01-01 00:00:00.000000023,0.532232982109831,-2.0063241935623255,-2.6027783861012503,0.11828713254136186
1970-01-01 00:00:00.000000023,0.5478493578910051,-1.9774329433136968,-2.5921693290411656,0.11544763808440432
1970-01-01 00:00:00.000000023,0.5269380979682403,-1.5302962159534683,-2.5317244380561386,0.1028681556916124
1970-01-01 00:00:00.000000023,0.48326974249826704,-1.151179651301556,-2.575005262346207,0.10137780171747397
1970-01-01 00:00:00.000000023,0.6985679012479644,-0.8493178279561888,-2.2911811040591203,0.08656903191252036
1970-01-01 00:00:00.000000023,0.8426318677179768,-0.6944784551648461,-1.9509612988993303,0.07190930827125132
1970-01-01 00:00:00.000000023,0.8622002224794459,-0.685382690044542,-1.918556194772702,0.07120006286136299
1970-01-01 00:00:00.000000023,0.9247976771523475,-0.6062120232027226,-1.3954138071285878,0.05513454182058082
1970-01-01 00:00:00.000000023,0.9132508643991092,-0.5571746199681338,-0.8824492812383289,0.04259988275514362
1970-01-01 00:00:00.000000023,0.9436199682648944,-0.4955039092727099,-0.7387179796421154,0.03706109923247119
1970-01-01 00:00:00.000000023,0.9527326671954225,-0.49073325730565265,-0.732238496009394,0.038747469610968525
1970-01-01 00:00:00.000000023,1.0376299569311105,-0.47721414192731526,-0.7546415165589161,0.036200476316293285
1970-01-01 00:00:00.000000023,1.0204829073995203,-0.3067424996407195,-0.5557763759901921,0.02597146602009407
1970-01-01 00:00:00.000000023,0.9733422755044836,0.0367904058063338,-0.4096968809978372,0.006652860404687581
1970-01-01 00:00:00.000000023,0.6848841125235273,0.6396348646296504,-0.16648800273349557,-0.006792826875611051
1970-01-01 00:00:00.000000023,0.6950963338808162,0.6597317282524031,-0.1590984037483624,-0.013678396988003966
1970-01-01 00:00:00.000000023,0.5089590986741982,0.7672399903934337,-0.035050706264093553,-0.018405699592297438
1970-01-01 00:00:00.000000023,0.3980511178132318,0.7639679101633552,0.17094923241089532,-0.025055594210975234
1970-01-01 00:00:00.000000023,0.25736739256858276,0.7341197437864584,0.5249061411275645,-0.03386918433473128
1970-01-01 00:00:00.000000023,0.11306328328983214,0.657081050948023,0.8513324569103512,-0.039596503949761636
1970-01-01 00:00:00.000000023,0.015164958310571255,0.49781804090399945,1.2018196045457579,-0.044487013214985244
1970-01-01 00:00:00.000000023,-0.0707442171579251,0.39921992302527576,1.463010735390428,-0.0463389832895131
1970-01-01 00:00:00.000000023,-0.07904868007114868,0.4503850433841024,1.2187354136014577,-0.03740037299620229
1970-01-01 00:00:00.000000023,0.04966584390146564,0.4559390384478801,-0.11239177804867426,-0.01870829750554602
1970-01-01 00:00:00.000000023,-0.2606352695803865,0.5549035469178337,0.1916211312935204,-0.022789107444357873
1970-01-01 00:00:00.000000023,-0.35307474901801356,1.1011567612664659,0.1108623559065534,-0.0218975705592862
1970-01-01 00:00:00.000000023,-0.022639623632679323,1.2249957815393784,-0.3996707475539331,-0.019778523393727144
1970-01-01 00:00:00.000000023,-0.011018156131851458,1.228821348230227,-0.3968805319292573,-0.0070305531378544416
1970-01-01 00:00:00.000000023,0.44728977404678805,0.8630079447236553,-0.15627629048910735,-0.010219087281437571
1970-01-01 00:00:00.000000023,0.5734885553207087,0.8408849209509098,-0.054087549634196416,-0.0003930418185168166
