time,ax,ay,az,speed
1970-01-01 00:00:00.000000000,0.19561083121834139,0.9025371512273893,0.8232513381967055,0.6408208659497865
1970-01-01 00:00:00.000000020,0.8006882131658164,1.2488531516797832,-0.2947233128850884,0.6379464861812769
1970-01-01 00:00:00.000000020,0.793734528921388,1.2489933580457868,-0.34828537217508,0.6345416166933316
1970-01-01 00:00:00.000000020,0.5615890841139635,1.004562676570168,-0.5783865748283658,0.6435842673820004
1970-01-01 00:00:00.000000020,0.7238800721225697,0.40945016201627304,-0.23290089552328214,0.6457967971178084
1970-01-01 00:00:00.000000020,0.8053249709361523,0.2758245948455637,0.26529529267610924,0.6364740936048007
1970-01-01 00:00:00.000000020,0.8321859234111297,0.3539384003498231,0.711998299314112,0.47344017357730833
1970-01-01 00:00:00.000000020,0.9916730361468594,0.6113623931371528,1.039508967342407,0.46537607076147547
1970-01-01 00:00:00.000000020,1.2629158260663198,1.2766935266088846,1.2285911311864557,0.45367634847957394
1970-01-01 00:00:00.000000020,1.177375587091023,1.540247472915066,1.0633362223042333,0.4528852850408183
1970-01-01 00:00:00.000000020,1.1470117646962463,1.2585408978492112,0.9300395267791742,0.4608943026153131
1970-01-01 00:00:00.000000020,1.353035827027378,0.9342091808447238,-0.20841658743543337,0.47322859664518
1970-01-01 00:00:00.000000020,1.4015905986336532,1.1388986817747833,-0.8834956907194258,0.4781848028624585
1970-01-01 00:00:00.000000020,1.4434685140646417,0.8701288909411362,-0.8418933981223601,0.4799500437493446
1970-01-01 00:00:00.000000020,1.4405171722289276,0.8663883177806329,-0.835819114439551,0.4803886217560412
1970-01-01 00:00:00.000000020,1.4667137193796342,1.021335815291926,-0.7262425655895491,0.47763816906119955
1970-01-01 00:00:00.000000020,1.4662603776208414,1.027461215542934,-0.7049476360367125,0.47173976257937394
1970-01-01 00:00:00.000000020,1.1644189526452435,1.1902187058047202,-0.0872419059642689,0.4675524212607766
1970-01-01 00:00:00.000000020,1.1743154743573658,1.1867042695138417,-0.07232339666921113,0.4685513390323838
1970-01-01 00:00:00.000000020,1.2380263469460635,0.9032761711296045,-0.31301020404383906,0.4739286319156381
1970-01-01 00:00:00.000000020,1.3143239594125282,0.1086316478106186,0.027927184310703904,0.472516318756445
1970-01-01 00:00:00.000000020,1.0388739944714778,0.0558621137099511,0.04312797438569836,0.47321106770268606
1970-01-01 00:00:00.000000020,0.9339347963630891,-0.42244052193825665,0.3144421798068293,0.47021186416121696
1970-01-01 00:00:00.000000020,0.6245088448142188,-0.9578402009853906,0.45072688545618134,0.4645405689491207
1970-01-01 00:00:00.000000020,-0.013756015504464578,-1.2939415881792433,0.2504870439981099,0.4558021131945462
1970-01-01 00:00:00.000000020,-1.0960322902682502,-1.83693566801861,-0.045929685671646785,0.4718787983806579
1970-01-01 00:00:00.000000020,-1.1278501320470382,-1.8499752098516453,-0.03724231866100185,0.47638698079624375
1970-01-01 00:00:00.000000020,-0.932869326272778,-1.7617417170759406,0.39104036272446274,0.47933826325923634
1970-01-01 00:00:00.000000020,-0.41013255346323046,-1.7013501106844242,0.8610331527358251,0.4695624669589267
1970-01-01 00:00:00.000000020,-0.4286264256524854,-1.1515084600365693,1.3800575725097484,0.46016645524017996
1970-01-01 00:00:00.000000020,-0.4124203179376281,-1.1261718942350276,1.4137277210952992,0.45625353983531836
1970-01-01 00:00:00.000000020,-0.5551788873774122,-0.9052783275932036,1.8904452537792946,0.44664877627084076
1970-01-01 00:00:00.000000020,-0.7942418146440259,-0.7199707244204664,2.4746663573066594,0.43775094507984463
1970-01-01 00:00:00.000000020,-1.0145428571683428,-0.705836558927859,2.5036410663320265,0.43883671295794746
1970-01-01 00:00:00.000000020,-1.064332517263922,-1.027164237568578,1.6840945627212063,0.45940773308934246
1970-01-01 00:00:00.000000020,-0.5259243180981457,-1.2585562401585173,-0.01404625759421731,0.4723289949609902
1970-01-01 00:00:00.000000020,-0.5435348775950818,-1.254442754482258,-0.11393202553590596,0.4810019223280018
1970-01-01 00:00:00.000000020,-0.15467937186450537,-1.1266890513891197,-1.327409352401923,0.4875472866098621
1970-01-01 00:00:00.000000020,-0.16095034882481077,-1.092795183087145,-1.4027540393791742,0.4942565653165716
1970-01-01 00:00:00.000000020,0.17525527530386553,-0.4792534165913673,-2.3974222354633477,0.4950227515514588
1970-01-01 00:00:00.000000020,0.17698711955320215,-0.45888033336613615,-2.439479586617587,0.49763975732790894
1970-01-01 00:00:00.000000020,0.3049503905002067,-0.58892469697459,-2.646935715891777,0.5009568828632577
1970-01-01 00:00:00.000000020,0.379524317990766,-0.706000498749338,-2.541698756261934,0.5023973654199505
1970-01-01 00:00:00.000000020,0.4919056824185345,-0.7765623576389233,-2.53240429156183,0.49841369433547583
1970-01-01 00:00:00.000000020,0.29072416119833705,-0.7052539050441288,-2.527287863450006,0.4988169333368254
1970-01-01 00:00:00.000000020,0.2736449368988427,-0.7056442192325383,-2.5197191622683097,0.4924076643202794
1970-01-01 00:00:00.000000020,-0.05884509732655875,-0.4041170209197372,-2.0621065244796832,0.4773282958668403
1970-01-01 00:00:00.000000020,-0.6505632890180555,0.874289043333134,-1.3273526097496433,0.4633760122593645
1970-01-01 00:00:00.000000021,-0.6512284343366772,0.9252490322429742,-1.3610860974320638,0.4372671757060827
1970-01-01 00:00:00.000000021,-2.0988145510099345,1.7269253352460918,-2.302481512897131,0.4504435390652636
1970-01-01 00:00:00.000000021,-2.1141101529502064,1.7038052953319354,-2.30384447486007,0.4648939542279145
1970-01-01 00:00:00.000000021,-1.3672546841702236,-0.09261699079588216,-1.769753937836804,0.4713738948178741
1970-01-01 00:00:00.000000021,-1.3480271522505378,-0.20350127280088937,-1.7285490727137616,0.5012792791160281
1970-01-01 00:00:00.000000021,0.277796005476438,-2.199265711225738,-1.9484193618323835,0.5039336041587321
1970-01-01 00:00:00.000000021,0.05565979549774604,-3.7554502644436436,-2.207551030910209,0.5142659982615763
1970-01-01 00:00:00.000000021,-0.39877570560909087,-3.787665883660092,-1.99523292765072,0.5295891932378329
1970-01-01 00:00:00.000000021,0.3435197614508039,-2.0252347777486137,-1.6774441990290103,0.5090513350315972
1970-01-01 00:00:00.000000021,0.5348741654415196,-1.8334608139262285,-2.4855481445063052,0.513124453483013
1970-01-01 00:00:00.000000021,0.5504110105209756,-1.7758165162241402,-2.479965020605801,0.5358148902866493
1970-01-01 00:00:00.000000021,1.8485902196515127,-1.0205570040518386,-2.1304792917765862,0.5350210035717105
1970-01-01 00:00:00.000000021,2.924848698332264,-0.3893430052816881,-3.153096269468201,0.5377470932848151
1970-01-01 00:00:00.000000021,3.3842797559000295,-0.16228136982276456,-4.923697215133881,0.5516885830907274
1970-01-01 00:00:00.000000021,3.5990226007219213,-0.5224920478904859,-6.816966607104129,0.5657218814487138
1970-01-01 00:00:00.000000021,3.339550916859192,-0.8308079895977776,-7.770205243054976,0.575113448888597
1970-01-01 00:00:00.000000021,3.0973642003377786,-0.7869396280643582,-7.35619091219503,0.5728405809700352
1970-01-01 00:00:00.000000021,3.0802859720540074,-0.7350160734128878,-6.165403491483856,0.5612434312707845
1970-01-01 00:00:00.000000021,3.0617219075879794,-0.8287619228142458,-4.6299709265997215,0.5485797938519648
1970-01-01 00:00:00.000000021,3.083809412236291,-0.8366962787591063,-4.538951962896001,0.5433858657863271
1970-01-01 00:00:00.000000021,2.8989100242712778,-0.8431351219215655,-3.5028295898321886,0.5298563633804256
1970-01-01 00:00:00.000000021,2.574719802505799,-0.9028750950986528,-2.7623700445486037,0.5259281627511173
1970-01-01 00:00:00.000000021,2.573422634966268,-0.9248092231451227,-2.7214783903832007,0.5180025527381167
1970-01-01 00:00:00.000000021,2.1564621638744734,-1.2514914802290276,-2.15206404620718,0.5137385100101232
1970-01-01 00:00:00.000000021,1.8732065950439445,-1.704255390858112,-0.7230455050301547,0.502257868957182
1970-01-01 00:00:00.000000021,1.6370791073141386,-1.5746600121805308,1.318579471152466,0.4740833118347054
1970-01-01 00:00:00.000000021,1.0883960912825141,-1.6509184229414708,4.9853377412214845,0.4467533648960912
1970-01-01 00:00:00.000000021,1.1325708470812281,-1.643137357973123,5.142539591093712,0.43337288886733605
1970-01-01 00:00:00.000000021,0.56715021770026,-1.0342342312373076,6.042787229404296,0.4219859448589965
1970-01-01 00:00:00.000000021,0.41461933628730163,-1.3051532906336485,6.113749197622837,0.42439651636759
1970-01-01 00:00:00.000000021,0.4060787135734007,-1.3080753459576293,6.175270376325843,0.4216645662209717
1970-01-01 00:00:00.000000021,0.3242280467043813,-1.0648368462597884,7.816595167137499,0.3967062748026684
1970-01-01 00:00:00.000000021,-0.1426361326643445,-0.3432621327426736,8.722056506700584,0.3767775230064868
1970-01-01 00:00:00.000000021,-0.6231126801140876,-0.2229528934222167,9.659218358148458,0.36968998998411895
1970-01-01 00:00:00.000000021,-0.7012150942100541,-0.022337917748018188,9.605967235216875,0.37209557771536683
1970-01-01 00:00:00.000000021,-0.5305531900529996,-0.4172597533056738,9.164808125175723,0.37791704004086457
1970-01-01 00:00:00.000000021,-0.540492184858004,-0.43299957485065704,9.154527991182166,0.3804556492839546
1970-01-01 00:00:00.000000021,-0.4267298719618002,-0.5265292405349561,9.25464716386981,0.3797003169944598
1970-01-01 00:00:00.000000021,-0.4213776403122508,-0.5102199869013624,9.244015365994542,0.38263814149971614
1970-01-01 00:00:00.000000021,-0.24900377673559151,-0.05713421954223695,8.776043904242382,0.3819209889988926
1970-01-01 00:00:00.000000021,-0.2239227960242996,-0.06503192262188448,8.426542066666912,0.3847158788289878
1970-01-01 00:00:00.000000021,-0.22981940645489618,-0.05695535493414523,8.382364232078691,0.3852953749397465
1970-01-01 00:00:00.000000021,-0.23466558090624615,0.16151071570859285,7.531565575766362,0.3906479200942762
1970-01-01 00:00:00.000000021,-0.24749260217827604,0.1578060087823601,7.459967643329291,0.390375096563372
1970-01-01 00:00:00.000000021,-0.34220061053200534,-0.1355220781031803,6.402787194606215,0.40282138683994706
1970-01-01 00:00:00.000000021,-0.3636888696267607,-0.1324087921498047,6.349779936456968,0.4084109727750993
1970-01-01 00:00:00.000000021,-0.10786899229768727,0.10446660588066442,5.835253005554148,0.40637209315141504
1970-01-01 00:00:00.000000021,-0.25594093138464685,-0.436435209660845,5.812608852916449,0.41230848096597156
1970-01-01 00:00:00.000000021,-0.2688136878937604,-0.4394382698275968,5.803965020085824,0.412851189067157
1970-01-01 00:00:00.000000021,-0.2606627493296598,0.01069298437276665,5.5835377494578315,0.4118799831457497
1970-01-01 00:00:00.000000021,-0.19910636990883504,0.6936145192026785,4.917019886585971,0.4114893264199232
1970-01-01 00:00:00.000000021,-0.19226697466969112,0.6975004519989433,4.90660060626279,0.4170485473330327
1970-01-01 00:00:00.000000021,0.09741251596105327,-0.02047053680783309,5.151828260932754,0.42756852923680655
1970-01-01 00:00:00.000000021,0.5845183282250703,-0.9383776143124839,5.254589770419513,0.42724437280017535
1970-01-01 00:00:00.000000021,0.42213056513830044,-0.7528519590153435,5.534968631007961,0.4090179262232592
1970-01-01 00:00:00.000000021,0.4346425311520787,-0.7639152060220429,5.564273339875168,-0.020934992450970732
1970-01-01 00:00:00.000000021,0.6211464421375381,-1.4342351375495355,5.88903501165185,-0.035639256369181777
1970-01-01 00:00:00.000000021,0.626338450327482,-2.315725052679049,7.834380429861141,-0.04661647438059628
1970-01-01 00:00:00.000000021,0.568494378602072,-2.9154209752263083,8.564156904157457,-0.048085242348433296
1970-01-01 00:00:00.000000021,0.5614430741130396,-2.9554262685261827,8.593070992295278,-0.05647005912201584
1970-01-01 00:00:00.000000021,0.10205317026634006,-3.218004000432657,8.86184416236301,-0.0635220793980327
1970-01-01 00:00:00.000000021,-0.49383900112676704,-2.8364055679502527,9.020997566711316,-0.06434990941955043
1970-01-01 00:00:00.000000021,-0.5592487651939806,-2.752078569390538,8.567957903676195,-0.06105771009619176
1970-01-01 00:00:00.000000021,-0.6124129761337123,-2.6835071964552997,7.850074441684863,-0.04799965403866655
1970-01-01 00:00:00.000000021,-0.2767795771488999,-4.2443870818138025,6.592280674903844,-0.02670429585909451
1970-01-01 00:00:00.000000021,-0.3246522769875348,-4.269626698769124,6.53682109446715,-0.027699020408637764
1970-01-01 00:00:00.000000021,-0.4766798202250484,-3.3468822891571577,6.340540371504586,-0.03251775937874599
1970-01-01 00:00:00.000000021,-0.48452765544105836,-3.268057289680449,5.985906754950324,-0.022142664023806685
1970-01-01 00:00:00.000000021,-0.06876902485678782,-4.330504034280514,5.589102510088644,-0.005173671329584323
1970-01-01 00:00:00.000000021,0.33822690262988697,-4.288479555667562,5.036933097668951,-0.00047438164912025934
1970-01-01 00:00:00.000000021,0.45994894817903675,-3.674219624216306,4.692315471500397,0.02658971133070652
1970-01-01 00:00:00.000000021,2.1248082555983716,-5.844043579643848,3.7269913513705943,0.03980330610705526
1970-01-01 00:00:00.000000021,2.094351665425625,-5.875695054788476,3.6757129868847267,0.03736152493888019
1970-01-01 00:00:00.000000021,1.8722474367414395,-4.479656772575319,3.3373254215867623,0.03902399431242204
1970-01-01 00:00:00.000000021,2.3460078509060214,-5.536787051832368,3.220324148870608,0.05453707440927951
1970-01-01 00:00:00.000000021,2.8503069331035524,-5.8845473371036,2.740472887714676,0.06252330453312772
1970-01-01 00:00:00.000000021,3.098042806673619,-5.912938446768863,1.9554964226215978,0.06664475118110388
1970-01-01 00:00:00.000000021,3.018719220846414,-6.426753176384999,0.8959680723391719,0.07492252662737309
1970-01-01 00:00:00.000000021,2.649857970740113,-6.232969128519527,0.11206971764263877,0.08269165486456717
1970-01-01 00:00:00.000000021,2.620252630481287,-6.199070751010166,0.044256846644181114,0.07209469734805443
1970-01-01 00:00:00.000000021,1.9579877990712644,-5.1720579652172685,-0.6972516747120431,0.083748357070591
1970-01-01 00:00:00.000000021,2.429971099193755,-5.043895241577486,-0.4674529955907536,0.09171001183647383
1970-01-01 00:00:00.000000021,3.248175967987281,-5.3102560974124815,-0.7211217462758772,0.09527942247661877
1970-01-01 00:00:00.000000021,3.5786642272321894,-5.344581873903439,-0.889396639201779,0.09427190968838656
1970-01-01 00:00:00.000000021,3.580011122081178,-5.3504573196453515,-0.8995903338371425,0.09305931744484448
1970-01-01 00:00:00.000000021,3.5171140129611316,-5.447869103658745,-0.9796457215387531,0.08822631418473524
1970-01-01 00:00:00.000000021,3.1360907976297083,-5.44456334861055,-1.0033990171789382,0.08649629607325761
1970-01-01 00:00:00.000000021,2.8636196226798494,-5.47095129509081,-1.0277377285572706,0.08156369352851435
1970-01-01 00:00:00.000000021,2.4217638002335087,-5.549247047730341,-1.2736450827563943,0.08759800030760574
1970-01-01 00:00:00.000000021,2.4030691967905407,-5.558723957681982,-1.310684469918962,0.0835773507232424
1970-01-01 00:00:00.000000021,2.133304496434253,-5.621144665534777,-1.9496804609071723,0.08414561336833454
1970-01-01 00:00:00.000000021,1.7004206042684629,-5.5669303439675755,-2.9354363067853106,0.08360587801120285
1970-01-01 00:00:00.000000021,0.9701407335796831,-5.509410629926199,-4.380535830632676,0.09977708459769766
1970-01-01 00:00:00.000000021,0.8232482884586707,-5.189432615870025,-5.091307072127224,0.10809945429636858
1970-01-01 00:00:00.000000021,0.9879405961930234,-4.813987273406499,-5.79347239164438,0.11019090656223962
1970-01-01 00:00:00.000000022,0.9925412359673715,-4.78727560329119,-5.831499339456744,0.1180031856983963
1970-01-01 00:00:00.000000022,1.3981241665844457,-4.639172952753634,-6.353728710985684,0.12917616999648876
1970-01-01 00:00:00.000000022,2.0226459297714032,-4.461733594560357,-7.210515330660175,0.12841393070335022
1970-01-01 00:00:00.000000022,1.9274100560958038,-4.285735945760691,-7.538287062223704,0.12989811360928613
1970-01-01 00:00:00.000000022,1.9120861442752577,-4.26223344007835,-7.582331848479979,0.11973863764729603
1970-01-01 00:00:00.000000022,1.3187296621618687,-3.525060749648518,-8.165166660029485,0.12255128957392583
1970-01-01 00:00:00.000000022,1.3009193314617247,-3.4900930630896885,-8.202854234974172,0.11345991819063497
1970-01-01 00:00:00.000000022,0.7737779455532319,-3.0329424646007914,-8.387388195100892,0.11537599074544208
1970-01-01 00:00:00.000000022,0.7709499353486069,-3.0336235893506536,-8.390897140968828,0.11742172371737236
1970-01-01 00:00:00.000000022,0.870462453645872,-3.5589118387103014,-8.350852001900952,0.1209931587801527
1970-01-01 00:00:00.000000022,0.8678793256666358,-3.580765477647347,-8.355876332176706,0.12562414152691087
1970-01-01 00:00:00.000000022,1.1002982758168918,-3.7648616248470375,-8.650914533949003,0.1277530953675184
1970-01-01 00:00:00.000000022,1.0936608626112587,-3.768614007224487,-8.666931698448122,0.12559381939430175
1970-01-01 00:00:00.000000022,0.9706812425733197,-3.6326200607132955,-8.751144814649475,0.11837653777946969
1970-01-01 00:00:00.000000022,0.556336021971989,-3.273501609099972,-8.57535227415315,0.10919872358594201
1970-01-01 00:00:00.000000022,0.12974542787393864,-2.978589449811251,-8.260032652310912,0.10332293421562945
1970-01-01 00:00:00.000000022,-0.08209121121568155,-2.979365722118215,-7.776481524555946,0.09956831392164463
1970-01-01 00:00:00.000000022,-0.14535453918999536,-2.9507333337708666,-7.44141679708994,0.09857325527844793
1970-01-01 00:00:00.000000022,-0.05093502238217905,-2.9016477942416112,-7.3529855014188,0.10069607405009522
1970-01-01 00:00:00.000000022,0.18373317772931963,-2.913748971744046,-7.359183602209145,0.10022888308265442
1970-01-01 00:00:00.000000022,0.2627639366410853,-2.776716301496335,-7.352113616876873,0.09834191053284834
1970-01-01 00:00:00.000000022,0.2671249134403234,-2.7641705652002013,-7.354463450009581,0.09842330476110332
1970-01-01 00:00:00.000000022,0.28536448019896743,-2.5678832862057117,-7.430393860678403,0.09709299072032249
1970-01-01 00:00:00.000000022,0.28490454889855205,-2.497757601856127,-7.445250227809378,0.09400800518550549
1970-01-01 00:00:00.000000022,0.14837641346443825,-2.4717059561401022,-7.441496282405174,0.09098915705794769
1970-01-01 00:00:00.000000022,-0.05880965521247156,-2.5134636626014686,-7.25030984580515,0.08753878670423709
1970-01-01 00:00:00.000000022,-0.2593378127029697,-2.5836904890875987,-7.0087471093219635,0.08068052896838666
1970-01-01 00:00:00.000000022,-0.6536897794883583,-2.754194974219514,-6.743877537343658,0.08282006398640462
1970-01-01 00:00:00.000000022,-0.6669919320428901,-3.0270311152853426,-6.448403699402917,0.08300389821842409
1970-01-01 00:00:00.000000022,-0.6633781161175107,-3.0475989417038063,-6.434976149754196,0.08633138469194492
1970-01-01 00:00:00.000000022,-0.4804591504480528,-3.4194077765037547,-6.4572198097467535,0.08667602267771175
1970-01-01 00:00:00.000000022,-0.5710514597717675,-3.6936686985634597,-6.077216388074069,0.08666355294037642
1970-01-01 00:00:00.000000022,-0.5688544982056126,-3.7243717940951964,-6.042347377638627,0.08851519732692542
1970-01-01 00:00:00.000000022,-0.46293460741252096,-4.328828093797256,-5.530621159959266,0.08878842309619574
1970-01-01 00:00:00.000000022,-0.45655222864618455,-4.3683534828935615,-5.498790685724439,0.09440548180750222
1970-01-01 00:00:00.000000022,-0.127876779125221,-4.99045444184577,-5.310465852117449,0.08642108818951992
1970-01-01 00:00:00.000000022,-0.6062903641936743,-4.791115982118791,-5.050986856623223,0.07176436413299785
1970-01-01 00:00:00.000000022,-1.4089871394517763,-4.153310038331743,-4.849812239679703,0.06758378043128786
1970-01-01 00:00:00.000000022,-1.6052022482033157,-4.278487592766842,-4.824176154657327,0.07276516758320722
1970-01-01 00:00:00.000000022,-1.4750021805830849,-4.678827996731754,-4.965916966426937,0.08410271395653235
1970-01-01 00:00:00.000000022,-1.1028491225814658,-4.8898466931692575,-4.845560313048767,0.10802973506439997
1970-01-01 00:00:00.000000022,0.3196325435252303,-5.80845986584993,-4.825638632901537,0.12127298577054536
1970-01-01 00:00:00.000000022,1.2691475650839235,-6.48547310874172,-4.7435861992556045,0.11943745677742469
1970-01-01 00:00:00.000000022,1.2882335869074648,-6.521530397811678,-4.723405074634924,0.13132201958476053
1970-01-01 00:00:00.000000022,1.9597386007314515,-7.1421702986843085,-4.58467348239808,0.12993440550033183
1970-01-01 00:00:00.000000022,1.9527445353268993,-7.5651544652955955,-4.060865748744224,0.12882013029320466
1970-01-01 00:00:00.000000022,1.9494389986316352,-7.591393452456259,-4.033094921855425,0.12381592425671417
1970-01-01 00:00:00.000000022,1.677305020421996,-7.745672031690148,-3.675900422018987,0.12100654397134665
1970-01-01 00:00:00.000000022,1.4942568049558929,-8.062778934529115,-3.4872440040085437,0.12233323161829356
1970-01-01 00:00:00.000000022,1.395955300488834,-8.246283236504786,-3.526611722120469,0.1350666738137398
1970-01-01 00:00:00.000000022,1.9534680305896845,-8.479320400590352,-3.3737244427344764,0.1320150118623235
1970-01-01 00:00:00.000000022,1.9715245962391772,-8.483672342051468,-3.3522529943271455,0.14103388385221094
1970-01-01 00:00:00.000000022,2.480791499450782,-8.6061397253314,-3.1634132946305966,0.14959296161522376
1970-01-01 00:00:00.000000022,3.215409518120777,-8.877779043041622,-2.805584761844286,0.152297278613503
1970-01-01 00:00:00.000000022,3.750431876297738,-9.15454713893083,-2.398027977303496,0.15178085881095688
1970-01-01 00:00:00.000000022,4.092928713086775,-9.364345888564946,-0.5105228058242931,0.12643372880808926
1970-01-01 00:00:00.000000022,3.6940224134407567,-8.582391388764135,0.21431268360624314,0.11233028256610779
1970-01-01 00:00:00.000000022,3.520694780775793,-8.164747705492617,1.2424391657669176,0.10195780305086845
1970-01-01 00:00:00.000000022,3.541744713165849,-8.130028661077477,1.3173127905595834,0.12629839826641212
1970-01-01 00:00:00.000000022,3.4767979176014125,-7.541653638238894,2.3793786847021985,0.8624714555026398
1970-01-01 00:00:00.000000022,4.580594331077609,-7.300997038538849,2.619534229233623,0.8914032191284547
1970-01-01 00:00:00.000000022,5.502667078257658,-7.33235392604432,2.6009579808713674,0.8706777232211198
1970-01-01 00:00:00.000000022,4.763409869246199,-6.3561141765573606,2.6727760423937674,0.8456898819319791
1970-01-01 00:00:00.000000022,3.5982800817200533,-6.830098055035251,4.766625949729461,0.8279296609012181
1970-01-01 00:00:00.000000022,2.926551027144941,-6.172024595355052,7.160633314341027,0.8052694624299981
1970-01-01 00:00:00.000000022,2.94353621568262,-3.876853238850659,9.633186318178758,0.7644083913989829
1970-01-01 00:00:00.000000022,3.0373930856980884,-3.781338018895252,9.707072111202987,0.7677817260498081
1970-01-01 00:00:00.000000022,3.4241322390379088,-3.572831778004644,9.104202177618388,0.7744894912520972
1970-01-01 00:00:00.000000022,3.782487563083377,-3.4637777924038424,8.577728879319826,0.7771265185728635
1970-01-01 00:00:00.000000022,3.8936482660910148,-3.0455122421669794,8.39813393874906,0.7739326709371033
1970-01-01 00:00:00.000000022,3.894197839426076,-3.0291115683931937,8.407828644616187,0.7673465604300841
1970-01-01 00:00:00.000000022,3.5866292384668315,-2.8496852999687987,9.004054270368426,0.7475890511453916
1970-01-01 00:00:00.000000022,2.7673793748386717,-1.5150041865464272,10.349023999549232,0.7272949507031564
1970-01-01 00:00:00.000000022,2.601285202217696,-0.8887564928947994,10.836264961350777,0.7183956477194979
1970-01-01 00:00:00.000000022,2.615766776055837,-0.8483109158314291,10.863240162703494,0.7148475294947685
1970-01-01 00:00:00.000000022,2.487052766140304,-0.30105395871124807,11.185803707486151,0.7094217104715467
1970-01-01 00:00:00.000000022,2.569844482520704,0.0692402104440873,11.5028461192389,0.701274619043073
1970-01-01 00:00:00.000000022,2.518685258887809,0.22636068623879166,11.696862557501303,0.6931638352183229
1970-01-01 00:00:00.000000022,2.2472050595488393,0.30031359146423464,11.320258206757225,0.6843139913023653
1970-01-01 00:00:00.000000022,1.5509931417556753,0.3408406953283817,10.658843436976612,0.6543981279680775
1970-01-01 00:00:00.000000022,-0.7805286159584368,1.1781286873482053,9.744258096557449,0.6725287547716287
1970-01-01 00:00:00.000000022,-0.8451996283009795,1.2065861217989438,9.674077428800233,0.6541802955813659
1970-01-01 00:00:00.000000022,-1.9609032714907015,1.6524154052610815,9.208551285086553,0.6554078159527588
1970-01-01 00:00:00.000000022,-2.406645308666354,1.108767665529744,9.156945113816246,0.6543183664124124
1970-01-01 00:00:00.000000022,-2.9885632956688433,1.7702546702235769,8.51490989413359,0.6594809693536294
1970-01-01 00:00:00.000000022,-2.9968490641709398,1.7953711514098971,8.10288474869369,0.6712803130283038
1970-01-01 00:00:00.000000022,-2.555807327258477,1.7554894158834469,7.063701318635822,0.6781602664400814
1970-01-01 00:00:00.000000022,-2.5478636041009053,1.7493802958478004,7.013588072878185,0.697933885248331
1970-01-01 00:00:00.000000022,-1.507408345359822,1.109774689780547,6.185172766848562,0.7104005390279936
1970-01-01 00:00:00.000000022,-1.062970498008556,1.0307849833560938,5.802325287162147,0.7114791096263966
1970-01-01 00:00:00.000000022,-1.0546312759440772,1.029712041006665,5.785902166702031,0.7201773870470866
1970-01-01 00:00:00.000000022,-0.5942405391353967,0.8549478329951854,5.50054092296399,0.7291678358060275
1970-01-01 00:00:00.000000022,-0.1381284743742414,0.9170042185420286,5.091827522004365,0.7428287343840803
1970-01-01 00:00:00.000000022,0.648161458013053,-0.08710595723402871,4.98753014628025,0.7482857536802587
1970-01-01 00:00:00.000000023,0.7670986539157922,0.10640647732018252,4.696757968743361,0.7485079421536556
1970-01-01 00:00:00.000000023,0.7714348345040198,0.08845176773559932,4.703305932647099,0.7521493933148186
1970-01-01 00:00:00.000000023,0.9788830539034743,-0.6918912779001062,5.068819683287231,0.7481929338950986
1970-01-01 00:00:00.000000023,0.6612590552528941,-0.8885259465984663,5.285815840548125,0.7423999322825929
1970-01-01 00:00:00.000000023,0.19556580819718217,-0.7622298117136738,5.1842874800569385,0.7450344922694662
1970-01-01 00:00:00.000000023,0.16583090990383284,-0.7454691841004363,5.136155906559481,0.7320909305530162
1970-01-01 00:00:00.000000023,-0.6063913883442215,-0.060011346076560765,4.2973488099706,0.7391972315732754
1970-01-01 00:00:00.000000023,-0.6276590293274784,-0.02776743978392228,4.23933168282947,0.7356538280979442
1970-01-01 00:00:00.000000023,-0.8669683051537808,0.2620986701292703,3.6164148246437082,0.7376141112796016
1970-01-01 00:00:00.000000023,-1.0374532786175223,0.5035952779746264,3.0530323272510733,0.7414407071414725
1970-01-01 00:00:00.000000023,-1.079659776211272,0.6383861384311402,2.6188703143807643,0.7470470707753994
1970-01-01 00:00:00.000000023,-0.9545952824221754,0.645197234851823,2.318832936215238,0.7535467649697232
1970-01-01 00:00:00.000000023,-0.6940806326298818,0.5286718071194123,1.7363515679819779,0.7577979739481987
1970-01-01 00:00:00.000000023,-0.6964217468258701,0.5234005563313756,1.7071183982572349,0.7638073165804622
1970-01-01 00:00:00.000000023,-0.4019581281193207,0.34655728195584407,1.3492592530914667,0.7707634278421317
1970-01-01 00:00:00.000000023,-0.1651897697189422,0.15595766954741308,0.7951930482833616,0.7814666342178329
1970-01-01 00:00:00.000000023,0.14507630825160972,-0.08321018419797839,0.4234430705370071,0.7936755020068157
1970-01-01 00:00:00.000000023,0.6386318690987681,-0.4096963945737419,0.13070610453491469,0.8030579542750254
1970-01-01 00:00:00.000000023,1.0392668071651165,-0.7088638024917283,-0.37464958129298376,0.8209677162099356
1970-01-01 00:00:00.000000023,1.8206740612113188,-0.9331543128390958,-0.9497728395816537,0.8218921292468057
1970-01-01 00:00:00.000000023,1.8224808635963525,-0.9447805878031565,-0.9776950310509829,0.8239916158042455
1970-01-01 00:00:00.000000023,1.9184313256633567,-1.0897125990949585,-1.2117840400437132,0.8244402422087383
1970-01-01 00:00:00.000000023,1.8053153707363816,-1.00335638016105,-1.2663708425296087,0.822347917421108
1970-01-01 00:00:00.000000023,1.655802462802777,-0.9737139455877484,-1.2030329885900766,0.8184990338165691
1970-01-01 00:00:00.000000023,1.4283548693010069,-0.9131078206205322,-1.091707519314822,0.8132881117036348
1970-01-01 00:00:00.000000023,1.1237852654392113,-0.6722142245664277,-0.7650870463099407,0.8106127547714905
1970-01-01 00:00:00.000000023,1.1192970309400045,-0.664518897791317,-0.7434853861718845,0.8077633979980484
1970-01-01 00:00:00.000000023,0.9892211986929591,-0.6289306583013622,-0.41815302283316214,0.8022141346633415
1970-01-01 00:00:00.000000023,0.8067800842102267,-0.5330554767609545,-0.013092830738986143,0.7979214234864247
1970-01-01 00:00:00.000000023,0.7482010318233147,-0.37659838790759464,0.20161541921734558,0.7909829117966866
1970-01-01 00:00:00.000000023,0.535915009736201,-0.32174332527138494,0.5200668210800309,0.7843246524865743
1970-01-01 00:00:00.000000023,0.2657692837278068,-0.0785179920950195,0.8221421522682699,0.7800858936553503
1970-01-01 00:00:00.000000023,0.1948701901989409,0.032830099173889765,1.0088438506312865,0.7714168226656635
1970-01-01 00:00:00.000000023,-0.1607660254448851,0.5215894544045785,1.2233005993909907,0.7671768889218349
1970-01-01 00:00:00.000000023,-0.20460760811554768,0.4599067689962226,1.9300939321719537,0.7645305634601224
1970-01-01 00:00:00.000000023,-0.030164927613421433,-0.13685062725912053,2.856491633499211,0.7547541747386661
1970-01-01 00:00:00.000000023,-0.314796846904302,1.0690065218344496,3.169060399133679,0.7500621673005279
1970-01-01 00:00:00.000000023,0.045971949550894,-0.059436615068236366,3.898675811252699,0.7498107965078944
1970-01-01 00:00:00.000000023,0.03787982513242663,-0.08843316334486774,3.930548470021154,0.7425410897343466
1970-01-01 00:00:00.000000023,-0.3610320138703703,0.4488025976446107,4.253194272206279,0.7382098051970387
1970-01-01 00:00:00.000000023,-0.37509836021183207,0.5987793507213035,4.0483729305203315,0.744149487547397
1970-01-01 00:00:00.000000023,-0.07503469967147172,0.19948503174976628,3.7841200117618903,0.7474213044916288
1970-01-01 00:00:00.000000023,-0.08200176436311388,0.18617589428687126,3.7717267748152015,0.7474349074808183
1970-01-01 00:00:00.000000023,-0.10891487526384094,0.23148025907816877,3.706719053330955,0.7498871285626065
1970-01-01 00:00:00.000000023,0.005176261150749019,-0.3481882437644943,3.8977083205323884,0.7498880051111358
1970-01-01 00:00:00.000000023,-0.15357424778092552,0.967535675989824,3.3815041177529315,0.7595373121372085
1970-01-01 00:00:00.000000023,0.6894160398860577,-0.6847380535748147,3.7465133097322236,0.7635796595187376
1970-01-01 00:00:00.000000023,0.6801824295270984,-0.7121894410846892,3.767628926442259,0.7627369622836206
1970-01-01 00:00:00.000000023,0.6204604589525177,0.22413314439680565,3.9979777043173716,0.7611781082373565
1970-01-01 00:00:00.000000023,1.0681785529237253,-0.42294368278117456,3.7410410675471195,0.7646937235350953
1970-01-01 00:00:00.000000023,1.0546494765196264,-0.4315694589995715,3.722174239943811,0.7599453336889197
1970-01-01 00:00:00.000000023,0.7642962365958763,0.11340636938779895,3.6005014905308377,0.7590181516505515
1970-01-01 00:00:00.000000023,0.7737093603394934,0.11322750027738296,3.6110520721960566,0.7655806146729622
1970-01-01 00:00:00.000000023,1.1560531057672507,-0.6168906406067534,3.837277680054391,0.7633814518008695
1970-01-01 00:00:00.000000023,0.9482880868155976,-0.25798121215154846,3.756738873780696,0.7693619544484449
1970-01-01 00:00:00.000000023,1.3104507907098202,-0.9958082418906651,3.69746575761882,0.7745349498912868
1970-01-01 00:00:00.000000023,1.3647642718915325,-0.9049029925206145,3.798774908303238,0.7793698049818419
1970-01-01 00:00:00.000000023,1.7371804626918488,-1.3345140684529677,3.4715152542815586,0.7828580583211513
1970-01-01 00:00:00.000000023,1.7257563245753371,-1.3600718113308912,3.449042001677466,0.7870526000576109
1970-01-01 00:00:00.000000023,1.9321603795416116,-1.7344075418129339,3.0556360866781738,0.7829292248922409
1970-01-01 00:00:00.000000023,1.9502061550366105,-1.9593876699839043,3.0626764862676294,0.5239304056570538
1970-01-01 00:00:00.000000023,1.7163046232382702,-1.654656143022502,2.651032447277798,0.5198000383842962
1970-01-01 00:00:00.000000023,1.8399796024425472,-2.094429200997752,2.3870985808588228,0.5247745271509556
1970-01-01 00:00:00.000000023,1.8336963202242424,-2.1569190589075595,2.288642460919668,0.5293303255068622
1970-01-01 00:00:00.000000023,1.994609300274082,-2.2716405898647283,2.026992663613847,0.5300939669820578
1970-01-01 00:00:00.000000023,1.916728527843412,-2.3197558177140096,1.7977805063802927,0.5330327385408985
1970-01-01 00:00:00.000000023,1.9084885477734141,-2.334018509519115,1.7908289875484797,0.531742858322738
1970-01-01 00:00:00.000000023,1.806748144425123,-2.6286674455376664,1.8746786511930922,0.5363058357435717
1970-01-01 00:00:00.000000023,1.9018427837594023,-2.9396789518258086,1.77581816283709,0.5410431807318977
1970-01-01 00:00:00.000000023,2.00208487167357,-2.915097002749678,1.3999789964178397,0.5416322008332748
1970-01-01 00:00:00.000000023,1.8954415319341973,-3.4479697684504247,1.5935850944096532,0.5452015015377069
1970-01-01 00:00:00.000000023,1.8834305435639815,-3.4595999923978047,1.5973053056567714,0.5414999995048881
1970-01-01 00:00:00.000000023,1.6743265785509407,-3.1443242437450007,1.6005639408684744,0.5344091734456798
1970-01-01 00:00:00.000000023,1.3653113257397094,-2.9450737324933365,1.6100019540158974,0.5218334455584389
1970-01-01 00:00:00.000000023,0.6251062349342205,-2.5462463642549693,1.6959089868808646,0.5237189317583956
1970-01-01 00:00:00.000000023,0.623821226687229,-2.536923094669896,1.6961956994883878,0.5274376254452942
1970-01-01 00:00:00.000000023,0.814821702242988,-2.7743640732681896,1.5276880178696404,0.5356149796346931
1970-01-01 00:00:00.000000023,1.1445110698354501,-3.4047286997656694,1.017558966797444,0.5425499143030745
1970-01-01 00:00:00.000000023,1.106366975807006,-3.109962417537757,0.48975248852849235,0.5487860152215777
1970-01-01 00:00:00.000000023,1.2855670432371387,-3.1714579832750864,-0.9014431860494616,0.5596759929643272
1970-01-01 00:00:00.000000023,1.260579727166589,-3.1651036472804464,-0.9744190282548923,0.5589701842304544
1970-01-01 00:00:00.000000023,1.14686618886041,-2.8985327434261032,-1.520062826961762,0.5625316369349284
1970-01-01 00:00:00.000000023,1.1382661340320774,-2.795971138258113,-2.26796801274644,0.5708982057849692
1970-01-01 00:00:00.000000023,1.2665374157504654,-2.759722941973823,-2.882108469622992,0.5768898726344732
1970-01-01 00:00:00.000000023,1.357620374395372,-2.7836846069265393,-3.366096978965777,0.5801969492604916
1970-01-01 00:00:00.000000023,1.3292634966077077,-2.8015502020001186,-3.6542987194103596,0.5788439062475407
1970-01-01 00:00:00.000000023,1.092743814827254,-2.7245022461109643,-3.6662998441482215,0.5744620261949271
1970-01-01 00:00:00.000000023,0.7801896570195335,-2.5156927592580374,-3.591479388853735,0.5681533905595093
1970-01-01 00:00:00.000000023,0.4236803751590035,-2.2892953262053197,-3.3937367272518935,0.5677913523686813
1970-01-01 00:00:00.000000023,0.45231291075421665,-2.383326774412561,-3.1274579730743897,0.5663723030740003
1970-01-01 00:00:00.000000023,0.4710019201751737,-2.3601914029148254,-3.097292365737592,0.5668019164544799
1970-01-01 00:00:00.000000023,0.5341612671353769,-2.280080317087834,-3.0626751146407174,0.5662451342029737
1970-01-01 00:00:00.000000023,0.5834093354709173,-2.122017905735414,-3.2649764768404834,0.568980865553213
1970-01-01 00:00:00.000000023,0.7283961239939524,-2.0033544165649695,-3.830641038848942,0.5744918627432831
1970-01-01 00:00:00.000000023,0.8723759304618044,-2.223379558586324,-4.167159789148547,0.5796761172539558
1970-01-01 00:00:00.000000023,0.9567031105616489,-2.4208934061045793,-4.325673009000691,0.5759684680807912
1970-01-01 00:00:00.000000024,0.5995849184851179,-2.6750542425586583,-4.1603232901914176,0.5793655904122017
1970-01-01 00:00:00.000000024,0.5871629190573284,-2.68921160459147,-4.136696287779888,0.5754669172424849
1970-01-01 00:00:00.000000024,0.364537395987429,-2.7102876704563883,-3.5571050689109045,0.5738174918956395
1970-01-01 00:00:00.000000024,0.4560935585321621,-2.6052638588791868,-2.7718489339627173,0.5681019085977157
1970-01-01 00:00:00.000000024,0.6093986469512866,-2.590892559618542,-2.7418721884193338,0.5730829057119224
1970-01-01 00:00:00.000000024,0.9840505062213659,-2.5674670568574594,-2.9773319593953294,0.578709645394277
1970-01-01 00:00:00.000000024,1.3572578131575712,-2.5914106499003,-3.2567833896219835,0.5835897513722447
1970-01-01 00:00:00.000000024,1.6422383572325499,-2.632598237000694,-3.6877973069483163,0.5884408009123756
1970-01-01 00:00:00.000000024,1.8053732353757845,-2.593763011958984,-4.1687651608231215,0.5914955162274416
1970-01-01 00:00:00.000000024,1.8356765197493519,-2.584529512301947,-4.304388461686101,0.5886166166245317
1970-01-01 00:00:00.000000024,1.6286712344382872,-2.546608588406056,-4.407798072914088,0.5852832702285323
1970-01-01 00:00:00.000000024,1.322262298966343,-2.4481358331407748,-4.480392965473478,0.5820031268727313
1970-01-01 00:00:00.000000024,1.015677281172418,-2.2452665199694724,-4.505019608444432,0.5787984475667064
1970-01-01 00:00:00.000000024,0.7820013566620294,-2.03356005558419,-4.514636312075372,0.5782600136852449
1970-01-01 00:00:00.000000024,0.7430095885648089,-2.008977051671657,-4.488282888458615,0.5783047568730239
1970-01-01 00:00:00.000000024,0.7527357706576172,-2.0588335633166204,-4.519014900073304,0.5781601039264465
1970-01-01 00:00:00.000000024,0.7119972719615798,-2.1765721682312726,-4.522162423874782,0.5771799445929702
1970-01-01 00:00:00.000000024,0.582340530931899,-2.2811091431389703,-4.401864708757068,0.5754091416786091
1970-01-01 00:00:00.000000024,0.440398772005572,-2.1941463485133212,-4.108956364558447,0.5703001345431873
1970-01-01 00:00:00.000000024,0.27935258235623645,-2.1075747382357823,-3.936689605836058,0.568166925278471
1970-01-01 00:00:00.000000024,0.22189873133695648,-2.0562844650073404,-3.777575874169655,0.5664988726271065
1970-01-01 00:00:00.000000024,0.21277133222167058,-1.967536041993262,-3.6132892217754935,0.5640773164286428
1970-01-01 00:00:00.000000024,0.2053355585723872,-1.8114793455355045,-3.5255237904934282,0.5615029000275908
1970-01-01 00:00:00.000000024,0.19407643654764517,-1.3755192188712455,-3.2589660529529754,0.5555929587165183
1970-01-01 00:00:00.000000024,0.20714714877825008,-1.3538127697181546,-3.242832844966948,0.5554386853944622
1970-01-01 00:00:00.000000024,0.24294402892588982,-1.2090802502357298,-3.0791754478714224,0.551801766023254
1970-01-01 00:00:00.000000024,0.21641305850504478,-0.9789580770880809,-2.832508338002977,0.5478098125979942
1970-01-01 00:00:00.000000024,0.21699302723412875,-0.8043949605487564,-2.7301568076152583,0.5496609505223995
1970-01-01 00:00:00.000000024,0.45023415176853476,-0.868609748535368,-2.7606293584160135,0.5563368665058794
1970-01-01 00:00:00.000000024,0.8857431421817622,-1.2049178701619774,-2.863685489872908,0.5567897306866706
1970-01-01 00:00:00.000000024,0.8889191364008335,-1.2233825767295141,-2.868088699044012,0.5599809369488298
1970-01-01 00:00:00.000000024,1.0534783767774427,-1.4698577864537052,-2.968155469234221,0.5614543878190309
1970-01-01 00:00:00.000000024,1.0403716877959497,-1.6428165055302375,-2.952147818289714,0.5614535919613561
1970-01-01 00:00:00.000000024,0.9518823861653802,-1.813543127071619,-2.917190888796965,0.5626422367347963
1970-01-01 00:00:00.000000024,0.9091443068368819,-2.0324716138856966,-3.0216298677105877,0.5624680172020243
1970-01-01 00:00:00.000000024,0.725622643347804,-2.0204846245643013,-3.12410971611101,0.5589049568038622
1970-01-01 00:00:00.000000024,0.3999710642175894,-1.8850923465438703,-3.193811564480107,0.5556916251149447
1970-01-01 00:00:00.000000024,0.10457460141362113,-1.660007395513095,-3.141801188244775,0.5539751637128433
1970-01-01 00:00:00.000000024,-0.01149584131792867,-1.4162297293337216,-3.1159429151528273,0.5627203039139158
1970-01-01 00:00:00.000000024,0.5634763580593628,-1.5512549690695197,-2.961717193453684,0.5586182751968826
1970-01-01 00:00:00.000000024,0.5851879965930338,-1.5607820855026,-2.9435489580559273,0.5690503822487325
1970-01-01 00:00:00.000000024,1.171764795144786,-1.9595312390998558,-2.8837745736555167,0.5782770517258393
1970-01-01 00:00:00.000000024,1.7706420285865594,-2.447324612251944,-2.769127772701434,0.5858716780966273
1970-01-01 00:00:00.000000024,2.285058568341554,-2.9144696416607188,-2.678911639241324,0.5862268127310882
1970-01-01 00:00:00.000000024,2.374795960239772,-2.550557033223749,-2.1186878074506117,0.5772558508125896
1970-01-01 00:00:00.000000024,2.385502491066816,-2.5236751173594434,-2.0987640239041445,0.5687812030359932
1970-01-01 00:00:00.000000024,1.9749487348388417,-1.9497431951720259,-1.9090128976520946,0.5609694772745616
1970-01-01 00:00:00.000000024,1.7370645937656986,-1.7821347216716075,-1.6073277820887515,0.5568560197969299
1970-01-01 00:00:00.000000024,1.6358890078344666,-1.9771317816149991,-1.5480747103978045,0.5571104713950386
1970-01-01 00:00:00.000000024,1.5378364619501856,-2.1681729334264226,-1.5084389501450044,0.5595820621821878
1970-01-01 00:00:00.000000024,1.5528116206910172,-2.447415715063514,-1.3136552376823927,0.5599318191650642
1970-01-01 00:00:00.000000024,1.5393310913630633,-2.555815590465607,-1.3540166844567403,0.5570177439035259
1970-01-01 00:00:00.000000024,1.3219418678067814,-2.1366138372260366,-1.3218038523677922,0.544743562318066
1970-01-01 00:00:00.000000024,0.771315376847876,-1.1382445481698675,-0.840173863006115,0.5377768109578902
1970-01-01 00:00:00.000000024,0.863872661938254,-1.1769699486467524,-0.693871434083675,0.5364542540647169
1970-01-01 00:00:00.000000024,0.8714418586417105,-1.1772711353826746,-0.6816819273433478,0.5513658845053374
1970-01-01 00:00:00.000000024,1.0926712355163082,-1.2464547747870054,-0.5986446722882552,0.8555254652839587
1970-01-01 00:00:00.000000024,1.3254819275967737,-1.3493031647774096,-0.6040196053504773,0.8683609227417088
1970-01-01 00:00:00.000000024,1.4743518565905025,-1.3469483056377587,-0.6221023036093344,0.8708364427985728
1970-01-01 00:00:00.000000024,1.6502750800713837,-1.234073165437264,-0.40851467009672604,0.8712855803156652
1970-01-01 00:00:00.000000024,1.9116900806664145,-1.4466203060381462,-0.3813869338720492,0.8731157063457055
1970-01-01 00:00:00.000000024,2.054998528873398,-1.5996697068097565,-0.6639271536656699,0.8706785072924037
1970-01-01 00:00:00.000000024,1.7842082554557674,-1.4574963132638732,-0.7576807505396592,0.8650040806016792
1970-01-01 00:00:00.000000024,1.3722671686722177,-1.3190436768664124,-0.6097660364567113,0.8609533688924489
1970-01-01 00:00:00.000000024,1.1057754378664906,-1.1238158142187262,-0.42313508588101045,0.8564386528960753
1970-01-01 00:00:00.000000024,0.9231417102805622,-1.1255891791337023,0.083512845574917,0.8541190126981705
1970-01-01 00:00:00.000000024,0.9715350810309952,-1.066123918977512,0.6289500198174949,0.8485774188593523
1970-01-01 00:00:00.000000024,0.9845839584756644,-0.5608914397634902,0.4970028829930694,0.8491711154910536
1970-01-01 00:00:00.000000024,1.220867317880141,-0.5022400716268962,0.3658327040052117,0.8475822079000257
1970-01-01 00:00:00.000000024,1.206862278018351,-0.6284282808275186,0.25164233848283274,0.8495453366359255
1970-01-01 00:00:00.000000024,1.19991725549667,-0.6508869338357494,0.24294701191163037,0.8474130836414185
1970-01-01 00:00:00.000000024,1.0626903442803033,-1.0736954800635337,0.17975043580536332,0.8452659998476522
1970-01-01 00:00:00.000000024,0.6585944906598068,-0.4188011365415977,0.28040464617124716,0.837693429074353
1970-01-01 00:00:00.000000024,0.4139178645976636,0.13745564442021155,0.26256586179813207,0.8366820616307973
1970-01-01 00:00:00.000000024,0.496509487202585,0.03090359077060804,-0.04032632273838031,0.8463569153315774
1970-01-01 00:00:00.000000024,0.8632847306889925,-0.15678567102426416,-0.20510355314487164,0.8540623004024208
1970-01-01 00:00:00.000000024,1.265294940446337,-0.05878592157106662,-0.54213882531848,0.8614906078795506
1970-01-01 00:00:00.000000024,1.7409090959273639,-0.16662576055327372,-0.9188362796128257,0.8628271886778069
1970-01-01 00:00:00.000000024,1.8044383701261997,-0.20911084746306421,-1.035441958323556,0.8586768778165932
1970-01-01 00:00:00.000000024,1.562059519770588,0.3461682004513315,-0.712561273722388,0.8398184592621027
1970-01-01 00:00:00.000000024,0.8320183041873144,0.8843773382179528,-0.3749873536119856,0.8379812263202162
1970-01-01 00:00:00.000000024,0.836394257848264,0.8928809184537964,-0.30123628678081604,0.8393702638952468
1970-01-01 00:00:00.000000024,0.9685844246195822,0.5407205337073012,1.3089206842026997,0.8351635980152835
1970-01-01 00:00:00.000000024,1.4277270748617215,0.37989668892977035,2.065417957540153,0.8262047052949465
1970-01-01 00:00:00.000000024,1.4490618897713494,0.3784764374025922,2.1193505393875247,0.827184440445476
1970-01-01 00:00:00.000000024,1.5763887384810018,0.4566370209065384,2.774716505889342,0.8182797121903266
1970-01-01 00:00:00.000000024,1.5290055764822124,1.0444112230660303,3.6416832156167946,0.8028905101765217
1970-01-01 00:00:00.000000024,1.3933133399276967,1.4838757415957269,4.542140055483545,0.7940084277862907
1970-01-01 00:00:00.000000024,1.5518832219725973,1.218936197625895,5.444800680046205,0.7768740631517167
1970-01-01 00:00:00.000000024,0.9884412681058932,0.0866283128690628,6.126705024329571,0.7836526213667355
1970-01-01 00:00:00.000000024,0.9483525183153081,0.05898194474247261,6.1651886717558755,0.7635350341449366
1970-01-01 00:00:00.000000024,-0.2045055834381348,0.9956866951356249,7.073191613037007,0.7644304259955901
1970-01-01 00:00:00.000000024,0.2355709670984788,0.2645793778674118,8.001005434191383,0.758941647175178
1970-01-01 00:00:00.000000024,0.2443186254655309,0.2340531941939641,8.040051797039798,0.7559253601348055
1970-01-01 00:00:00.000000024,0.08603350715873388,0.221592325338287,8.247128545851822,0.7606131619242952
1970-01-01 00:00:00.000000024,0.3675866754587524,-0.2119569756055259,8.171522375414185,0.7625680717669923
1970-01-01 00:00:00.000000024,0.36067317597507487,-0.205692140762828,8.122714116255803,0.7602979272002351
1970-01-01 00:00:00.000000025,0.192742572704437,0.4666405134413644,6.9501301019247,0.7666819265626151
1970-01-01 00:00:00.000000025,0.1956892240227692,0.4543097028776603,6.930122334909068,0.7822724146794205
1970-01-01 00:00:00.000000025,1.0077424643143684,-0.9505317650245484,7.162919711340143,0.7972546659928367
1970-01-01 00:00:00.000000025,1.5978009339892285,-2.7390400746004304,7.348337155214812,0.8160654765582821
1970-01-01 00:00:00.000000025,2.1574417272967916,-0.13381080785595864,6.361922920790855,0.7990872679029923
1970-01-01 00:00:00.000000025,2.2099295541868686,-0.014962952686000494,6.282470490962808,0.8110141671381432
1970-01-01 00:00:00.000000025,2.9467663258583157,0.25383896415053653,4.788808214021521,0.815157749134562
1970-01-01 00:00:00.000000025,2.930081942383674,0.28554718738542284,4.682283490253186,0.8080118876210336
1970-01-01 00:00:00.000000025,2.476917416721053,1.070523008391273,3.4974339359499083,0.8085857552598384
1970-01-01 00:00:00.000000025,2.093411642022826,1.2172990257661611,2.8471577669815646,0.8153631164729218
1970-01-01 00:00:00.000000025,2.063148454497315,1.20041470736355,2.779689792620807,0.8029170350686287
1970-01-01 00:00:00.000000025,1.2690196597756296,0.955044666941612,1.965613227672156,0.8173780497630782
1970-01-01 00:00:00.000000025,1.2212065367266296,0.9322792497973444,1.8883553042647794,0.8056128837629505
1970-01-01 00:00:00.000000025,0.43506520958925404,0.9086180993810635,0.9621030092712496,0.8191274591220465
1970-01-01 00:00:00.000000025,0.38995000343650843,0.9043197768857864,0.8923362894533855,0.8075734814178293
1970-01-01 00:00:00.000000025,-0.3549393897087596,1.1443048169477161,0.26726574638269635,0.8144801050629715
1970-01-01 00:00:00.000000025,-0.49999278316688384,1.1815238391500382,0.263452421326899,0.815837539220988
1970-01-01 00:00:00.000000025,-0.4991439669926368,1.169772132090765,0.2588829214310069,0.8189013713822403
1970-01-01 00:00:00.000000025,-0.34968631486782886,0.7393650529615126,0.0634277829712061,0.8243754392515189
1970-01-01 00:00:00.000000025,-0.2886207416107582,0.48817116816075634,-0.10124591091776206,0.8271569841905484
1970-01-01 00:00:00.000000025,-0.3220448657617281,0.3188196823640458,-0.16950418276564178,0.8292609543695244
1970-01-01 00:00:00.000000025,-0.3451681579082238,0.19476118973176718,-0.15056608969128152,0.8305243433409936
1970-01-01 00:00:00.000000025,-0.3455901837626628,-0.015501503618876152,-0.10101418291150487,0.8324969973158562
1970-01-01 00:00:00.000000025,-0.3187661480894977,-0.3695307109754752,0.16695422754659506,0.8335002861441716
1970-01-01 00:00:00.000000025,-0.29575811056983553,-0.4931532854111071,0.327452733977416,0.8335197613757211
1970-01-01 00:00:00.000000025,-0.26318968135263193,-0.6035610775324602,0.5163165074355901,0.8314148140833523
1970-01-01 00:00:00.000000025,-0.32776775509833406,-0.5284945726860468,0.38759420206278783,0.8320160796451631
1970-01-01 00:00:00.000000025,-0.3486655716695956,-0.4091074500318144,0.20541188321866727,0.8325388967861388
1970-01-01 00:00:00.000000025,-0.3604371306419844,-0.024784296365018596,-0.09885107335084534,0.8319910408796055
1970-01-01 00:00:00.000000025,-0.3590845576966167,-0.0019736200994904217,-0.11629593196728913,0.832148764178511
1970-01-01 00:00:00.000000025,-0.3514078851573277,0.22748276485975474,-0.28515287858497995,0.8348464286122713
1970-01-01 00:00:00.000000025,-0.17079570397337698,0.2287566084993632,-0.47308345264066687,0.8362877710304089
1970-01-01 00:00:00.000000025,-0.09869772561199894,0.22241319987641392,-0.46463280745966123,0.8362255499532304
1970-01-01 00:00:00.000000025,-0.058839363228552634,0.2980734752743006,-0.42532866165969657,0.8313103903083977
1970-01-01 00:00:00.000000025,-0.241548831863954,0.597109416709086,0.002297726827238597,0.8235283980439926
1970-01-01 00:00:00.000000025,-0.386856344529867,0.7940221572810945,0.33250866740521207,0.8169323637805745
1970-01-01 00:00:00.000000025,-0.5411400447814345,0.7262822619062418,1.1102297251392532,0.8112734815483812
1970-01-01 00:00:00.000000025,-0.568790373441941,0.8448797133168843,1.4229747104840877,0.8095670626462773
1970-01-01 00:00:00.000000025,-0.4491175316599052,0.9020836441944391,1.6267011044759225,0.8064854819370137
1970-01-01 00:00:00.000000025,-0.4384025106946374,0.9126714579673069,1.649247888400132,0.8096683531785132
1970-01-01 00:00:00.000000025,-0.22210115358151758,1.046982245772672,1.9599284071774656,0.8043312042237597
1970-01-01 00:00:00.000000025,-0.20754980133917844,1.0619027410533035,1.9748726685499252,0.8061623495125655
1970-01-01 00:00:00.000000025,-0.06567504588481816,1.272222988312392,2.0094648693163975,0.8027180837524737
1970-01-01 00:00:00.000000025,-0.05036989425500021,1.7697746476159064,2.7623355072274176,0.7917172415299372
1970-01-01 00:00:00.000000025,-0.03054124918034984,1.7824904287040246,2.844391757210823,0.7872799944338602
1970-01-01 00:00:00.000000025,-0.17508435015484952,1.7250391608270592,4.4038141708990945,0.7752494671096918
1970-01-01 00:00:00.000000025,-0.15760531667166994,1.7230206223769209,4.488044565815059,0.7667439517692691
1970-01-01 00:00:00.000000025,-0.5272624786721488,1.9280838626082057,5.404955325365853,0.7512380754100543
1970-01-01 00:00:00.000000025,-0.9987924390178534,1.8723954698134162,6.482901020831728,0.7466705115620539
1970-01-01 00:00:00.000000025,-0.9768258217412092,1.7830956767411186,6.539874091477962,0.7582022166436456
1970-01-01 00:00:00.000000025,-0.35208516057550554,-0.8769109840597635,6.695600662816703,0.7695251770509233
1970-01-01 00:00:00.000000025,-0.2542126802479209,-0.6004764704901796,7.100559580437586,0.5710279650869327
1970-01-01 00:00:00.000000025,-0.5724337601360237,-0.18313066499211933,7.422331063181073,0.5618768050502341
1970-01-01 00:00:00.000000025,-0.4886452449473734,-0.634059446480473,7.512371163267961,0.5704616796569993
1970-01-01 00:00:00.000000025,-0.1533697103769197,-1.204048064846268,7.144116670188296,0.5838387413941647
1970-01-01 00:00:00.000000025,0.27241845309526236,-1.4910140132584335,7.013003222926371,0.5882324996667863
1970-01-01 00:00:00.000000025,0.5000788751952966,-1.5273242926609283,6.982976349294268,0.5852686206505922
1970-01-01 00:00:00.000000025,0.3996274376133186,-1.384000709522025,6.64009938708348,0.5875853075348245
1970-01-01 00:00:00.000000025,0.3793125446085308,-2.0389353495327347,6.60146661686068,0.5921180682616783
1970-01-01 00:00:00.000000025,0.2730715218490647,-2.232581765448426,6.53417123056828,0.5950983685148918
1970-01-01 00:00:00.000000025,0.26726602886266143,-2.3900034012569624,6.421925524800686,0.5871306685292151
1970-01-01 00:00:00.000000025,-0.32844062435341803,-1.9735327919763344,5.931795215563491,0.5922308288582051
1970-01-01 00:00:00.000000025,-0.3453432369878376,-1.9713535242914828,5.910573753226121,0.5879540390258865
1970-01-01 00:00:00.000000025,-0.6012362485068391,-2.2136844920157124,5.943023993419747,0.5826799672897164
1970-01-01 00:00:00.000000025,-1.1048561928729979,-1.8752101285338296,5.7239917007059695,0.5781465799664041
1970-01-01 00:00:00.000000025,-1.5286499333768497,-1.129828813905172,5.3919120901339035,0.5752617268666843
1970-01-01 00:00:00.000000025,-1.6969416733957101,-0.7640653940011135,4.973737185814082,0.5808463689097726
1970-01-01 00:00:00.000000025,-1.5336017161143094,-0.7647771859866348,4.384151564984531,0.6035737424064255
1970-01-01 00:00:00.000000025,-0.4976597267332434,-1.2515778883836082,3.281695808022652,0.6098092858891249
1970-01-01 00:00:00.000000025,-0.49464513914403807,-1.2762450888959296,3.2232159631019237,0.6236815586458145
1970-01-01 00:00:00.000000025,0.18070815449241012,-1.8008180395821998,2.401356667953603,0.6466381403431825
1970-01-01 00:00:00.000000025,1.0765269998338822,-2.781141772044779,0.9281142794240366,0.6610723089697941
1970-01-01 00:00:00.000000025,1.0561060980520498,-2.8328897451517068,0.8648489369704815,0.6702581328873594
1970-01-01 00:00:00.000000025,1.449832059715814,-3.4719699991170296,0.40771836671323747,0.6816324974941926
1970-01-01 00:00:00.000000025,1.7242013463614168,-3.4738743590405714,0.3299728362544774,0.6810690419943991
1970-01-01 00:00:00.000000025,1.7592604959885045,-3.357082078335816,0.21710382880021084,0.6836111235681576
1970-01-01 00:00:00.000000025,1.9163824416801944,-3.5185739979041557,-0.0694017005264811,0.6860229230391737
1970-01-01 00:00:00.000000025,1.9086111117312958,-3.810554323417363,-0.08208820135617995,0.6836932107195615
1970-01-01 00:00:00.000000025,1.6294271401397504,-3.9712497729171825,-0.0018367746429162266,0.6796605984074537
1970-01-01 00:00:00.000000025,1.236442261105936,-3.9128731757030266,0.032811655641001455,0.6782831864962496
1970-01-01 00:00:00.000000025,1.0071406930923448,-4.135872742602643,-0.32179529458815187,0.6852625360241807
1970-01-01 00:00:00.000000025,0.9962983226171365,-4.150452461924309,-0.3660461968771073,0.6898675693716405
1970-01-01 00:00:00.000000025,1.1868177503794983,-4.429576870084985,-1.31468516182501,0.6987525668498535
1970-01-01 00:00:00.000000025,1.167046491935474,-4.4366151044949165,-1.3689452465228256,0.6987835320207425
1970-01-01 00:00:00.000000025,1.102492556661158,-4.335319709036814,-1.8731252520503257,0.7029379105221523
1970-01-01 00:00:00.000000025,1.104157454501557,-3.9544511296525036,-2.2928706489893997,0.7039298324949206
1970-01-01 00:00:00.000000025,1.1261830337282386,-3.5416695106849487,-2.641190989767622,0.7071827183075285
1970-01-01 00:00:00.000000025,1.3550976934127577,-3.1177751572825785,-2.7164355731778533,0.7036779339379113
1970-01-01 00:00:00.000000025,1.446697671789081,-2.743396498189399,-2.807706248279182,0.6978086063423264
1970-01-01 00:00:00.000000025,1.3223004301647874,-2.1605196725740345,-2.5482225091029287,0.6913889291330388
1970-01-01 00:00:00.000000025,1.3328156982532897,-2.1328988325120104,-2.5365656687023743,0.6882521796182477
1970-01-01 00:00:00.000000026,1.2042690074433011,-1.896169564589335,-2.407471305200247,0.6838230317915792
1970-01-01 00:00:00.000000026,1.0822856686005071,-1.6671175201187431,-2.3185976804229935,0.6823554406066962
1970-01-01 00:00:00.000000026,1.1050639561860427,-1.434242736699462,-2.512905324303287,0.6823584770775101
1970-01-01 00:00:00.000000026,1.1295311480138555,-1.3730054974690962,-2.8454152024681303,0.6865781843547071
1970-01-01 00:00:00.000000026,1.2287824663610725,-1.5586831482745709,-3.2350825956446467,0.694298917762157
1970-01-01 00:00:00.000000026,1.4078234136183498,-1.8321354920945991,-3.622510866087588,0.6996204796442667
1970-01-01 00:00:00.000000026,1.4491151000002969,-1.9133064356631637,-3.827042086103767,0.7019466058204938
1970-01-01 00:00:00.000000026,1.44599249357453,-2.1375989928414847,-3.7680861807448016,0.703301026049389
1970-01-01 00:00:00.000000026,1.4401630386373605,-2.149278899104988,-3.75869732205394,0.7005924400359509
1970-01-01 00:00:00.000000026,1.2914037950550088,-2.1703268070426844,-3.4941370387610813,0.6961232014427957
1970-01-01 00:00:00.000000026,1.1050260690948053,-2.1144847849514785,-3.2479426183992555,0.6906179755865327
1970-01-01 00:00:00.000000026,0.8721479290644698,-1.9458219669990573,-2.9753732383706106,0.6863264296128048
1970-01-01 00:00:00.000000026,0.749221347822544,-1.839180263651807,-2.753606757235997,0.6845475549014506
1970-01-01 00:00:00.000000026,0.7550345739588925,-1.8328414417889978,-2.742805497190591,0.6864851331080968
1970-01-01 00:00:00.000000026,0.8731935927086676,-1.8200698751402935,-2.7246728773991173,0.6888436990990026
1970-01-01 00:00:00.000000026,1.0700115956975853,-1.791563884719688,-3.0558808903063404,0.6905999154152281
1970-01-01 00:00:00.000000026,1.108072956316845,-1.5780464560860519,-3.560002604666839,0.6922864438883787
1970-01-01 00:00:00.000000026,1.068459825121633,-1.8819926539738487,-3.630491660068469,0.6956557157718758
1970-01-01 00:00:00.000000026,1.0575466277223453,-1.8945364331662704,-3.6220534491402296,0.6924605205648608
1970-01-01 00:00:00.000000026,0.8779081611760935,-1.8459446360751883,-3.240405061277455,0.6861486154906211
1970-01-01 00:00:00.000000026,0.6657546828233286,-1.859710799433522,-2.7826252639207465,0.6806339096832061
1970-01-01 00:00:00.000000026,0.4991570812209531,-1.894782709380788,-2.1690128253335903,0.6732550557760766
1970-01-01 00:00:00.000000026,0.3031610031304125,-1.6359616402995778,-1.8672603065380318,0.6715371803900332
1970-01-01 00:00:00.000000026,0.39145232702422905,-1.3193915399555132,-1.7902254124409802,0.6758627240781154
1970-01-01 00:00:00.000000026,0.8715467360842816,-1.3993152073761026,-1.880531098245264,0.6758749714132625
1970-01-01 00:00:00.000000026,1.0128798326282478,-1.1189978549596562,-2.1409930359415488,0.6767065788905909
1970-01-01 00:00:00.000000026,1.139973541053999,-0.7439429738715141,-2.356596969513465,0.6757104318667756
1970-01-01 00:00:00.000000026,1.2288517008097688,-0.623147525230818,-2.392810226581616,0.6726138664237509
1970-01-01 00:00:00.000000026,1.1510959251135182,-0.40820693187536206,-2.4014458727049734,0.6685211076306911
1970-01-01 00:00:00.000000026,0.9971039139056446,-0.12081696844770695,-2.4186056694963947,0.665902577132173
1970-01-01 00:00:00.000000026,0.9203240787043212,0.23829971044631573,-2.558756277038639,0.6638232721680251
1970-01-01 00:00:00.000000026,0.8827096062699146,0.4487833003641733,-2.77393966068092,0.6620237918414549
1970-01-01 00:00:00.000000026,0.7662043741315765,0.5690734096357638,-2.8973905510968,0.6618669883716646
1970-01-01 00:00:00.000000026,0.6921396201594355,0.6140308582401736,-3.007773120493955,0.6670408632032208
1970-01-01 00:00:00.000000026,0.8986994837921116,0.07480073723283943,-3.4974427278560665,0.6741011630702259
1970-01-01 00:00:00.000000026,0.8821878162572009,0.03452602198819171,-3.5442435566781225,0.673451385205605
1970-01-01 00:00:00.000000026,0.7668966453894276,-0.482222355916709,-4.286757514818308,0.6802858956870543
1970-01-01 00:00:00.000000026,0.4647939657714852,-0.5974520900107142,-4.7161318016875535,0.6871692106444821
1970-01-01 00:00:00.000000026,0.4397611879618034,-0.6046973475557863,-4.754514403928831,0.6783933891017577
1970-01-01 00:00:00.000000026,-0.09286757622639677,-0.4440795161865926,-5.120460326581972,0.6755729434828999
1970-01-01 00:00:00.000000026,-0.5764662213638005,-0.29057072557614827,-5.40303554987832,0.6677788194136084
1970-01-01 00:00:00.000000026,-1.3137928635200573,-0.09439313376150849,-5.454562579524766,0.6722159918634372
1970-01-01 00:00:00.000000026,-1.3297632564624315,-0.08340451609031999,-5.445514727396104,0.6675162013644669
1970-01-01 00:00:00.000000026,-1.5926978425761755,0.1452743433187395,-5.021531916174165,0.6643484595440481
1970-01-01 00:00:00.000000026,-1.5802584173420582,0.14460491008429177,-4.997053884918355,0.6695092012838367
1970-01-01 00:00:00.000000026,-1.2838671268154989,-0.23692889556839752,-4.894910101146943,0.6772367211650033
1970-01-01 00:00:00.000000026,-0.8907298242994505,-0.7236378791330728,-4.847471634751162,0.6947533520401868
1970-01-01 00:00:00.000000026,0.03688818982824843,-1.9427486001845558,-5.128278796294473,0.700472895331021
1970-01-01 00:00:00.000000026,0.030946375540587504,-2.004062630072461,-5.139544169422089,0.7053503882458858
1970-01-01 00:00:00.000000026,0.2450222148097187,-2.5624403831260976,-5.2849117494561275,0.7093134865246762
1970-01-01 00:00:00.000000026,0.21682178353685372,-2.9292363772588748,-5.300481728820036,0.7095289555646851
1970-01-01 00:00:00.000000026,0.024390755500081587,-3.2781688085985765,-5.079321934419886,0.7075651785577867
1970-01-01 00:00:00.000000026,-0.2413348915528927,-3.5295970730844015,-4.7894861186986075,0.70727911788484
1970-01-01 00:00:00.000000026,-0.35578067236354377,-3.717581878131983,-3.933432983894237,0.7031651614521943
1970-01-01 00:00:00.000000026,-0.32227663047077404,-4.177226142867102,-3.895316952833749,0.7068916055074623
1970-01-01 00:00:00.000000026,-0.2988806126444074,-4.5025759117458835,-3.6751766750830503,0.7086801253542182
1970-01-01 00:00:00.000000026,-0.24400601518193946,-4.623212996538774,-3.5653427966756444,0.7074061273603921
1970-01-01 00:00:00.000000026,-0.2932163513753084,-4.770857024972634,-3.7857608653309334,0.7054271537757711
1970-01-01 00:00:00.000000026,-0.6009981370186732,-4.586254413022607,-3.9215283025598398,0.7036231598561726
1970-01-01 00:00:00.000000026,-0.8260474238320976,-4.406612295126532,-3.944103472273515,0.7046218644230766
1970-01-01 00:00:00.000000026,-0.8055252353196136,-4.516845157492679,-3.9438330509239745,0.7074234480389925
1970-01-01 00:00:00.000000026,-0.7120184119097848,-4.739040140799559,-3.9802220862975273,0.7158019195769925
1970-01-01 00:00:00.000000026,-0.33059267135175624,-5.351529769221643,-3.6864544042354694,0.715761125984596
1970-01-01 00:00:00.000000026,-0.31325036539020223,-5.41009454483133,-3.461877744706662,0.7127414359315952
1970-01-01 00:00:00.000000026,-0.388521128961554,-5.299173644807765,-3.3623954064279142,0.710930811155973
1970-01-01 00:00:00.000000026,-0.4157619461509473,-5.200699684682479,-3.3559040485511815,0.7101085161465275
1970-01-01 00:00:00.000000026,-0.42602626708004215,-5.004500024491784,-3.3817960873266193,0.7130408124986538
1970-01-01 00:00:00.000000026,-0.2018262136619725,-5.126181773370373,-3.1579711060422553,0.7224364951134203
1970-01-01 00:00:00.000000026,0.4736213979242305,-5.607456328583608,-3.21347224788961,0.7235199540593701
1970-01-01 00:00:00.000000026,0.5885313573370139,-5.627981513050684,-2.9586220016408373,0.7205837203969281
1970-01-01 00:00:00.000000026,0.5924847075129791,-5.620343869756329,-2.941621142384417,0.7207650212572709
1970-01-01 00:00:00.000000026,0.4708525216298831,-5.32739216543029,-2.671238037798537,0.7948065290602734
1970-01-01 00:00:00.000000026,0.3609120648065874,-4.998855373593248,-2.336416654907833,0.7936215363526319
1970-01-01 00:00:00.000000026,0.404714712707098,-5.061173551182737,-2.081482274308247,0.7977253725797612
1970-01-01 00:00:00.000000026,0.7667055869835806,-5.191674916348962,-1.4024491594231376,0.790340165006887
1970-01-01 00:00:00.000000026,0.7861125619581781,-5.1972788638717855,-1.3678747037490606,0.7924504586878941
1970-01-01 00:00:00.000000026,0.9415707671940214,-5.28192538182354,-1.1772388154357907,0.7929722956462395
1970-01-01 00:00:00.000000026,1.104812903394898,-5.07905221747656,-0.831919085130046,0.7876768013620944
1970-01-01 00:00:00.000000026,1.175757387559643,-4.633282122323254,-0.31537411535509713,0.7777247585649513
1970-01-01 00:00:00.000000026,1.1627616486315033,-4.050316182825694,0.28606687296801586,0.7643616320314557
1970-01-01 00:00:00.000000026,1.036780585760432,-3.6687324500050815,1.095702049456914,0.7507827199640018
1970-01-01 00:00:00.000000026,0.8519685072648999,-3.6082909866798745,2.1950574430003,0.7381618373425022
1970-01-01 00:00:00.000000026,0.6693010613125809,-3.5396211403079003,3.136351961594818,0.7293109880414732
1970-01-01 00:00:00.000000026,0.6199562008204974,-3.526979996019457,3.9209453256737503,0.7219556951055326
1970-01-01 00:00:00.000000026,0.6076302354588202,-3.5719627447108513,4.596047839103036,0.714589837028782
1970-01-01 00:00:00.000000026,0.5328621830196605,-3.3672748675330526,5.221085573748683,0.704930198026337
1970-01-01 00:00:00.000000026,0.4009615820352252,-2.553855159870497,5.913866170922455,0.693350078207667
1970-01-01 00:00:00.000000026,0.4653215447617926,-2.0030825004796977,6.787032989648278,0.6834749117856295
1970-01-01 00:00:00.000000026,0.691609025209606,-1.9539787135191526,7.911418189143236,0.6700872292807829
1970-01-01 00:00:00.000000026,0.6755486338989217,-1.5909378539847003,8.734663027771775,0.6565062390625076
1970-01-01 00:00:00.000000026,0.5348085541560776,-1.2437967320858125,9.432030172676583,0.6473488871031268
1970-01-01 00:00:00.000000026,0.5130034269728141,-1.0103312869050876,10.161394259923041,0.6373773878633116
1970-01-01 00:00:00.000000026,0.44788469251070323,-0.5503930893827752,10.660369770214292,0.6308165598893634
1970-01-01 00:00:00.000000026,0.5787179379069572,0.28192298068724314,12.050794642979923,0.6110958859808953
1970-01-01 00:00:00.000000027,0.6289242323499651,0.32583338951432794,12.124605411819678,0.6165132328851444
1970-01-01 00:00:00.000000027,1.0545356762658307,0.5126784491844003,12.560651389136106,0.6160823646170841
1970-01-01 00:00:00.000000027,1.5276934289650965,0.5322811068463743,12.778778463237092,0.6177280298722891
1970-01-01 00:00:00.000000027,1.958677685622582,0.5840756136800154,12.691531296277699,0.6219596696613308
1970-01-01 00:00:00.000000027,2.37480137634705,0.6050572372804986,12.25986331102723,0.6267008754644335
1970-01-01 00:00:00.000000027,2.634123086726818,0.49563904752158544,11.567947356085718,0.6263542722208446
1970-01-01 00:00:00.000000027,2.3436216837281174,1.0329690568972392,10.830487314382106,0.6248575353075674
1970-01-01 00:00:00.000000027,2.0248535517072233,1.688657368615345,10.649342012142647,0.6231521107092407
1970-01-01 00:00:00.000000027,2.0020757928910062,1.902719761314838,10.293686879067065,0.6264103691539602
1970-01-01 00:00:00.000000027,2.0926914964921814,1.6941252083575637,9.789552744140428,0.6334979276342431
1970-01-01 00:00:00.000000027,2.1708908861692398,1.1633772149325692,9.348953563317687,0.6369710772781246
1970-01-01 00:00:00.000000027,1.9074604843617697,1.2084532838567794,8.62358715447209,0.6403358976243755
1970-01-01 00:00:00.000000027,1.6226924701100975,0.8712755072746678,7.644313665502952,0.6427332663685044
1970-01-01 00:00:00.000000027,0.9550202310778457,1.1674647909334341,6.874361192481814,0.6491627224137239
1970-01-01 00:00:00.000000027,0.7510426367291085,1.0809904333506593,6.394155116928651,0.64959787393894
1970-01-01 00:00:00.000000027,0.37614315279629645,1.1995167352988891,5.698066790356318,0.6544407494164912
1970-01-01 00:00:00.000000027,0.1769893256277691,1.6077113972197747,5.255398200192356,0.6562733875210144
1970-01-01 00:00:00.000000027,0.13445935512791776,1.4759931476703172,4.964986772872539,0.6664639214004415
1970-01-01 00:00:00.000000027,0.4399973514848524,0.7540666563003612,3.5592077337877632,0.6824366064267795
1970-01-01 00:00:00.000000027,0.4105334900689635,0.727996282264303,3.4778117492219494,0.6877352116617538
1970-01-01 00:00:00.000000027,0.5827269260830678,0.6306420056758241,2.5705185360448954,0.6994441989948721
1970-01-01 00:00:00.000000027,0.7790413388789067,0.23688003713832428,1.6137308901456116,0.7190213770694756
1970-01-01 00:00:00.000000027,1.2595304535608878,-0.5520453318529978,0.6830511689746741,0.7311897026833144
1970-01-01 00:00:00.000000027,1.2682172649352463,-0.7557097180681814,-0.284955048728323,0.7437159241953849
1970-01-01 00:00:00.000000027,1.37197338049274,-0.2903425391910101,-1.0650629678424983,0.745135817103253
1970-01-01 00:00:00.000000027,1.2883380612446493,-0.5308580744794499,-2.169064317409493,0.7618529529163675
1970-01-01 00:00:00.000000027,1.4760655208759985,-0.917896080874227,-2.8747442113338812,0.784044352232875
1970-01-01 00:00:00.000000027,2.2126620568236737,-0.9471150318693847,-3.1438083113499906,0.7967866843408512
1970-01-01 00:00:00.000000027,3.1137610392038284,-0.6813133568414672,-3.03518377235816,0.7863135974420961
1970-01-01 00:00:00.000000027,3.1337005370125866,-0.6839029933025982,-3.0417109327727094,0.7823441058576602
1970-01-01 00:00:00.000000027,2.934321485382342,-0.9206937736319061,-3.2276377238082437,0.7845719991257589
1970-01-01 00:00:00.000000027,2.7605057319632373,-1.1242554292945524,-3.3039341445855546,0.7858943857164278
1970-01-01 00:00:00.000000027,2.607974713506177,-1.1669218734417295,-3.4613032361224456,0.7860784088113566
1970-01-01 00:00:00.000000027,2.4461426011313443,-1.1202997370376575,-3.638917814126013,0.7847791184989713
1970-01-01 00:00:00.000000027,2.2295170502223423,-1.033166871115833,-3.7414735898207083,0.7851829958343366
1970-01-01 00:00:00.000000027,2.1395681103844355,-0.9884726678129461,-3.844135995756231,0.7861159340192999
1970-01-01 00:00:00.000000027,2.1177808342722435,-0.893234471309857,-3.787837607073688,0.7865289609248991
1970-01-01 00:00:00.000000027,2.1920809986762966,-0.871757944932306,-3.6703792826124504,0.7914871732881672
1970-01-01 00:00:00.000000027,2.54094127338234,-1.0054136881108942,-2.9235866697109554,0.806662121321427
1970-01-01 00:00:00.000000027,3.96837904113229,-1.5994819556292126,1.658468878849197,0.7475408305371739
1970-01-01 00:00:00.000000027,3.276048685386814,-0.6421816887333893,-1.259336176216373,0.7495787780407118
1970-01-01 00:00:00.000000027,2.260053010088392,-0.5864874133478425,1.7423905901331986,0.7282434531006121
1970-01-01 00:00:00.000000027,1.970755243326362,0.08222989417868246,-4.170909524350382,0.7724238712268755
1970-01-01 00:00:00.000000027,1.8376463317782137,0.08946890670583477,-4.324173397059994,0.7441964702726861
1970-01-01 00:00:00.000000027,0.08562759575652813,0.39800831547363447,-1.7671944676746234,0.7196796044447586
1970-01-01 00:00:00.000000027,-0.7199841268067609,0.8738251643976036,-1.6730076768395048,0.7384434527654299
1970-01-01 00:00:00.000000027,0.24519810696476707,0.1396798786270814,-2.459604051626605,0.7469234253015475
1970-01-01 00:00:00.000000027,0.38919356789404846,-0.10861990912674521,-2.9924531847391718,0.7565586124302869
1970-01-01 00:00:00.000000027,0.617501196515689,0.410568903648316,-2.60364560763354,0.7473664887279934
1970-01-01 00:00:00.000000027,0.639343770163621,0.43473312851459606,-2.5652254004830812,0.7473104538231423
1970-01-01 00:00:00.000000027,0.7171256891131009,0.550113296583777,-1.9345524750716827,0.7371245445491229
1970-01-01 00:00:00.000000027,0.5632959911972478,0.6600575904857604,-1.4259597152139702,0.731005009955838
1970-01-01 00:00:00.000000027,0.48660367452386855,0.9098143652503249,-1.1779871169869467,0.7226044926913588
1970-01-01 00:00:00.000000027,0.24168094453459255,1.511098645202068,-1.0235240695045278,0.7197057163541938
1970-01-01 00:00:00.000000027,0.34742203188444604,2.065379147432327,-1.5316326674084886,0.7192009908129693
1970-01-01 00:00:00.000000027,0.4241701702069704,2.1782730133608235,-0.9064232726346021,0.7070767632003148
1970-01-01 00:00:00.000000027,0.1428958129575348,1.7505640358552619,-0.18922387118039155,0.7086644878551848
1970-01-01 00:00:00.000000027,0.24015339996900228,0.5443999160185335,-0.24517728794867688,0.718529419891242
1970-01-01 00:00:00.000000027,0.23778984098492434,2.88176474340528,-1.497031856673832,0.7093819456827495
1970-01-01 00:00:00.000000027,0.25412852038926864,2.9445826705059526,-1.4933483276628814,0.7003386778391825
1970-01-01 00:00:00.000000027,0.0866285554825321,2.402618523290897,-0.042721827188499005,0.5646345687249364
1970-01-01 00:00:00.000000027,0.09314367913485425,2.347781314981065,0.011522850206180164,0.555259924780139
1970-01-01 00:00:00.000000027,-0.16688907210953785,1.5352172900672318,0.15157909162475816,0.56392509962146
1970-01-01 00:00:00.000000027,-0.1242490538561595,1.1599927227056268,0.13801982953372308,0.5664263612839604
1970-01-01 00:00:00.000000027,-0.17002456112001738,1.0319925820820492,-0.1776373351168914,0.5657944045560692
1970-01-01 00:00:00.000000027,-0.45520921436234135,0.9736755565636804,-0.6643593146358093,0.5686925151971386
1970-01-01 00:00:00.000000027,-0.7065875943778134,0.9527605068257974,-0.3145510983614858,0.5732179578683967
1970-01-01 00:00:00.000000027,-0.4249470120514351,0.5784659671083799,0.24908749825121923,0.5746015770383488
1970-01-01 00:00:00.000000027,-0.12758638133340555,-0.03919024750891796,1.0849026985350334,0.574815159970894
1970-01-01 00:00:00.000000027,0.12585058855797626,-0.5924694889248876,1.587418523118953,0.5783422935133105
1970-01-01 00:00:00.000000027,0.4061435222940534,-1.0010310746719013,1.4818523044678213,0.5856830340928607
1970-01-01 00:00:00.000000027,0.6787770407001008,-1.1659029379129595,1.4420602868157124,0.5933676067106615
1970-01-01 00:00:00.000000027,1.1234814938524842,-1.1578845283082766,1.7742391602261451,0.5945074581779786
1970-01-01 00:00:00.000000027,1.5591170727915158,-1.0519113800723698,1.7574649856283466,0.5922031008461487
1970-01-01 00:00:00.000000027,1.697170487496693,-0.8915837204429158,1.5294544649420025,0.585916668284076
1970-01-01 00:00:00.000000027,1.3890839792082332,-0.7530989043029207,1.3055557353891607,0.5840985008205865
1970-01-01 00:00:00.000000027,1.1110783891056022,-0.6328136236482915,1.0298234626529899,0.5828173163726548
1970-01-01 00:00:00.000000027,0.8267411607724395,-0.48836992608714735,0.5941767643553711,0.5852694397681435
1970-01-01 00:00:00.000000027,0.6892509473932009,-0.27806184152645813,0.5380617141202574,0.5833714869586965
1970-01-01 00:00:00.000000027,0.6041153618114843,0.05088559163679529,0.7536749036555933,0.5747474852939227
1970-01-01 00:00:00.000000027,0.37176312065436334,0.4429083506318659,0.8520962194926922,0.5645475413023933
1970-01-01 00:00:00.000000027,-0.04240320205887771,0.7097290731414313,1.0550122203649424,0.5589267180017918
1970-01-01 00:00:00.000000027,-0.3034684154593049,0.6611639222109695,1.3246210283849291,0.5566625331834238
1970-01-01 00:00:00.000000027,-0.451297256049769,-0.35484443604001664,1.7132142834333746,0.563221805769139
1970-01-01 00:00:00.000000027,-0.4635492669231316,-0.41559096513121263,1.758537354476381,0.5655003431567758
1970-01-01 00:00:00.000000027,-0.36001630714724786,-1.0963123809215523,2.537093529010084,0.5638880914582275
1970-01-01 00:00:00.000000027,-0.3562798747782198,-1.1192949877403795,2.5585362608062217,0.5638278486389303
1970-01-01 00:00:00.000000027,-0.3559246430950687,-1.0587685414137102,2.3592692594128994,0.5641489588611257
1970-01-01 00:00:00.000000027,-0.40651177583452847,-0.909765364781961,1.949424008989888,0.5646856966725413
1970-01-01 00:00:00.000000027,-0.5539041328602222,-0.9493173011842959,0.330757989829007,0.5767452482256828
1970-01-01 00:00:00.000000027,-0.7744394722929787,-1.1107400974708193,-0.5328966138834971,0.5822990655573502
1970-01-01 00:00:00.000000027,-1.0899511512585398,-0.9459554605261082,0.3757433053182916,0.5788407822377363
1970-01-01 00:00:00.000000027,-0.9228774905120944,-0.9872049115625936,0.37081828264889677,0.578055870446287
1970-01-01 00:00:00.000000027,-0.9139852775234582,-0.9914585540091957,0.35346892385664525,0.5845877078799839
1970-01-01 00:00:00.000000027,-0.5633591599312734,-1.2376380247573595,-0.2826193165911514,0.5891516546548532
1970-01-01 00:00:00.000000027,-0.5761274508285466,-1.2495245394137446,-0.30894689679196735,0.5865519332400618
