time,ax,ay,az,speed
1970-01-01 00:00:00.000000000,0.13393436937132353,-0.23581546499461928,0.49631668675760504,0.9778876560721099
1970-01-01 00:00:00.000000163,0.12375234917906902,-0.22330718329175892,0.6154325560716809,0.9589830778528307
1970-01-01 00:00:00.000000163,0.09261690954660565,-0.14740743687492464,0.7664333741857419,0.952442036332977
1970-01-01 00:00:00.000000163,0.07028561310212128,0.03210747715936248,0.8670696364339103,0.9374685359988101
1970-01-01 00:00:00.000000163,-0.021209947424016953,0.03727833167737351,0.9174158210295098,0.7738929905052709
1970-01-01 00:00:00.000000163,0.031330405218040695,0.07332945107192754,0.7520795043050463,0.7692133700034777
1970-01-01 00:00:00.000000163,-0.0002579287497667948,0.013552717073297624,0.45966666501534975,0.7784530588150221
1970-01-01 00:00:00.000000163,-0.0025537974397553814,-0.13124900471593123,0.23507753648636318,0.7878254927968704
1970-01-01 00:00:00.000000163,0.004409668499289848,0.024638297731004753,-0.030659037749095997,0.7873985782527094
1970-01-01 00:00:00.000000163,-0.1101540365991553,-0.09666880898828101,-0.20602340815330172,0.7914334570027156
1970-01-01 00:00:00.000000163,-0.3109802388229287,-0.13302931636922122,-0.2803061583446705,0.7956207742837774
1970-01-01 00:00:00.000000163,-0.4260677963168215,-0.10241526738562692,-0.21953540155773626,0.7956841036721262
1970-01-01 00:00:00.000000163,-0.43652500561729857,0.0034434324723900574,-0.011523348199104708,0.7861255497965164
1970-01-01 00:00:00.000000163,-0.5094695346135143,0.08371847131285082,0.04673552735461152,0.780685457424307
1970-01-01 00:00:00.000000163,-0.6270423745846353,0.28030514486462177,0.0467324386636614,0.7783808419676068
1970-01-01 00:00:00.000000163,-0.6334403446340955,0.2885749235159817,0.044094800048305974,0.7773009486029254
1970-01-01 00:00:00.000000163,-0.670174118232825,0.3688660611220776,0.0014754336957947325,0.7790422307843569
1970-01-01 00:00:00.000000163,-0.6107971613558277,0.48203731789539095,-0.1930294991465628,0.7807170631077761
1970-01-01 00:00:00.000000163,-0.5759594694971364,0.41574345396519313,-0.19366997874128208,0.7825695944551021
1970-01-01 00:00:00.000000163,-0.5422904815363436,0.34039925259036563,-0.18869661344250693,0.7836744900233167
1970-01-01 00:00:00.000000163,-0.5404479373028271,0.22246306926493775,-0.20371188091614134,0.7867175288824908
1970-01-01 00:00:00.000000163,-0.5497411652380971,0.03673745621741192,-0.19089033263884392,0.7909818178761779
1970-01-01 00:00:00.000000163,-0.5557450748951305,0.02778132617582386,-0.19199402276201402,0.7907738207627368
1970-01-01 00:00:00.000000163,-0.5833797571680726,-0.016598491499940287,-0.22290512396530443,0.7926036901057303
1970-01-01 00:00:00.000000163,-0.6103314653807838,-0.0006001089126518692,-0.35110383653965194,0.7975154892713217
1970-01-01 00:00:00.000000163,-0.5574734758787343,0.0944418690839104,-0.4128521443797253,0.7970100278633121
1970-01-01 00:00:00.000000163,-0.5086218115634483,0.16133401246321213,-0.43510062342795136,0.7952078907408651
1970-01-01 00:00:00.000000163,-0.4950370794262049,0.17173801229040342,-0.4247031433073781,0.7964137564254161
1970-01-01 00:00:00.000000163,-0.4306709324427321,0.10695930641244286,-0.4005172588364897,0.8019797091979197
1970-01-01 00:00:00.000000163,-0.22862676066650703,-0.047106814978439965,-0.40253292110183947,0.8064175055122054
1970-01-01 00:00:00.000000164,-0.059149882089417974,-0.24645320354043362,-0.5854815036232826,0.8163322363393023
1970-01-01 00:00:00.000000164,0.07256144014029678,-0.46523896742624077,-1.0135769635397645,0.839092778253771
1970-01-01 00:00:00.000000164,0.398979824215106,-0.3872574489149399,-1.9783550438972555,0.854563433983401
1970-01-01 00:00:00.000000164,0.4330297898294665,-0.32443592804100146,-2.2357329964500052,0.8630453539519631
1970-01-01 00:00:00.000000164,0.5591880981548865,-0.1587246912887822,-2.7976479433495753,0.8740982290407177
1970-01-01 00:00:00.000000164,0.6921904384746743,-0.025825848252369984,-3.3654565854848006,0.8855609080689248
1970-01-01 00:00:00.000000164,0.8178442238056522,-0.021500061222179095,-3.5526067144370286,0.8907686285410652
1970-01-01 00:00:00.000000164,0.9330316685421707,-0.040295278565172205,-3.5405441781336697,0.8922217781388845
1970-01-01 00:00:00.000000164,1.0678668381614544,-0.08913302842389008,-3.564746663558481,0.8892080022401732
1970-01-01 00:00:00.000000164,1.0127013228808168,-0.05548185161291613,-3.396801100678412,0.889858109030485
1970-01-01 00:00:00.000000164,1.1542333788905932,-0.11605837127076975,-3.3560644609045314,0.8924287248547977
1970-01-01 00:00:00.000000164,1.3295984222114923,-0.345753412547699,-3.7345985835937685,0.9007074116170004
1970-01-01 00:00:00.000000164,1.242171437194852,-0.4455956195905832,-3.9544091482006603,0.9130087261485453
1970-01-01 00:00:00.000000164,1.3179285232293136,-0.483087103888868,-3.8322072053147975,0.9154185963207464
1970-01-01 00:00:00.000000164,1.4994493155550344,-0.9355595597174508,-4.102988769607458,0.9281391896208202
1970-01-01 00:00:00.000000164,1.485893816662208,-0.9521909331375796,-4.123659498741841,0.9318187882039211
1970-01-01 00:00:00.000000164,1.542308088961595,-1.0256131844085465,-4.487835245833586,0.9415997318914977
1970-01-01 00:00:00.000000164,1.5552208577312228,-0.9964383428745607,-4.804965435746401,0.9469498653028996
1970-01-01 00:00:00.000000164,1.5053431874238834,-1.022418499719597,-4.8904279458342765,0.9444993941895397
1970-01-01 00:00:00.000000164,1.276367517091439,-1.4250919587579252,-4.5528199109824055,0.9509521580291016
1970-01-01 00:00:00.000000164,1.2642271936008518,-1.4508268009683225,-4.531472064914603,0.9480956477900384
1970-01-01 00:00:00.000000164,1.1471137187290525,-1.6607218849962442,-4.2104160593213855,0.9467893041102575
1970-01-01 00:00:00.000000164,1.1052149117121224,-1.7729338271398047,-4.034031269972406,0.9435950193950948
1970-01-01 00:00:00.000000164,1.0178279704492876,-1.7592827501341959,-4.0092195322892605,0.9421341066193838
1970-01-01 00:00:00.000000164,0.9306760469012131,-1.7409481482987061,-3.978143823652912,0.9434273269307538
1970-01-01 00:00:00.000000164,0.9318283134457486,-1.784502122252003,-4.438848574660525,0.9548680416076012
1970-01-01 00:00:00.000000164,0.9142848657119863,-1.7883306042046723,-4.468489143880452,0.9529375341930342
1970-01-01 00:00:00.000000164,0.8009014214558312,-1.7909998188870757,-4.750933937724608,0.9465189434091971
1970-01-01 00:00:00.000000164,0.28130059679695824,-1.9542335163872773,-3.9422961853248903,0.9301541166321653
1970-01-01 00:00:00.000000164,-0.1610524158937328,-2.177839646066333,-3.1455975885444074,0.9257568725801062
1970-01-01 00:00:00.000000164,-0.1694169196675569,-2.2119845086139733,-3.1033862865843713,0.9133830512382155
1970-01-01 00:00:00.000000164,-0.57403821991364,-2.590286619852595,-2.440376682575201,0.9036901669278761
1970-01-01 00:00:00.000000164,-0.9994505631334746,-3.0104281139773623,-2.0714580295173213,0.914226758660921
1970-01-01 00:00:00.000000164,-1.0148324474392858,-3.0204004773380766,-2.0681181341943757,0.9139534865328629
1970-01-01 00:00:00.000000164,-1.0596506072124132,-2.8478200283797057,-2.3251668479598444,0.9177313129151364
1970-01-01 00:00:00.000000164,-1.034802764373614,-2.5309896632972757,-2.621636135104734,0.9171917772102751
1970-01-01 00:00:00.000000164,-1.0011497870353918,-2.147043647294365,-2.617151566515559,0.9009530945324877
1970-01-01 00:00:00.000000164,-1.1786169181919448,-1.6860600516743813,-1.7883273988391681,0.8743197265608775
1970-01-01 00:00:00.000000164,-1.15215138235672,-1.6799628782643776,-1.7210733324924292,0.8649435816785497
1970-01-01 00:00:00.000000164,-1.316519612684562,-1.7833817576989939,-0.541096674691585,0.8313620719425797
1970-01-01 00:00:00.000000164,-1.6472463847833567,-1.9848226552102899,2.0979850402178193,0.7810034745870771
1970-01-01 00:00:00.000000164,-1.5949885593921995,-2.008426754090431,2.235095939461171,0.7667841102147501
1970-01-01 00:00:00.000000164,-1.8542425164034182,-2.134117513159015,3.608187517306141,0.7433988827012713
1970-01-01 00:00:00.000000164,-1.8274569243251817,-2.1405829515854267,3.658130177422221,0.7397980617549101
1970-01-01 00:00:00.000000164,-1.879921251471011,-2.102986115157887,3.719963337583429,0.7524340385887082
1970-01-01 00:00:00.000000164,-1.4226403609385094,-1.6632377780322054,2.757684316975663,0.765374549203289
1970-01-01 00:00:00.000000164,-1.0449543662615601,-1.1685662856352632,2.123380826835864,0.7611955853942715
1970-01-01 00:00:00.000000164,-1.0248722485528927,-1.1144688600993624,2.0971810816131975,0.7731385198803578
1970-01-01 00:00:00.000000164,-0.5666959424452942,-0.4808567297385477,1.6917445840294445,0.7674298481021595
1970-01-01 00:00:00.000000164,-0.18200307181360642,0.20861634550673197,1.9072018755299667,0.7373957566438876
1970-01-01 00:00:00.000000164,-0.14608837548770792,0.24110055981059458,1.9303085566699238,0.7325072720908495
1970-01-01 00:00:00.000000164,-0.18469328187750977,0.5170682415147908,2.4270986266934513,0.7189192513623356
1970-01-01 00:00:00.000000164,0.0007564670358820857,1.0097282649711696,3.3913406679357,0.6809480079924286
1970-01-01 00:00:00.000000164,0.05433692809971424,1.0486217999856928,3.4421262948493863,0.6823530411299288
1970-01-01 00:00:00.000000164,0.2840510875317006,1.5149404927492003,3.75794945110434,0.667113450040036
1970-01-01 00:00:00.000000164,0.6062568324591361,1.9614780222693495,4.129215402994417,0.649065817395459
1970-01-01 00:00:00.000000164,0.9851112745790445,2.7330715337398317,4.7689718549614195,0.6084182342717022
1970-01-01 00:00:00.000000164,1.0983259123726412,2.929808456695138,5.231379748952936,0.5892307653473484
1970-01-01 00:00:00.000000164,1.12273325091168,2.946286203174727,5.30281077291371,0.5879910256703293
1970-01-01 00:00:00.000000164,1.2417021180450565,3.1710522050315144,6.745644295726238,0.5503092931782965
1970-01-01 00:00:00.000000164,1.4323801226140338,3.220203774049426,7.377665653068039,0.5310895209347469
1970-01-01 00:00:00.000000164,1.5554788574315912,3.2841131042981355,7.9609917471059575,0.5114203714728147
1970-01-01 00:00:00.000000164,1.5591657058308332,3.4518514438700167,8.57011292066267,0.49091110011892863
1970-01-01 00:00:00.000000164,1.543391660767201,3.6801793993554677,9.196360629949341,0.4701320403191861
1970-01-01 00:00:00.000000164,1.557927293658433,3.7041865926417894,9.272818341883678,0.4564974318309091
1970-01-01 00:00:00.000000164,1.2878794437901315,4.4099468264686745,10.996822825405747,0.3950360330290229
1970-01-01 00:00:00.000000164,1.0146138840288188,4.794967890064715,12.571988112123767,0.35271481742277044
1970-01-01 00:00:00.000000164,1.0458890182746163,4.792402718457436,12.685072715114867,0.32912973998241263
1970-01-01 00:00:00.000000164,0.49926067924640805,4.859551271868995,14.684620959560423,0.2560831151030907
1970-01-01 00:00:00.000000164,-0.24672950130678095,4.483390494563056,16.617602065574392,-0.13432757022350084
1970-01-01 00:00:00.000000164,-1.8402576393558534,3.329895231310476,19.378537960925147,-0.1757879688510371
1970-01-01 00:00:00.000000164,-2.8150527205806593,2.584583375272695,19.438725503857228,-0.1319085719922835
1970-01-01 00:00:00.000000164,-2.6752069052498983,2.936975677178611,17.450170419346463,-0.08338730650460158
1970-01-01 00:00:00.000000164,-2.3745369504323044,3.249481671970603,15.001597581918123,-0.014590547901418227
1970-01-01 00:00:00.000000164,-1.661099356961626,3.0924548320232956,11.636389658438564,0.05210427147141383
1970-01-01 00:00:00.000000164,-1.7507776254152678,3.0572612658795446,11.491385669144417,0.0511047431604198
1970-01-01 00:00:00.000000164,-2.101751022948753,2.3704971059488407,11.047921167684775,0.0638579453934226
1970-01-01 00:00:00.000000164,-2.8688562465653575,1.2685529579904808,11.874878221595939,0.0646885380229052
1970-01-01 00:00:00.000000164,-3.717651978928261,-0.044076547045959036,12.899281508565506,0.07745966669447668
1970-01-01 00:00:00.000000164,-4.289505721903169,-2.159417669692242,12.704924568211815,0.145160913576453
1970-01-01 00:00:00.000000164,-4.3620368421973845,-2.2551239915616974,12.638758376236396,0.16619793526208232
1970-01-01 00:00:00.000000164,-4.0452050848866765,-3.12146736857582,10.649014324068652,0.26888246470707583
1970-01-01 00:00:00.000000164,-2.743612832920225,-4.077803648890516,6.58131968471217,0.35955631523341225
1970-01-01 00:00:00.000000164,-2.8334934555121976,-4.101201333154536,6.424646981473591,0.3864042572181885
1970-01-01 00:00:00.000000164,-2.278750703206878,-4.386861816882173,5.651919344474569,0.41036555136693925
1970-01-01 00:00:00.000000164,-1.9032637002434274,-4.946885442237627,5.824357599766302,0.40988430242516943
1970-01-01 00:00:00.000000164,-2.0343319718490545,-6.433785683877643,5.1009952888716805,0.4710064460782314
1970-01-01 00:00:00.000000164,-1.910037338320433,-6.372501804404575,4.295341417823214,0.5193523520506914
1970-01-01 00:00:00.000000164,-0.8865677496552755,-3.9379730256311207,-0.6909869982301916,0.556533461014695
1970-01-01 00:00:00.000000164,-0.9269757858251044,-3.7161442220339267,-0.9653647044366483,0.5629131532572826
1970-01-01 00:00:00.000000164,-0.8007438592276702,-0.32074482924858094,-3.546683881523039,0.5385342092777309
1970-01-01 00:00:00.000000164,-0.8556429822860645,0.5309229619172727,-3.0702109670903472,0.5216360191459748
1970-01-01 00:00:00.000000164,-0.3544945664492713,0.8012054546607562,-1.9534715762705268,0.510415353618887
1970-01-01 00:00:00.000000165,0.8733115454459834,0.7368213214262257,-0.7883245847108141,0.4640119283765207
1970-01-01 00:00:00.000000165,1.061462023186551,0.8283417491207867,-0.5959206856479873,0.57251463013011
1970-01-01 00:00:00.000000165,5.278710643836663,0.32382872960542386,0.3938888969855947,0.5085423022163071
1970-01-01 00:00:00.000000165,6.79681650708608,0.18312781977550951,-0.500985226191129,0.49545779156949
1970-01-01 00:00:00.000000165,6.816187256247572,0.18213802088493167,-0.6089743875944627,0.49957007902101075
1970-01-01 00:00:00.000000165,6.897993891565827,0.17342776936565482,-2.752494213611379,0.500999759555273
1970-01-01 00:00:00.000000165,5.152907579791526,0.2428888270975872,-6.465892304802915,0.5891368963906759
1970-01-01 00:00:00.000000165,3.6938442361132253,0.07031565278347945,-7.890852925553008,0.660677925816764
1970-01-01 00:00:00.000000165,3.5709398009140823,-0.024611700463686437,-8.017382183648408,0.6381579944512885
1970-01-01 00:00:00.000000165,2.320456793066978,-1.641916967804332,-9.23555143545533,0.7317389141761599
1970-01-01 00:00:00.000000165,2.2047362102978973,-1.7493953529112458,-9.284755496303559,0.7457801579563534
1970-01-01 00:00:00.000000165,2.27980463018094,-3.2650611234469507,-9.626150527388464,0.8002581803071449
1970-01-01 00:00:00.000000165,2.617244914740721,-4.7419965064517005,-9.706050269480174,0.8456855763508581
1970-01-01 00:00:00.000000165,3.112912071463783,-5.528901069166351,-9.947263266993636,0.8424322550580732
1970-01-01 00:00:00.000000165,2.4810413244232095,-4.638402529722072,-11.470128108030105,0.8691515338444327
1970-01-01 00:00:00.000000165,2.408517780819815,-4.56411835477724,-11.602346771266793,0.8377444296035426
1970-01-01 00:00:00.000000165,1.1910526442407257,-2.5675703222709814,-12.768011989180836,0.8444071847532906
1970-01-01 00:00:00.000000165,1.1628003520167935,-2.462316660522489,-12.836013250598965,0.8284496370616384
1970-01-01 00:00:00.000000165,0.6318799135687275,-1.1907586892861992,-13.080124954441292,0.8171902307704401
1970-01-01 00:00:00.000000165,0.6580950296311598,-1.1656616487093476,-13.054854217820578,0.8274292875450597
1970-01-01 00:00:00.000000165,1.0832077364724026,-2.0474017358743346,-12.416234836722555,0.827341015247451
1970-01-01 00:00:00.000000165,1.2092254140491432,-2.6119560134419055,-12.181257167232662,0.8322437229013802
1970-01-01 00:00:00.000000165,1.2067931367741123,-2.852027247461899,-12.104325298964152,0.8358592749943597
1970-01-01 00:00:00.000000165,1.1960936000884201,-2.8673654186276654,-12.110111655397748,0.8306073436574484
1970-01-01 00:00:00.000000165,0.9851531305276032,-2.894663253562646,-12.196513594852512,0.831951197988708
1970-01-01 00:00:00.000000165,0.7790355001545672,-2.91200136625339,-12.069214344309513,0.8278524556576631
1970-01-01 00:00:00.000000165,0.5785095237553737,-3.0061272751496935,-11.449027341375043,0.8125478572069607
1970-01-01 00:00:00.000000165,0.3591301354501924,-3.39786984108148,-9.698958651109729,0.7857413029466322
1970-01-01 00:00:00.000000165,0.3921003025211437,-3.425178901411696,-9.611676705949067,0.7828832473001005
1970-01-01 00:00:00.000000165,0.40941678955797767,-3.725510187517685,-8.959862099998485,0.7777930759821343
1970-01-01 00:00:00.000000165,0.5531470246897356,-3.934271078134987,-8.325274910579372,0.7660912799576538
1970-01-01 00:00:00.000000165,0.6260962331629574,-3.9623217533274646,-8.285073316845166,0.7633950439834638
1970-01-01 00:00:00.000000165,0.6239378084147629,-3.9549127224384275,-8.278201104971965,0.7583148391734378
1970-01-01 00:00:00.000000165,0.47809374198509824,-3.603828903961111,-8.009863668848869,0.7468348545578948
1970-01-01 00:00:00.000000165,0.486277005918523,-3.584314070203215,-7.973964339639249,0.7396162405074116
1970-01-01 00:00:00.000000165,0.33211993835353576,-3.246273116402094,-7.1107956262872625,0.7184179065753741
1970-01-01 00:00:00.000000165,0.4821066914902862,-3.08484737065687,-6.787304868120317,0.7071163313336744
1970-01-01 00:00:00.000000165,0.6088318940916811,-3.0065741561765753,-6.733404077804312,0.7309911669001836
1970-01-01 00:00:00.000000165,1.6563064019372828,-3.218429335194292,-6.890379721679748,0.7231070781971575
1970-01-01 00:00:00.000000165,1.8985485840524368,-3.2716601387490556,-6.812490652228602,0.731494092052851
1970-01-01 00:00:00.000000165,2.4349201573027455,-3.2510159811567405,-6.431489458619279,0.7118482294126001
1970-01-01 00:00:00.000000165,2.5298498004748615,-3.112659694611253,-6.19461307262038,0.7007561522684251
1970-01-01 00:00:00.000000165,2.5609359158617013,-2.870602201740088,-6.152869930523991,0.6979978457513715
1970-01-01 00:00:00.000000165,2.734997410694908,-2.6591124217571678,-6.198387720913513,0.6989094059419693
1970-01-01 00:00:00.000000165,3.0391629269733973,-2.463254351229649,-6.24141969966694,0.7039713414651583
1970-01-01 00:00:00.000000165,3.576321823105791,-2.268204781118912,-6.2393938897693,0.7081034862513016
1970-01-01 00:00:00.000000165,4.287859471279105,-2.288902064827195,-6.4828426499503005,0.7234318537833685
1970-01-01 00:00:00.000000165,5.157256438542753,-2.4435772032437257,-6.708783892917182,0.7323667241807943
1970-01-01 00:00:00.000000165,5.84313149066004,-2.827935309824762,-6.544575345884937,0.7294532043361632
1970-01-01 00:00:00.000000165,6.131033003589789,-3.479787281531553,-5.563861565482748,0.7129950656984441
1970-01-01 00:00:00.000000165,6.1374220719570785,-4.055302593207916,-4.358668223829931,0.6616686601506037
1970-01-01 00:00:00.000000165,4.984039153536379,-3.371335740685282,-1.9781334835284217,0.6133421450742303
1970-01-01 00:00:00.000000165,5.001563877022493,-3.366245949240689,-1.9464193753834251,0.5723221052171208
1970-01-01 00:00:00.000000165,3.711057889172481,-2.8567865224593874,-2.4146712854701193,0.5691094544514533
1970-01-01 00:00:00.000000165,2.6158405237667637,-2.292516270846648,-3.0252314459936716,0.5873434435977166
1970-01-01 00:00:00.000000165,2.370679134798078,-0.35743270451813786,-3.832857670476989,0.5421200008784295
1970-01-01 00:00:00.000000165,1.5555956186315305,1.7882198802286255,-6.065539025513324,0.5155196038010704
1970-01-01 00:00:00.000000165,0.03614017477848042,3.9072068690910315,-6.918858619982704,0.4639830924600152
1970-01-01 00:00:00.000000165,-1.7547046058643883,5.226399723285375,-1.973609575963512,0.3512944229850247
1970-01-01 00:00:00.000000165,-1.6837720105412022,3.5398150353425697,7.7156294446963765,0.1744320961736004
1970-01-01 00:00:00.000000165,-1.0607635675547347,-2.372560690136172,11.324437661665227,0.20644164491121564
1970-01-01 00:00:00.000000165,-1.116872948376431,-2.6101952181802024,11.282945871103585,0.20748715957771802
1970-01-01 00:00:00.000000165,-1.5372427481048294,-2.9928959435522473,6.674915115308541,0.32476231317361154
1970-01-01 00:00:00.000000165,-2.0234144200496447,-2.4297595482431436,2.9579979517143897,0.39856739790661994
1970-01-01 00:00:00.000000165,-2.5692516589813397,-0.7478209899501298,1.0538204500424844,0.3685846916771355
1970-01-01 00:00:00.000000165,-4.200071662147974,2.149244603148427,3.405805982991443,0.28310745324423114
1970-01-01 00:00:00.000000165,-4.110486170906172,2.1917771152763335,3.5672929310451242,0.25890477854519167
1970-01-01 00:00:00.000000165,-4.5543322503331884,0.9806752725942969,6.113040918508561,0.22849572306704322
1970-01-01 00:00:00.000000165,-4.79096924688519,-1.0029905869632167,8.945366036953022,0.19027030484147434
1970-01-01 00:00:00.000000165,-5.0656550759056325,-3.2501028719169285,10.973160327907229,-0.21064285135360883
1970-01-01 00:00:00.000000165,-5.000081326481673,-4.831004436759854,12.248745334576011,-0.20884477335508358
1970-01-01 00:00:00.000000165,-4.661883770044702,-4.949371675735636,12.480608950508616,-0.1905207843701544
1970-01-01 00:00:00.000000165,-3.68129171107808,-2.0506127596513,8.479114377607447,-0.1837983561882432
1970-01-01 00:00:00.000000165,-3.6345022735629837,-0.2797315803883837,5.342920499353409,-0.13459357825142104
1970-01-01 00:00:00.000000165,-3.050007399055419,-0.17488762216775777,5.131991393601862,-0.12297596793284138
1970-01-01 00:00:00.000000165,-2.3727317213766237,0.9081069586928638,2.571188304730849,-0.08541637910131492
1970-01-01 00:00:00.000000165,-1.807011893986248,1.58260332399976,0.9289206512557112,-0.04443845067802229
1970-01-01 00:00:00.000000165,-0.771774859080953,1.6331468618996288,0.32063335177230523,-0.05345771660632037
1970-01-01 00:00:00.000000165,-0.7499969674046687,1.6141540955797296,0.329971994886045,-0.047127749403106274
1970-01-01 00:00:00.000000165,-0.5057394428121492,0.8647445448044137,1.004341336202272,-0.05326069122617675
1970-01-01 00:00:00.000000165,-0.5758381926838959,0.06395889716009219,1.8672543655959704,-0.06090063068298436
1970-01-01 00:00:00.000000165,-0.8410156087769777,-0.602934546072976,2.4464463102978526,-0.056136561805465224
1970-01-01 00:00:00.000000165,-0.9780293292182266,-0.9263275302402054,2.3536601233363115,-0.03792242717434958
1970-01-01 00:00:00.000000165,-0.8328146995557005,-0.7111810479713164,1.799104742223811,-0.021041249460702977
1970-01-01 00:00:00.000000165,-0.4102018958730637,0.46145451750109473,1.2091831991930206,-0.04317602577818912
1970-01-01 00:00:00.000000165,-0.3741257691661472,0.5256468916424218,1.204035507129283,-0.03951757540886647
1970-01-01 00:00:00.000000165,-0.12129188978937458,0.9460806147502171,1.5148445512035453,-0.05872945235528124
1970-01-01 00:00:00.000000165,0.03755993406756915,0.9900766800537738,1.9183143488067733,-0.07463066474340092
1970-01-01 00:00:00.000000165,0.020268357207788315,0.6603713024974691,2.404024422375124,-0.08191693992074259
1970-01-01 00:00:00.000000165,-0.09329119827034205,0.14303048712819816,3.0434270550718554,-0.08404471336635759
1970-01-01 00:00:00.000000165,-0.1610708680739927,-0.4362656082685996,3.3807886063325,-0.07500777920335218
1970-01-01 00:00:00.000000165,-0.11849143925262456,-0.7924750944185466,3.367592131867482,-0.061438509162306275
1970-01-01 00:00:00.000000165,0.05991528511989643,-0.9318980926500735,3.3228628024716365,-0.055168119796794174
1970-01-01 00:00:00.000000165,0.2362897376578805,-0.9828907909623013,2.9855861510378157,-0.04221810918001702
1970-01-01 00:00:00.000000165,0.48804785303996273,-0.8055805523514523,2.588535986529999,-0.03414811708305068
1970-01-01 00:00:00.000000165,0.7758534942405297,-0.4243649997304034,2.248304608068668,-0.03636192926582176
1970-01-01 00:00:00.000000166,0.9797650593871801,-0.009270668663099793,2.2586922030303773,-0.054620201387798564
1970-01-01 00:00:00.000000166,0.9047584054108221,0.28037450143134285,2.842702429356142,-0.08206595260012657
1970-01-01 00:00:00.000000166,0.6727776298643113,0.38180534956506756,3.796696531841163,-0.10873737655987843
1970-01-01 00:00:00.000000166,0.5093334780054046,0.48811986846188316,5.127853861991669,-0.14409328288018058
1970-01-01 00:00:00.000000166,0.4102188162205438,0.4033053115989937,6.511231954627121,-0.17590704851178243
1970-01-01 00:00:00.000000166,0.33228613383465844,0.08915373023114706,7.363439098460787,-0.1673668414177201
1970-01-01 00:00:00.000000166,1.0529895897408788,0.16565425467406789,7.213432553846234,-0.1811888197345274
1970-01-01 00:00:00.000000166,1.083876552197886,0.18734744089772062,7.203076150316606,-0.17089499648545547
1970-01-01 00:00:00.000000166,1.4827268342759836,0.40748232458927847,6.784379179726999,-0.16822041034789323
1970-01-01 00:00:00.000000166,1.742920013182692,0.7519413573612075,6.662427736660714,-0.1837900485593061
1970-01-01 00:00:00.000000166,1.6294699561681938,0.7318807927805434,7.688116178729443,-0.20716443213621163
1970-01-01 00:00:00.000000166,1.6212765014520671,0.674562123387108,7.832431164708019,-0.24392754344467196
1970-01-01 00:00:00.000000166,0.5240724961506231,0.06507724135488402,11.621305971070544,-0.29509853818651843
1970-01-01 00:00:00.000000166,0.5561737947660694,-0.02227675958003894,11.838029901421882,-0.3285331403659992
1970-01-01 00:00:00.000000166,-0.3424251972879464,-0.9578271759704349,14.714223941365587,-0.3665736776501298
1970-01-01 00:00:00.000000166,-0.7198961187316962,-1.1628596663612472,16.622213840709538,-0.39275883092693853
1970-01-01 00:00:00.000000166,-0.44061870040648016,-0.3841992020010113,17.1407343715742,-0.4327301435949434
1970-01-01 00:00:00.000000166,-0.4792523503205763,-0.1121717712903218,17.025961208169825,-0.4426080297604898
1970-01-01 00:00:00.000000166,-0.7007148153441273,-0.294766595433945,16.40989027641492,-0.4180146325345188
1970-01-01 00:00:00.000000166,-0.7029949471818804,-0.15058610995031405,15.48701645050884,-0.39784685319566004
1970-01-01 00:00:00.000000166,-0.7059778100192473,-0.0737053184660188,14.436906942082224,-0.37649734898976245
1970-01-01 00:00:00.000000166,-0.8156069304806932,0.06806072025870269,13.466989194602002,-0.36006336063714106
1970-01-01 00:00:00.000000166,-1.0401556433332533,0.39435523022386026,12.654811776944673,-0.3622029234402021
1970-01-01 00:00:00.000000166,-1.730047684191932,-0.34685996842838673,12.286538318690209,-0.34580603646224933
1970-01-01 00:00:00.000000166,-2.6950342890203416,-2.3270190426421404,12.764278162839119,-0.29200472589238785
1970-01-01 00:00:00.000000166,-2.9811535151999005,-3.9073278445839272,12.424298416291347,-0.21299522430685952
1970-01-01 00:00:00.000000166,-2.218873084423257,-3.615032210248091,8.747579627903065,-0.15306577951703534
1970-01-01 00:00:00.000000166,-2.3933821384704728,-1.938403484626551,6.520489884579305,-0.15964247516512936
1970-01-01 00:00:00.000000166,-3.2433633408153337,-0.25370890724031286,5.523800223166646,-0.1891280825130221
1970-01-01 00:00:00.000000166,-4.330182672606905,1.0622813813513647,6.096134533133359,-0.22279736047323578
1970-01-01 00:00:00.000000166,-4.756920398294329,2.261257038331656,7.147783006038612,-0.25044981565973806
1970-01-01 00:00:00.000000166,-4.184414159680025,2.785884678877431,7.68823265518313,-0.24512163706567602
1970-01-01 00:00:00.000000166,-2.632432932551973,2.0743262431201064,7.301195635667002,-0.2511374333523623
1970-01-01 00:00:00.000000166,-2.554919013124732,2.0693219777438907,7.292447600204338,-0.1871909710697617
1970-01-01 00:00:00.000000166,-0.4151343403932232,0.993441408693657,5.790963822578951,-0.10694453280248566
1970-01-01 00:00:00.000000166,1.7973959740231809,0.6689031642133713,3.728882716655878,-0.03500430736879642
1970-01-01 00:00:00.000000166,3.9520571256782784,1.4164891691311512,0.7384146711935369,0.01137337790876429
1970-01-01 00:00:00.000000166,5.278657638370779,4.321766453175773,-5.796224543582301,0.08754756175351804
1970-01-01 00:00:00.000000166,5.967893642319953,6.7410982774292805,-8.016584137101164,0.0723040002507695
1970-01-01 00:00:00.000000166,6.031806979034825,6.930781892332599,-8.15865230323139,0.1075552999350405
1970-01-01 00:00:00.000000166,7.325715606775205,8.6795665386847,-10.727474327012514,0.12124282112917029
1970-01-01 00:00:00.000000166,8.057183229420627,8.184555217234204,-13.216113961026668,0.18304143563240424
1970-01-01 00:00:00.000000166,8.279106479325987,3.1979577364699323,-9.71306921087624,0.21540935077689727
1970-01-01 00:00:00.000000166,8.264309261912542,3.007348452121202,-9.189709947964532,0.2300558200110288
1970-01-01 00:00:00.000000166,9.289375173616985,2.234684483476657,0.8251346285080071,-0.019668197804847628
1970-01-01 00:00:00.000000166,9.26297451493342,1.6815552007522754,5.070767516684383,-0.15867456173822653
1970-01-01 00:00:00.000000166,7.731349982411506,-0.1646946085797083,5.503587776555937,-0.09654551454169737
1970-01-01 00:00:00.000000166,7.629159629022193,-0.27585450349797724,5.128557579232416,-0.0955992019811257
1970-01-01 00:00:00.000000166,6.761240297263085,-1.1134491304894434,-5.112605281904486,0.18529491642752688
1970-01-01 00:00:00.000000166,6.426814577796339,-0.7781408320325756,-11.659769002969156,0.3576931332088064
1970-01-01 00:00:00.000000166,6.5183723784642975,-0.158866486367293,-16.463670950239997,0.459906528233028
1970-01-01 00:00:00.000000166,6.425705990302607,-0.07663822646856844,-16.674730580094973,0.49439920249873054
1970-01-01 00:00:00.000000166,7.2958085047007835,0.6950203796787574,-18.398668704361565,0.4942579471952811
1970-01-01 00:00:00.000000166,7.259098996153116,-1.3268443981737224,-13.75835731363617,0.43153249580492403
1970-01-01 00:00:00.000000166,7.285198470662882,-1.5512055600564003,-13.358365193502197,0.3757330098503837
1970-01-01 00:00:00.000000166,5.720827428324643,-4.221515566328925,-5.8333127539030425,0.29744892717551785
1970-01-01 00:00:00.000000166,5.810985551466708,-4.3034553805308375,-5.514819811586112,0.2816473741824241
1970-01-01 00:00:00.000000166,5.739836009461071,-3.5830418770846206,-4.178084328002819,0.19576800666908567
1970-01-01 00:00:00.000000166,4.383180918577359,-3.1977480129245097,-5.55252975666049,0.24501609371237992
1970-01-01 00:00:00.000000166,4.287919460099585,-3.200258717283638,-5.684323347236916,0.2255622781586997
1970-01-01 00:00:00.000000166,3.3302545589901067,-3.0401872520349604,-7.255150517037455,0.26421551827128004
1970-01-01 00:00:00.000000166,2.7370106211948135,-2.2685374512884975,-8.838480976402586,0.2745163515377231
1970-01-01 00:00:00.000000166,1.8717654588301467,-1.8103142277824624,-9.483826140860236,0.29773567821925817
1970-01-01 00:00:00.000000166,1.8195624951592948,-1.8452916336542449,-9.460169761640062,0.2790020255659055
1970-01-01 00:00:00.000000166,1.109393021065264,-2.7257750394771953,-7.65397258201651,0.27210385346515464
1970-01-01 00:00:00.000000166,1.0967539176562562,-2.8161948507763546,-7.512650371352058,0.25224159944688124
1970-01-01 00:00:00.000000166,0.4980874391186466,-3.8791145739562456,-5.005216086960963,0.22079068912882344
1970-01-01 00:00:00.000000166,0.13583971903022635,-3.982266510813227,-4.690551841364831,0.22173914226047797
1970-01-01 00:00:00.000000166,0.07058075537828251,-3.5501299150839425,-5.547732326972629,0.2331174548209633
1970-01-01 00:00:00.000000166,0.05140076316920475,-3.204108061314222,-6.431087851757095,0.23956527304455993
1970-01-01 00:00:00.000000166,-0.2224967056449359,-2.433619214803148,-7.814471144872032,0.26231344297909315
1970-01-01 00:00:00.000000166,-0.18423560082298485,-2.5764831742638834,-7.882505495680841,0.270025251497905
1970-01-01 00:00:00.000000166,-0.1074045081357648,-2.750253994797834,-7.882004742986903,0.28454084298817117
1970-01-01 00:00:00.000000166,0.2961671454691573,-3.055646575024331,-7.556894454712237,0.28730561943605853
1970-01-01 00:00:00.000000166,0.7150360228861856,-3.1868187512917356,-7.088760754676189,0.28809566135257336
1970-01-01 00:00:00.000000166,1.3842979462641323,-3.4679253525698566,-6.319111564262315,0.26181159436600593
1970-01-01 00:00:00.000000166,1.4236682655952653,-3.463448444251399,-6.293534156563256,0.2645347103726029
1970-01-01 00:00:00.000000166,1.612107280112054,-3.166871531874212,-6.477999552601873,0.2589366960379777
1970-01-01 00:00:00.000000166,1.6553605807998184,-2.7546387137676445,-7.075009561102614,0.2642002852374514
1970-01-01 00:00:00.000000166,1.7114338561512095,-2.3061631481446128,-7.895048005461106,0.27668159708085865
1970-01-01 00:00:00.000000166,1.8580052144647097,-1.928035274283232,-8.507555574493443,0.28993384779954406
1970-01-01 00:00:00.000000166,2.1755033859381157,-1.7238029821596998,-8.781966230519036,0.3285185688496877
1970-01-01 00:00:00.000000166,3.720467132599942,-1.9031132459768885,-8.394000651468712,0.2915995091937578
1970-01-01 00:00:00.000000166,3.8036880558770503,-1.8857702555525548,-8.331566955472601,0.3191525830454579
1970-01-01 00:00:00.000000166,4.90798961195771,-2.0088514482055544,-7.804474940554924,0.3293524387702702
1970-01-01 00:00:00.000000166,6.518826209812339,-2.1565963557833783,-6.692633949296486,0.26998575396572005
1970-01-01 00:00:00.000000166,6.587890056995983,-2.1721155958422935,-6.5995071283467945,0.25739748040752
1970-01-01 00:00:00.000000166,6.393914527096551,-2.197683402116249,-4.951217186224607,0.2225875468796987
1970-01-01 00:00:00.000000166,6.413344485593675,-2.2203234743303786,-4.88834411275153,0.19747907231042466
1970-01-01 00:00:00.000000166,5.6699780059741665,-2.1800452475173344,-4.2130687007801475,0.1803525627882954
1970-01-01 00:00:00.000000166,5.195343825694506,-1.964323822721354,-3.687936422396201,0.09861450888984542
1970-01-01 00:00:00.000000166,2.5058163919328615,-3.1261029074075632,-4.630619645365642,0.21283423578915708
1970-01-01 00:00:00.000000166,2.6177666409883886,-2.8824407297409653,-4.530780054934217,0.2059238049593284
1970-01-01 00:00:00.000000166,2.6223097072008597,-2.850094763394948,-4.600739805654623,0.19681053031626075
1970-01-01 00:00:00.000000166,2.2850943990569217,-1.9745467506479395,-6.34362356646597,0.20353164485435407
1970-01-01 00:00:00.000000166,1.6416343393796322,1.616269580492493,-6.098159404334633,0.12748096534332043
1970-01-01 00:00:00.000000167,1.6965127587441495,1.7006922106235698,-5.719813563890849,0.07532120609360467
1970-01-01 00:00:00.000000167,0.7157694119265336,1.4916880454207546,5.352461118358622,-0.1545404617389952
1970-01-01 00:00:00.000000167,0.9984960707560361,1.3912200007960593,5.802598744633158,-0.18157868798689522
1970-01-01 00:00:00.000000167,0.8955434830606468,-0.6302257162618412,7.366227294401871,-0.1995618062419255
1970-01-01 00:00:00.000000167,-0.39729846103227134,-2.6907803360920557,1.0520722079913636,0.009943923228842872
1970-01-01 00:00:00.000000167,-1.164491656699259,-2.660073310915825,-1.3495076313271548,0.07881778072857339
1970-01-01 00:00:00.000000167,-1.556370757516918,-1.973553747151289,-0.08113294234064361,0.02578146792653649
1970-01-01 00:00:00.000000167,-2.0848655466823565,-2.0450070453855216,2.989789004913253,-0.05184732992865027
1970-01-01 00:00:00.000000167,-2.565622756733975,-3.194562326132356,7.3525102271238625,-0.12858522387466967
1970-01-01 00:00:00.000000167,-2.8035216422381275,-4.719228911378585,11.016933976240521,-0.1810068658779887
1970-01-01 00:00:00.000000167,-2.954522509706087,-5.895239372487613,12.434086039972042,-0.17922124622920488
1970-01-01 00:00:00.000000167,-2.7897569961445896,-6.446025889264743,11.70959735952695,-0.15175852578835355
1970-01-01 00:00:00.000000167,-2.7945693539138805,-6.350557045391683,11.521945259524266,-0.12135635778759957
1970-01-01 00:00:00.000000167,-1.919748923524131,-3.9758765895275365,6.426062394411325,-0.08172538769377818
1970-01-01 00:00:00.000000167,-2.092781537817003,-2.504344499146978,5.225505762286364,-0.09146273723964099
1970-01-01 00:00:00.000000167,-2.3695488245163814,-1.364978204809168,5.189039869952186,-0.11132183514484312
1970-01-01 00:00:00.000000167,-2.3530090267004002,-1.3060926615388424,5.1725450955843915,-0.12025244250940295
1970-01-01 00:00:00.000000167,-2.5887787320719586,-0.6312974771760291,4.9879038903899495,-0.1172679330454458
1970-01-01 00:00:00.000000167,-2.2820652714996603,-0.05012603435277403,4.439673132805416,-0.10716856185644816
1970-01-01 00:00:00.000000167,-1.6708256242239095,0.7010109943807432,3.556387140085922,-0.10316679234901262
1970-01-01 00:00:00.000000167,-1.1452084277369832,1.542131390057483,2.897488156939106,-0.11362632414225698
1970-01-01 00:00:00.000000167,-0.8577629071797876,2.7272245784895373,3.966481138588189,-0.17405591817368127
1970-01-01 00:00:00.000000167,-0.8065902686125089,2.7259556954949047,4.080526051276952,-0.20286000021221262
1970-01-01 00:00:00.000000167,-1.5384689506866238,2.1895136086879936,6.773656654704712,-0.23722967874088807
1970-01-01 00:00:00.000000167,-1.5050473144201186,2.095360907057269,7.262652793726671,-0.2478921578153684
1970-01-01 00:00:00.000000167,-1.485787301595079,2.0990513959558457,7.281789290012974,-0.2420380681764933
1970-01-01 00:00:00.000000167,-1.2474015584052902,2.130968977825682,7.147600230698819,-0.2351934888747059
1970-01-01 00:00:00.000000167,-0.9353018613509078,2.0799277830131584,6.846233716530784,-0.2153693537648578
1970-01-01 00:00:00.000000167,-0.3375244787716905,1.9213160674293173,6.594945019532105,-0.18554415887668563
1970-01-01 00:00:00.000000167,0.8358621892303357,1.6310064506212396,6.802682223878893,-0.20892252286282284
1970-01-01 00:00:00.000000167,0.8781545289727395,1.6198691519838595,6.831486077837739,-0.2013529057797614
1970-01-01 00:00:00.000000167,1.2205501784987938,1.376088728271294,7.168069953068351,-0.20697785786245285
1970-01-01 00:00:00.000000167,1.3812071496260248,1.2076666836175514,7.379542827284159,-0.2139090842300815
1970-01-01 00:00:00.000000167,1.329532346121548,1.3255675107366485,7.674242164937963,-0.2239116350157202
1970-01-01 00:00:00.000000167,1.3022526412090285,1.4305397945049776,8.172879314273926,-0.2338213729613252
1970-01-01 00:00:00.000000167,1.4611647776202032,1.6409347234044034,8.585427102964655,-0.24733765243345537
1970-01-01 00:00:00.000000167,1.6805593588150274,2.0445564151599753,8.803511143517897,-0.2744365649958622
1970-01-01 00:00:00.000000167,1.516411796984704,2.401190220706691,9.448475506810325,-0.3233478676630064
1970-01-01 00:00:00.000000167,0.704177898185778,2.8050751655489035,11.32282316198908,-0.4384602402770221
1970-01-01 00:00:00.000000167,-1.9062999294496028,1.6113111793183985,17.043221797099683,-0.48960668961171216
1970-01-01 00:00:00.000000167,-1.8946033547633188,1.4444583189202485,17.338297002574713,-0.5367887363668477
1970-01-01 00:00:00.000000167,-3.309603929060151,-0.6574710802305767,20.794262760658597,-0.5502237040519968
1970-01-01 00:00:00.000000167,-3.8200992315854085,-2.627441646154818,23.175533374198363,-0.500515434046265
1970-01-01 00:00:00.000000167,-2.273682029426571,-2.5022141543636196,18.726377554283044,-0.43245380361124774
1970-01-01 00:00:00.000000167,-2.319557883173084,-2.398106959138847,18.47089415396796,-0.3915037009333457
1970-01-01 00:00:00.000000167,-1.206793650467173,-0.7183700792270592,15.01606826601014,-0.359842458430965
1970-01-01 00:00:00.000000167,-0.7220063664782628,0.9717103281336543,12.43254453643142,-0.35464716857718037
1970-01-01 00:00:00.000000167,-0.9061592052077272,2.3078953698848887,11.015980648687261,-0.3622846621038795
1970-01-01 00:00:00.000000167,-1.3865045276002719,2.9053789071498333,10.56284722651605,-0.36312445983609093
1970-01-01 00:00:00.000000167,-1.6821667999533896,2.969364089799507,10.762923433885005,-0.3600467868316545
1970-01-01 00:00:00.000000167,-1.5991873377982992,3.013359968762734,10.781993939705128,-0.3622303332926319
1970-01-01 00:00:00.000000167,-1.5679498915023817,3.206651087931189,10.666208959290365,-0.3548761909325926
1970-01-01 00:00:00.000000167,-1.2329096229267433,3.186085221150339,10.825513776905765,-0.3495610061164666
1970-01-01 00:00:00.000000167,-0.700152968525438,3.0706813289032677,10.625694462940638,-0.33023952843664234
1970-01-01 00:00:00.000000167,0.062471342862282286,3.012451340576479,9.858377403829877,-0.2767655803344352
1970-01-01 00:00:00.000000167,1.7627962275635674,1.6696198108121254,7.954610384616451,-0.23831619644268306
1970-01-01 00:00:00.000000167,1.7297440129628014,1.5052838582347303,7.8541032876980985,-0.21977141673427542
1970-01-01 00:00:00.000000167,1.951895034701065,-1.9531881574457461,6.67994586426092,-0.12174457435408426
1970-01-01 00:00:00.000000167,1.628751740447815,-2.9202144444717346,5.9005847121449175,-0.07118242602784804
1970-01-01 00:00:00.000000167,1.5588395775774726,-2.9192552461346484,5.859187960808279,-0.07683433124137973
1970-01-01 00:00:00.000000167,1.2437109986869135,-1.7469953278120183,5.700172103030343,-0.10066264413765684
1970-01-01 00:00:00.000000167,1.0524894911870675,-0.7477283035441051,6.547349122256704,-0.1391667592296641
1970-01-01 00:00:00.000000167,1.1088131983922134,-0.6708393580505541,6.5990837077289255,-0.13601034523499053
1970-01-01 00:00:00.000000167,1.4493326909178736,0.253436109344731,6.996281459589843,-0.164742088949501
1970-01-01 00:00:00.000000167,1.789940267637653,0.6811229690662801,5.968024359904718,-0.14451739769367147
1970-01-01 00:00:00.000000167,2.24902263508983,1.0239772484149166,3.7774694508075912,-0.1001344558095782
1970-01-01 00:00:00.000000167,2.551524177749903,1.7226684437365132,1.280056517500308,-0.052707203564878846
1970-01-01 00:00:00.000000167,2.8618360164705816,2.5385973882219113,-0.6654168225483117,-0.022433384691190637
1970-01-01 00:00:00.000000167,3.13817508215426,3.3761930597412593,-2.4395787048185604,0.003737838388895027
1970-01-01 00:00:00.000000167,3.3322749489287062,3.8502962308126825,-4.971527201532214,0.10503602721195322
1970-01-01 00:00:00.000000167,5.058126009746928,2.0023570451709505,-10.121103863581439,0.2527867693036299
1970-01-01 00:00:00.000000167,5.585708454485225,-0.16844716160318562,-11.930068265572721,0.3384155935799723
1970-01-01 00:00:00.000000167,5.472602582365105,-0.3073907920483711,-11.997699690473478,0.37747387376410246
1970-01-01 00:00:00.000000167,4.9875616408828,-1.6792531231899765,-11.805972276698313,1.5552300985636967
1970-01-01 00:00:00.000000167,2.8873395390670655,-2.4472515586600907,-9.678359804960065,1.5333706475086586
1970-01-01 00:00:00.000000167,0.1610858649793256,-2.3511104623192383,-7.464313958910366,1.4756457671151724
1970-01-01 00:00:00.000000167,-2.0889123866368267,-1.7234447390045409,-6.798830900665011,1.4527911341877637
1970-01-01 00:00:00.000000167,-3.6423837423471204,-1.2571358296524846,-8.679358697894035,1.508916401737321
1970-01-01 00:00:00.000000167,-4.274011862908768,-0.9492297851057363,-12.273861065967045,1.6423844738588644
1970-01-01 00:00:00.000000167,-3.1057481937870444,-1.542461960160015,-17.13528367517389,1.7495106851263336
1970-01-01 00:00:00.000000167,-3.174729151696041,-1.5637993383637283,-17.245354362877155,1.8122877100351387
1970-01-01 00:00:00.000000167,-1.3172626059163428,-3.1446199985841643,-16.95378394543272,1.8021975475309884
1970-01-01 00:00:00.000000167,-1.2885006401008559,-3.2112419525072093,-16.877113492904876,1.8111846288347686
1970-01-01 00:00:00.000000167,-0.8863154998505962,-3.7241091270566287,-15.393476770945293,1.7690309076932575
1970-01-01 00:00:00.000000167,-1.1396892806492254,-3.9229271093553417,-13.079981953951725,1.703867132181546
1970-01-01 00:00:00.000000167,-1.7371762367810089,-3.8604901134338236,-10.93160327364734,1.6542542579442787
1970-01-01 00:00:00.000000167,-1.9990081018794887,-3.733656076017148,-9.496656557185858,1.62208759428656
1970-01-01 00:00:00.000000167,-1.988794061965725,-4.044999491809667,-9.574899323151323,1.6297751196443224
1970-01-01 00:00:00.000000167,-1.998646727437503,-4.064873083283269,-9.609168048339312,1.6327376403026022
1970-01-01 00:00:00.000000167,-1.9921657273462885,-4.3355671832343505,-10.501631408405784,1.6595876267622462
1970-01-01 00:00:00.000000167,-2.0241841344394405,-4.342467771082607,-10.53190688565519,1.6635412598716384
1970-01-01 00:00:00.000000167,-1.9731593700625834,-4.34245839950424,-10.5412502677927,1.659070510895614
1970-01-01 00:00:00.000000167,-2.0913405984388636,-4.464891204423475,-10.142832533639263,1.6548202300504182
1970-01-01 00:00:00.000000167,-2.093555473186525,-4.917670559222052,-9.27329457975982,1.647449145805283
1970-01-01 00:00:00.000000167,-1.9876545788629087,-5.338085906426635,-8.26199313173055,1.6348745794695212
1970-01-01 00:00:00.000000167,-1.8353744593892778,-5.659526010968443,-7.249397073636377,1.6297272878324292
1970-01-01 00:00:00.000000167,-1.2733482910562794,-5.822042289815859,-6.324653756546199,1.599276176543586
1970-01-01 00:00:00.000000167,-1.2309426716832013,-5.8209557472677265,-6.30159428631901,1.5998294302683544
1970-01-01 00:00:00.000000167,-1.1116275542385274,-5.681736243858668,-6.656365331512864,1.592584967888139
1970-01-01 00:00:00.000000167,-1.444848316170393,-3.471634033491069,-8.805980861103114,1.598693390768581
1970-01-01 00:00:00.000000168,-1.451434563588093,-3.358328168790261,-8.911063426661078,1.600630959105754
1970-01-01 00:00:00.000000168,-1.3929293081033132,-2.5542947299559957,-9.643799864855987,1.6017141836088475
1970-01-01 00:00:00.000000168,-1.2642445637153092,-2.9769336058871643,-9.090836990316049,1.6107878170996113
1970-01-01 00:00:00.000000168,-0.7514510678840574,-3.9318072624911617,-7.667693507171124,1.6151021292188998
1970-01-01 00:00:00.000000168,0.18999399442434717,-4.655840757762833,-6.9108659796930825,1.607431280053944
1970-01-01 00:00:00.000000168,0.7315266887294427,-4.552815023439402,-7.077609770876231,1.5930604905354437
1970-01-01 00:00:00.000000168,0.7015497833983892,-3.9675723903364504,-7.132005349200604,1.5422343337996616
1970-01-01 00:00:00.000000168,-0.5111730364291653,-1.7385655753169118,-4.903460717212101,1.4647803470153953
1970-01-01 00:00:00.000000168,-0.43133715482097373,-1.6196228729621194,-4.907358745268094,1.445350190506036
1970-01-01 00:00:00.000000168,-0.8984196411872563,-0.1426040270849894,-6.746577437451119,1.492762648854849
1970-01-01 00:00:00.000000168,-0.03753906832060458,-0.9705162931364031,-8.490062500715945,1.5788507784030799
1970-01-01 00:00:00.000000168,1.4383248053908477,-2.9435439540796473,-7.367318148361052,1.5884401861785218
1970-01-01 00:00:00.000000168,2.18872910726188,-4.703053386821602,-6.250410424839987,1.570591213241428
1970-01-01 00:00:00.000000168,1.639509657982466,-5.8568556159763885,-5.2117214481913745,1.5840043300993314
1970-01-01 00:00:00.000000168,1.6008799945994583,-5.89730386355687,-5.1813242953431295,1.56670996505651
1970-01-01 00:00:00.000000168,0.9605795416730373,-5.359450429873119,-4.923136255887138,1.5625028812444166
1970-01-01 00:00:00.000000168,0.9673758443636491,-5.202686115475416,-4.888182986067783,1.5604793407165976
1970-01-01 00:00:00.000000168,1.193043938482104,-1.5616380452782697,-4.256367725257913,1.4563158454207785
1970-01-01 00:00:00.000000168,1.3183808340166883,-1.3680241679166452,-4.190228656774691,1.4380053093976406
1970-01-01 00:00:00.000000168,1.237404738102885,0.5257465180800484,-2.7290450011075653,1.3550283994987076
1970-01-01 00:00:00.000000168,1.1737304217263669,2.1169588739010234,-3.6902076553064864,1.2859800795225516
1970-01-01 00:00:00.000000168,-0.5730595929322256,3.180932562358011,-4.857772207057156,1.2496631173525974
1970-01-01 00:00:00.000000168,-3.1147313055461177,3.6371281216277636,-1.350734123374233,1.1582717854920703
1970-01-01 00:00:00.000000168,-4.872566950391214,3.6928550231702477,5.309279177531521,1.029443277143987
1970-01-01 00:00:00.000000168,-4.999612522800016,3.7744380742901193,11.155752487046467,0.9256171523487391
1970-01-01 00:00:00.000000168,-3.730627988060677,3.6434048317017758,7.822469821761805,0.9730915699426412
1970-01-01 00:00:00.000000168,-3.7849053109821447,3.653557683461339,7.606998002325817,0.9883604225381006
1970-01-01 00:00:00.000000168,-3.574346060951277,3.7269552175966454,4.790778836877485,1.0213823190602893
1970-01-01 00:00:00.000000168,-4.465289760025735,4.025725028791467,5.045522430509673,0.9748939138651781
1970-01-01 00:00:00.000000168,-6.177238964866209,6.155529833878979,8.626236060989696,0.8231025140374704
1970-01-01 00:00:00.000000168,-7.922096638329268,7.810621352365719,13.249892082637011,0.720354716203296
1970-01-01 00:00:00.000000168,-7.392123208481366,5.106224310292953,21.24582780050718,0.5858923383811041
1970-01-01 00:00:00.000000168,-7.172140811397574,4.998948825477347,21.578972330990037,0.6246921046515156
1970-01-01 00:00:00.000000168,-5.4177358395778255,3.7023723695729616,21.47340352820094,0.7022127638189476
1970-01-01 00:00:00.000000168,-2.6398253604868547,3.0808458415843867,18.568663619027102,0.7852330916838267
1970-01-01 00:00:00.000000168,-0.5587629546537347,3.9692977928009237,15.11934662512604,0.8223530358716256
1970-01-01 00:00:00.000000168,0.18803477745004454,5.431488558503509,13.244989253838972,0.8440327559450596
1970-01-01 00:00:00.000000168,1.125335731215895,6.246211883204875,12.560681824937417,0.8662898556881024
1970-01-01 00:00:00.000000168,2.725412947861643,5.700870212224935,12.878057943668054,0.8648711564623967
1970-01-01 00:00:00.000000168,3.7976728653054663,4.194421493636515,14.664020300868042,0.8368089001965446
1970-01-01 00:00:00.000000168,3.967905111636501,2.7991990707103382,15.80117913451837,0.8140979882256142
1970-01-01 00:00:00.000000168,3.0794944071474895,1.782787786115333,14.866650701700742,0.8771110370999262
1970-01-01 00:00:00.000000168,2.9719708268413756,1.7438794614962694,14.756198118494284,0.8601482051969396
1970-01-01 00:00:00.000000168,2.081062836909853,2.2523978591299416,13.25113868249109,0.8817705726956147
1970-01-01 00:00:00.000000168,1.2553374423616945,2.7126851920745736,11.66636876582751,0.9239195992789613
1970-01-01 00:00:00.000000168,0.9950115207692398,2.586677841420679,9.83739350938889,0.9950740070053828
1970-01-01 00:00:00.000000168,1.4484105673940246,1.6942875494213356,7.509927010810156,1.0941894976359778
1970-01-01 00:00:00.000000168,2.399543161940426,0.6974135300950606,5.468963319624968,1.1708098509377631
1970-01-01 00:00:00.000000168,3.1023130941051633,-0.46977447892335855,3.54643037699529,1.2464641202469273
1970-01-01 00:00:00.000000168,3.5720010363558354,-1.3901667289438926,1.0258145913297299,1.3093190124431164
1970-01-01 00:00:00.000000168,3.168054818638972,-1.4110594889230796,0.05423130254608907,1.343256813987886
1970-01-01 00:00:00.000000168,3.119223565548787,-1.4123722520185973,-0.01550220262467368,1.3391220698224788
1970-01-01 00:00:00.000000168,2.816535642893605,-1.2629595278377015,-0.7627589856709239,1.3575107435923974
1970-01-01 00:00:00.000000168,2.693106455455592,-0.9582524362415612,-1.8497078471324984,1.3773904551620406
1970-01-01 00:00:00.000000168,2.5986900294092705,-0.8872688439201071,-2.7067654801422,1.389058837179052
1970-01-01 00:00:00.000000168,2.2189562267359006,-1.0394061755183974,-3.5243599426239527,1.4202382073873063
1970-01-01 00:00:00.000000168,2.1744011740358844,-1.050062788471899,-3.574317864099848,1.4184477535148838
1970-01-01 00:00:00.000000168,1.978360835483188,-1.0970040422849723,-4.016937317134012,1.4275760930844583
1970-01-01 00:00:00.000000168,1.7248483013983984,-1.3435099148950749,-4.157453260191215,1.4360830827247577
1970-01-01 00:00:00.000000168,1.4678204095008751,-1.659854899228833,-4.216391947375602,1.4490157857691854
1970-01-01 00:00:00.000000168,1.3720541921307032,-2.0348248453535547,-4.247381800020184,1.459530536605094
1970-01-01 00:00:00.000000168,1.2971638017978628,-2.3553690037632578,-4.287869731615456,1.467795508754267
1970-01-01 00:00:00.000000168,1.1983864182483583,-2.586556196499559,-4.551518893842286,1.4789701441469414
1970-01-01 00:00:00.000000168,1.0693408008673881,-2.786895785499038,-4.908387885900447,1.493590784071026
1970-01-01 00:00:00.000000168,0.9771330384594729,-2.83233730027523,-5.397661313770504,1.5097136221020515
1970-01-01 00:00:00.000000168,0.9714636279186021,-3.006543412336959,-6.148799676307897,1.5327848069116268
1970-01-01 00:00:00.000000168,0.9719011141263523,-3.012922696258965,-6.538517809978993,1.5413281857075958
1970-01-01 00:00:00.000000168,0.9635704791975752,-3.0091219745933353,-6.557933781063188,1.5007635038872205
1970-01-01 00:00:00.000000168,1.0314263086305384,-2.9976694698295594,-6.78999313079553,0.29942745181087393
1970-01-01 00:00:00.000000168,0.938886646225149,-3.0088540676038127,-6.852781107215149,0.25287733820729186
1970-01-01 00:00:00.000000168,0.6955034478428456,-3.0150930644808276,-6.758799473020833,0.25455797077862213
1970-01-01 00:00:00.000000168,0.6875546288440897,-3.0172970501699083,-6.753443041138757,0.25154949602406323
1970-01-01 00:00:00.000000168,0.580503442360826,-2.988833936135225,-6.6210692837542044,0.25037177584251397
1970-01-01 00:00:00.000000168,0.5899259029339559,-2.941128610164147,-6.525337004907626,0.24857906704092977
1970-01-01 00:00:00.000000168,0.6537269741358357,-2.8838408484249176,-6.275232158879817,0.2490607241344643
1970-01-01 00:00:00.000000168,0.999994694143465,-2.671014200319423,-6.404371187858324,0.22762058157865464
1970-01-01 00:00:00.000000168,0.6554017447325453,-2.183330866195296,-5.842578219290713,0.1969066724934503
1970-01-01 00:00:00.000000168,0.22783416740889975,-1.187783164087263,-5.754104710124664,0.17999559861078473
1970-01-01 00:00:00.000000168,0.23684435768810638,-1.131837050072952,-5.763271439987359,0.16795200408562688
1970-01-01 00:00:00.000000168,-0.07851508872842108,-0.332119650078332,-5.814526631729939,0.14440604950529307
1970-01-01 00:00:00.000000168,-0.3436344867555041,0.18914924422775647,-5.704404870451151,0.005554078827126901
