time,ax,ay,az,speed
1970-01-01 00:00:00.000000000,-0.6547095294952561,-1.2219039783469112,-1.4130786888788889,0.9604477760078924
1970-01-01 00:00:00.000000000,-0.9252833248598175,-1.0816264209296718,-0.8315366580605402,0.9578621925815552
1970-01-01 00:00:00.000000000,-0.9965557671499302,-1.0484252358389734,-0.6048269278404448,0.9551901453174728
1970-01-01 00:00:00.000000000,-1.0016620324242753,-1.0495686727647076,-0.5975041196735651,0.953332575656232
1970-01-01 00:00:00.000000000,-1.0740907943165199,-0.9961972439463533,-0.48405261848403236,0.9482956529706924
1970-01-01 00:00:00.000000000,-1.246355434931529,-0.9213400943714192,-0.29549975997989664,0.9468414446759957
1970-01-01 00:00:00.000000000,-1.247005273624268,-0.9219851579520655,-0.28644075484328185,0.9441980701192064
1970-01-01 00:00:00.000000000,-1.3623230370932042,-0.9444636060148577,-0.1606050564692198,0.9440765835701924
1970-01-01 00:00:00.000000000,-1.3716226687529949,-1.049454597713294,-0.020818163089855884,0.9447218637199041
1970-01-01 00:00:00.000000000,-1.3302031339541627,-1.1270684343267532,0.11225675096044155,0.9469304054926718
1970-01-01 00:00:00.000000000,-1.16750500028741,-1.1791407177268354,0.2540028504039829,0.9444260666725575
1970-01-01 00:00:00.000000000,-1.1528760114527086,-1.1791874831832097,0.27636367106168686,0.9528914264890893
1970-01-01 00:00:00.000000000,-0.7310731074558574,-1.3613603104035712,0.5053772860778085,0.9509780370572233
1970-01-01 00:00:00.000000000,-0.5573676937006165,-1.4700736254379618,0.4762903253143951,0.9507574170393126
1970-01-01 00:00:00.000000000,-0.5514712767464721,-1.4642247445240353,0.4708643293082262,0.9556496256097051
1970-01-01 00:00:00.000000000,-0.3206119126834672,-1.3298518498408305,0.22118919287787916,0.955699672001012
1970-01-01 00:00:00.000000000,-0.25966527589594096,-1.2033635202811397,-0.01034444070824452,0.9564277700229852
1970-01-01 00:00:00.000000000,-0.25739191709180914,-1.1889792661937026,-0.028505160444246246,0.959608620883943
1970-01-01 00:00:00.000000000,-0.1128154915784127,-1.0117799131143173,-0.37199813745188864,0.9600763183861127
1970-01-01 00:00:00.000000000,-0.11178859264842114,-0.9997791683535044,-0.38614533121738726,0.9615257657885811
1970-01-01 00:00:00.000000000,-0.0450758008881456,-0.8921906853886123,-0.46385885837587265,0.9609608756553911
1970-01-01 00:00:00.000000000,-0.014996628747207983,-0.7336404032794265,-0.5323149110715721,0.9599213814747042
1970-01-01 00:00:00.000000000,0.01360044695662935,-0.5357957136299051,-0.5283392510305768,0.9569954843957409
1970-01-01 00:00:00.000000000,0.017660355305999555,-0.5257984750829864,-0.525799477108977,0.9557766575634444
1970-01-01 00:00:00.000000000,-0.021788539395757502,-0.425101429894663,-0.43258494719573737,0.9544105242414443
1970-01-01 00:00:00.000000000,0.009603751057877844,-0.43153722631340946,-0.38359119141642767,0.9534849734231786
1970-01-01 00:00:00.000000000,0.011818154616923484,-0.43190438170363477,-0.37987792218405136,0.9539576277562565
1970-01-01 00:00:00.000000000,0.03996921163937196,-0.44988649599902897,-0.34311812386725915,0.9531401303895695
1970-01-01 00:00:00.000000000,0.030490423634817437,-0.41340556018584135,-0.33268597214763723,0.9522259135545473
1970-01-01 00:00:00.000000000,0.01194020910194795,-0.38679339934003415,-0.3141328944402916,0.9520043359699845
1970-01-01 00:00:00.000000000,0.020987760571388514,-0.45090096476481956,-0.06978692050997636,0.9507809855734175
1970-01-01 00:00:00.000000000,0.08048140029149267,-0.4280869442895384,0.0393317456914885,0.9483025502409641
1970-01-01 00:00:00.000000000,0.08326776674348878,-0.43391662122301977,0.055273964009865825,0.9466923514704348
1970-01-01 00:00:00.000000000,0.02380913667658912,-0.5751364724066164,0.41559063890026354,0.9446908664942767
1970-01-01 00:00:00.000000000,0.027629474458672365,-0.5796603444722528,0.43078107558061157,0.9448434038665245
1970-01-01 00:00:00.000000000,0.04703876945029934,-0.5669401010125978,0.47425112910786116,0.9446083359416192
1970-01-01 00:00:00.000000000,0.08471906918731485,-0.4649770218547512,0.3867447713447821,0.9421015982784482
1970-01-01 00:00:00.000000000,0.004187061600112467,-0.40993212113023153,0.04536506513670905,0.939416756220049
1970-01-01 00:00:00.000000000,0.0013782900908854653,-0.40257887147524035,0.03872336453261308,0.7425367675572541
1970-01-01 00:00:00.000000000,0.12975481366394756,-0.40401857638873906,0.055844609556361745,0.7335861556061114
1970-01-01 00:00:00.000000000,0.13339074543709736,-0.4053897127147637,0.06961407179510656,0.7336537675814875
1970-01-01 00:00:00.000000000,0.16806267669139827,-0.45581889140954673,0.4094201044118506,0.7295817000621728
1970-01-01 00:00:00.000000000,0.17362523581118122,-0.4580089516474848,0.42844015102036753,0.7275948932604694
1970-01-01 00:00:00.000000000,0.11089769900396337,-0.42261650143669577,0.6462702747739156,0.722118075074128
1970-01-01 00:00:00.000000000,-0.02235245104108103,-0.32187907696502144,0.9016147780536323,0.7191819993870489
1970-01-01 00:00:00.000000000,-0.01749321129896825,-0.3137339013922823,0.9017134079007627,0.7190119390705828
1970-01-01 00:00:00.000000000,-0.015551525284815949,-0.1911979061149422,0.6523855897786301,0.7207100654981398
1970-01-01 00:00:00.000000000,-0.015524027885915746,-0.1837272047749662,0.6275798750584335,0.7238735437831562
1970-01-01 00:00:00.000000000,0.10049803194059129,-0.17790393136925,0.13380372823896808,0.7342396635547517
1970-01-01 00:00:00.000000000,0.35336694622031956,-0.17806192285510516,-0.14826219326662007,0.7360457470025973
1970-01-01 00:00:00.000000000,0.4012791516627873,-0.1009926527758442,-0.3581076134949633,0.7366021939259063
1970-01-01 00:00:00.000000000,0.3718424875284316,-0.031929989156575155,-0.5038336581612763,0.7378545574007681
1970-01-01 00:00:00.000000000,0.36827966924636857,-0.028678416730886738,-0.5129625191386983,0.7367408490834136
1970-01-01 00:00:00.000000000,0.30984325331101154,0.020845760764382385,-0.5829213352418275,0.7362127466609332
1970-01-01 00:00:00.000000000,0.24076517745497525,0.11786918232963148,-0.6995583074302258,0.736189891189988
1970-01-01 00:00:00.000000000,0.18979706193310195,0.18717794328044146,-0.779597184229496,0.7353014520813024
1970-01-01 00:00:00.000000000,0.11414584141174058,0.23433850045864296,-0.801162452549809,0.734183884689315
1970-01-01 00:00:00.000000000,0.03306792976107837,0.21838306156271536,-0.7733675421555487,0.7349162824577811
1970-01-01 00:00:00.000000000,0.030229184289840522,0.21826936059258265,-0.7734959867920951,0.7336522959964665
1970-01-01 00:00:00.000000000,-0.02896760144057037,0.26455757009602265,-0.7713562055720101,0.7321949605736047
1970-01-01 00:00:00.000000000,-0.09815547060057614,0.3010067591884262,-0.6768998364637829,0.730664722147035
1970-01-01 00:00:00.000000000,-0.13331465150634217,0.2805203134417646,-0.5870439934998469,0.7324792783144087
1970-01-01 00:00:00.000000000,-0.026677173292317138,0.14057419442108415,-0.5557554973502165,0.7326396384916486
1970-01-01 00:00:00.000000000,-0.025523946582438464,0.13118831006678114,-0.5521490608167231,0.7338276905671576
1970-01-01 00:00:00.000000000,0.02514563225911092,-0.013365238980028518,-0.5171445610633408,0.7346639459273485
1970-01-01 00:00:00.000000000,0.023867064352126113,-0.026362051916116472,-0.520066377282044,0.7366179155504627
1970-01-01 00:00:00.000000000,0.10133171232134097,-0.18371342371490354,-0.5099508865116322,0.7375478684431405
1970-01-01 00:00:00.000000000,0.09984657288808044,-0.19227491240513916,-0.5069820825508828,0.7376313638632525
1970-01-01 00:00:00.000000000,0.09909331182052275,-0.2680725178004663,-0.4389286489388151,0.736967004755846
1970-01-01 00:00:00.000000000,0.06747808121994726,-0.29058682391110896,-0.33899519450078264,0.7344053643087118
1970-01-01 00:00:00.000000000,-0.019924973431447165,-0.25608308893355025,-0.14225296371638999,0.7324978259130843
1970-01-01 00:00:00.000000000,-0.017567938956018325,-0.2539843349288738,-0.13216258347587445,0.731539533178222
1970-01-01 00:00:00.000000000,-0.04758422140906486,-0.20939149482504957,-0.03403433081122682,0.7300033846876862
1970-01-01 00:00:00.000000000,-0.04718781279111925,-0.21904612836519435,0.1437755485550175,0.7279231058393555
1970-01-01 00:00:00.000000000,-0.04269723553941291,-0.2190537107889133,0.15177440204298326,0.7285520886889799
1970-01-01 00:00:00.000000000,-0.0034780542200301325,-0.22817442729460166,0.17136294224639503,0.729044279871752
1970-01-01 00:00:00.000000000,0.04640579436982203,-0.23639217073937202,0.18028869403563783,0.7297384787420674
1970-01-01 00:00:00.000000000,0.10612955938820615,-0.2165350312952121,0.1343109480890542,0.7306051530050783
1970-01-01 00:00:00.000000000,0.16472632145095967,-0.19474403113936947,0.11141654746080923,0.7307416509548157
1970-01-01 00:00:00.000000000,0.20411743256154244,-0.12942976237223597,0.03605988044832218,0.7303748253382552
1970-01-01 00:00:00.000000000,0.2045593048649872,-0.12791445356601094,0.034145323988877464,0.7301550879908482
1970-01-01 00:00:00.000000000,0.1949519848159643,-0.1467106228060879,0.06341372835533927,0.7301937669863994
1970-01-01 00:00:00.000000000,0.19601754469560326,-0.15603664042750423,0.10526106337613973,0.7311436978805741
1970-01-01 00:00:00.000000000,0.26245667654426497,-0.16621456640447047,0.17869908513248686,0.7295815335889373
1970-01-01 00:00:00.000000000,0.26520608091875175,-0.13874025867805453,0.16263062901614717,0.7294054583036589
1970-01-01 00:00:00.000000000,0.26651571490304343,-0.13266563145752977,0.15943468474895572,0.73030398252311
1970-01-01 00:00:00.000000000,0.3132692490155481,-0.02193060343796506,0.06340704644294187,0.7289346125253766
1970-01-01 00:00:00.000000000,0.2852853808373779,-0.0007511553838818012,0.011265075194119513,0.7284714171134862
1970-01-01 00:00:00.000000000,0.22816629000542327,-0.026618671303676462,-0.03751809557854498,0.7303569256297048
1970-01-01 00:00:00.000000000,0.23623955437230004,-0.04616430718163711,-0.10246499318109029,0.7317855929900707
1970-01-01 00:00:00.000000000,0.25391337579863515,-0.08453923722915553,-0.09375833493952304,0.7319638259413559
1970-01-01 00:00:00.000000000,0.2532999752016678,-0.10486533140432248,-0.04748028358479403,0.7315988294955604
1970-01-01 00:00:00.000000000,0.25280503504861146,-0.10631570284234813,-0.047700314004712134,0.7305449337517621
1970-01-01 00:00:00.000000000,0.20411436251940776,-0.09755185276126521,-0.07232140196462275,0.7300525298476115
1970-01-01 00:00:00.000000000,0.14191711531675014,-0.09541874142159526,-0.22281195874988868,0.7318703078917446
1970-01-01 00:00:00.000000000,0.09719117254892277,-0.09282076611949452,-0.3826680847800602,0.7352105381995849
1970-01-01 00:00:00.000000000,0.12455231417881414,-0.11004652115199039,-0.5585309076589687,0.7383410016176005
1970-01-01 00:00:00.000000000,0.16183320982095975,-0.15628919807250574,-0.7255203151003535,0.740973967855152
1970-01-01 00:00:00.000000000,0.17016134620897483,-0.2028182778837136,-0.873574051128624,0.7437310348612407
1970-01-01 00:00:00.000000001,0.17850747529967426,-0.23161493836188338,-1.0227896989466132,0.7467846952920085
1970-01-01 00:00:00.000000001,0.207784949776078,-0.28782146192663416,-1.2287842244694287,0.7512506894512774
1970-01-01 00:00:00.000000001,0.2586676614501002,-0.3860829039016907,-1.7509027319724126,0.7592969051158155
1970-01-01 00:00:00.000000001,0.27967028564087165,-0.44062950337782786,-2.0998020987445236,0.7643845441847187
1970-01-01 00:00:00.000000001,0.27279209255814774,-0.4423368274088773,-2.125177074238922,0.7664940032301734
1970-01-01 00:00:00.000000001,0.3281512037705834,-0.4776183678444981,-2.505132436888996,0.7746313673151263
1970-01-01 00:00:00.000000001,0.4735668712848776,-0.6366351837736327,-3.196674801145039,0.7841081903649485
1970-01-01 00:00:00.000000001,0.46723869003032853,-0.6330706173936689,-3.226626217377124,0.7935821046562109
1970-01-01 00:00:00.000000001,0.8702330297502313,-0.6235801990444533,-3.5895417812263446,0.7941312776314723
1970-01-01 00:00:00.000000001,0.8854833627320218,-0.6124638529054245,-3.5998709718330524,0.8079246507624464
1970-01-01 00:00:00.000000001,1.5252385899182288,-0.6887619005326499,-3.882792529396702,0.8128475772917538
1970-01-01 00:00:00.000000001,1.890349780395019,-0.8759672749107581,-4.1273871353125395,0.8159314781480491
1970-01-01 00:00:00.000000001,1.9791982317802201,-1.1787425791248696,-4.27304818110892,0.8197456311063172
1970-01-01 00:00:00.000000001,1.9347998228541252,-1.5140441524647201,-4.30887554563231,0.8220701261862954
1970-01-01 00:00:00.000000001,1.7851529305180678,-1.8198871253300586,-4.186029138870944,0.8255415434839776
1970-01-01 00:00:00.000000001,1.7654523692594133,-1.8452325848330402,-4.186235557269374,0.8140585499627238
1970-01-01 00:00:00.000000001,1.1927034484547228,-1.905647238730669,-3.996585480970789,0.8186160874087218
1970-01-01 00:00:00.000000001,1.1745528488636254,-1.9034879040335824,-4.017817472080456,0.81116212240201
1970-01-01 00:00:00.000000001,0.7870266083845273,-1.5717507069519694,-4.567710801977421,0.8183680361374197
1970-01-01 00:00:00.000000001,0.7742792733769394,-1.5676739766292982,-4.594266974269645,0.8197134158163675
1970-01-01 00:00:00.000000001,0.7908326389062482,-1.8108886025908593,-4.782939443854764,0.8272836058205311
1970-01-01 00:00:00.000000001,0.890062720013435,-1.8321308975582682,-5.050910614043295,0.8299626925714425
1970-01-01 00:00:00.000000001,0.899089766907013,-1.9829382188419329,-4.917939722673748,0.8242478617166439
1970-01-01 00:00:00.000000001,0.6280176972904331,-1.8786684046894457,-4.6549292916634215,0.8220935357302225
1970-01-01 00:00:00.000000001,0.6168447024877145,-1.8732686347892162,-4.647311079254743,0.8089490314510214
1970-01-01 00:00:00.000000001,0.02358802936490105,-1.4857740811519056,-4.358659194747149,0.8021723223826417
1970-01-01 00:00:00.000000001,-0.21637965279949328,-1.360811827227372,-4.154667449833465,0.8003547574329128
1970-01-01 00:00:00.000000001,-0.22270116608398072,-1.3402745063774413,-4.151491203146684,0.7921082313834976
1970-01-01 00:00:00.000000001,-0.5831467651046923,-0.6949578491232089,-4.053953039286678,0.787040841229666
1970-01-01 00:00:00.000000001,-0.5758850984903737,-0.6649658408455923,-4.046619278490014,0.7854474163888734
1970-01-01 00:00:00.000000001,-0.6077536010871859,-0.4667463764607211,-3.912394002696626,0.781244233984776
1970-01-01 00:00:00.000000001,-0.6091815575541162,-0.29087402316115574,-3.4417064938861595,0.7732905571005967
1970-01-01 00:00:00.000000001,-0.592697063614883,-0.2786130239441892,-3.40544210728339,0.7746713881454111
1970-01-01 00:00:00.000000001,-0.46403335749598806,-0.17622918029756007,-2.949781959730964,0.7671167213276863
1970-01-01 00:00:00.000000001,-0.39222883228926453,-0.2302256917546635,-2.2393216531173605,0.7556605955051676
1970-01-01 00:00:00.000000001,-0.4503743064630414,-0.2568703108188422,-1.4789084881782721,0.7375448990391295
1970-01-01 00:00:00.000000001,-0.7993672711456739,-0.23772221936719992,0.27634295329088693,0.6944335150059929
1970-01-01 00:00:00.000000001,-0.7667572214937635,-0.23246591118483076,0.3693319279429449,0.01015506250118198
1970-01-01 00:00:00.000000001,-1.037913238475014,-0.14228087165071995,1.0921956121411394,-0.023670316501562857
1970-01-01 00:00:00.000000001,-1.117452641973283,0.011107813681422517,1.490175036933858,-0.029028170977343157
1970-01-01 00:00:00.000000001,-1.041857658417903,0.1800985562863712,1.380437100310271,-0.022183584649465172
1970-01-01 00:00:00.000000001,-0.6355562288276287,0.3991136430479445,0.8291871084408092,-0.022368177560870346
1970-01-01 00:00:00.000000001,-0.6254374740019419,0.4132628680649253,0.8249078896483676,-0.014464147437246817
1970-01-01 00:00:00.000000001,-0.2368039038150052,0.3567646021921635,1.0411067195522368,-0.0203829957576748
1970-01-01 00:00:00.000000001,-0.19152253027450672,0.4791404693691949,1.2947326165077342,-0.026117659774265733
1970-01-01 00:00:00.000000001,-0.18821006519414318,0.48238656048089207,1.319032415861377,-0.0324353284427105
1970-01-01 00:00:00.000000001,-0.44326132446852845,0.606620469164304,1.8804664172988497,-0.03831240262950459
1970-01-01 00:00:00.000000001,-0.43996604649189036,0.6034966868703344,1.9106914311225938,-0.044868962638895296
1970-01-01 00:00:00.000000001,-0.7053793598197875,0.559753725414678,2.3301658720911282,-0.051185939540719844
1970-01-01 00:00:00.000000001,-0.9234693902647575,0.5466244350802457,2.5405576510921333,-0.05038086920624949
1970-01-01 00:00:00.000000001,-0.9042177938842949,0.4675569797606083,2.5333416654051213,-0.04064657101936927
1970-01-01 00:00:00.000000001,-0.49319677415545987,0.08351426904110232,2.615767565431079,-0.04097629773179445
1970-01-01 00:00:00.000000001,-0.47915260942845084,0.07308807826150412,2.628142395146345,-0.029953673826741113
1970-01-01 00:00:00.000000001,0.046814530776912465,-0.1251927992581525,2.5790204602425764,-0.032829538867878434
1970-01-01 00:00:00.000000001,0.05548407107968395,-0.12756231800056136,2.5811413716343004,-0.030712535374908444
1970-01-01 00:00:00.000000001,0.1681896330779135,-0.056066156793922725,2.6247202038466164,-0.033485286291568196
1970-01-01 00:00:00.000000001,0.17226017901030477,-0.04742964994514039,2.6250983977145452,-0.03459592900722447
1970-01-01 00:00:00.000000001,0.1337565744266967,0.14113469683790503,2.6186056230088597,-0.034935708340733826
1970-01-01 00:00:00.000000001,0.20440318488985848,0.2318918625307347,2.451078821486823,-0.03484279823043193
1970-01-01 00:00:00.000000001,0.20480776077796709,0.2414347299120985,2.4320116955555426,-0.03433070546076703
1970-01-01 00:00:00.000000001,0.22359603429734967,0.39425946414607327,2.070650577562979,-0.03467263016012992
1970-01-01 00:00:00.000000001,0.10058250699955568,0.7674125754684835,1.8393956720814824,-0.03798853542614496
1970-01-01 00:00:00.000000001,-0.036449860241560314,0.7759589489511127,2.0431114440851568,-0.04093895089767326
1970-01-01 00:00:00.000000001,-0.115936140287689,0.7055818918761756,2.3467161638823524,-0.04526029314641881
1970-01-01 00:00:00.000000001,-0.2130814675812955,0.6561284385631958,2.699601287595932,-0.04971265719805666
1970-01-01 00:00:00.000000001,-0.28716775074722234,0.7551683166691833,2.7878009685468785,-0.05169908386206052
1970-01-01 00:00:00.000000001,-0.298381618168757,1.0239829965552072,2.8615917482202327,-0.05559572202713617
1970-01-01 00:00:00.000000001,-0.286858608967711,1.0400659465968716,2.872869589674864,-0.05169205459516978
1970-01-01 00:00:00.000000001,-0.08114956584909472,1.099048349869508,2.997137961310302,-0.048838963733255254
1970-01-01 00:00:00.000000001,0.2740496994416496,0.8522911044158515,3.2679069702393067,-0.048908361666707284
1970-01-01 00:00:00.000000001,0.5046021566505818,0.6267724099617564,3.4503111757542557,-0.0577258606645678
1970-01-01 00:00:00.000000001,0.22125439891984316,1.013777764539857,3.333708575113906,-0.06647607628831789
1970-01-01 00:00:00.000000001,-0.16860576344418268,1.9108326213624216,2.975425741069218,-0.07152281037201157
1970-01-01 00:00:00.000000001,-0.2932644609803531,2.1178768385269886,3.04196026003644,-0.07546597747453848
1970-01-01 00:00:00.000000001,-0.33657699177752987,2.636993258062845,4.772652519111271,-0.10090734224392053
1970-01-01 00:00:00.000000001,-0.25676814796039926,2.6577251504704864,4.8964417772684845,-0.07224824181068663
1970-01-01 00:00:00.000000001,1.2295974125037892,1.9097203196315007,5.719409982129008,-0.06166067165343723
1970-01-01 00:00:00.000000001,2.5742975853191212,0.19656573199899707,6.069469992633651,-0.050747640413194246
1970-01-01 00:00:00.000000001,3.053258250418573,-0.8456955342880007,6.413029840350147,-0.05177559813223025
1970-01-01 00:00:00.000000001,2.850803930426169,-0.7309849233513956,6.131695931243973,-0.047833274733373635
1970-01-01 00:00:00.000000001,2.832798041923688,-0.707933653089735,6.075724046347086,-0.05675907655890794
1970-01-01 00:00:00.000000001,2.368880199680983,0.05253728783582556,5.098614318034654,-0.04890079444987138
1970-01-01 00:00:00.000000001,2.350961056973937,0.08876458722528287,5.049186703156864,-0.05123821101934108
1970-01-01 00:00:00.000000001,2.213998232720293,0.37557270611667287,4.760892806070554,-0.053064764202458294
1970-01-01 00:00:00.000000001,2.061239158080977,1.6244652697540065,4.067685852577236,-0.05874363061792855
1970-01-01 00:00:00.000000001,2.0598572260892682,1.6967583880901156,4.028394024363447,-0.07124445163301035
1970-01-01 00:00:00.000000001,1.6129660029527908,2.6700058923563255,3.9309474889130542,-0.13286187979614278
1970-01-01 00:00:00.000000001,-0.934826191559439,4.5058432541743025,5.96963072493267,-0.1535837542191961
1970-01-01 00:00:00.000000001,-0.9431619578199947,4.559429628982929,6.07074974290209,-0.1922318254891277
1970-01-01 00:00:00.000000001,-2.553099631896123,5.157433560494143,7.749289165553117,-0.22799870185789212
1970-01-01 00:00:00.000000001,-3.744134426656308,5.421866755313033,9.140647977986173,-0.23314287371988662
1970-01-01 00:00:00.000000001,-3.623907226219243,4.052530831799346,11.617768238915119,-0.2472968897374719
1970-01-01 00:00:00.000000001,-3.577989271081731,3.961199065565471,11.753827835018152,-0.2291397868957557
1970-01-01 00:00:00.000000001,-2.703476924504792,2.386640473441031,12.472379841547639,-0.20268082147529953
1970-01-01 00:00:00.000000001,-1.535633817289111,1.2917409013128276,12.314075070738541,-0.17959520896687683
1970-01-01 00:00:00.000000001,-0.5764273955030204,0.46661033694032217,12.23389354332792,-0.17014334569543255
1970-01-01 00:00:00.000000001,-0.1557191379188895,0.056887704128167016,11.75120010716762,-0.1641256167575619
1970-01-01 00:00:00.000000001,-0.1742714850808593,0.1684539052643,11.14760558094199,-0.16215207601460693
1970-01-01 00:00:00.000000001,-0.40252409921322385,0.29816219669997196,10.790945036958089,-0.15718597694481706
1970-01-01 00:00:00.000000002,-0.47240114448454773,0.07331266969992853,10.399297680991312,-0.1404820374305983
1970-01-01 00:00:00.000000002,-0.1065222410759574,-0.5760793266792038,10.982733137930055,-0.14318824555857088
1970-01-01 00:00:00.000000002,-0.08751401108488563,-0.7926348064862415,10.969316726672375,-0.14078090909867622
1970-01-01 00:00:00.000000002,-0.09367195682567239,-0.8091574297156485,10.954721500957753,-0.14199328137201062
1970-01-01 00:00:00.000000002,-0.17927617159185014,-1.0016121651489156,10.61116742987422,-0.14003405725831528
1970-01-01 00:00:00.000000002,-0.465073861749315,-1.2283580353699475,10.302812099581287,-0.13291327066737646
1970-01-01 00:00:00.000000002,-0.6318283916395347,-1.5927720481896606,9.88604200047052,-0.1273415091109263
1970-01-01 00:00:00.000000002,-0.942894915775775,-2.3495509541723347,11.047258224701334,-0.12837116374906574
1970-01-01 00:00:00.000000002,-0.9425595745782834,-2.3862433079880305,11.098790472940777,-0.12981950563857217
1970-01-01 00:00:00.000000002,-1.012021803823178,-2.574414262501051,11.374688643703136,-0.12215138948893581
1970-01-01 00:00:00.000000002,-0.6815573613632417,-2.8042236339828386,9.336521052601407,-0.09954986500521215
1970-01-01 00:00:00.000000002,-0.8330374592703151,-2.8976859367097823,7.453317694860724,-0.07375704732595886
1970-01-01 00:00:00.000000002,-0.9015348061328815,-2.8822857132685864,7.20406765255087,-0.09087946888293184
1970-01-01 00:00:00.000000002,-2.0071682510584474,-1.8320486504117472,2.8984885951430526,-0.03800894138279291
1970-01-01 00:00:00.000000002,-2.103250036129287,-1.6830009395370653,2.705151324623109,-0.03533504014088604
1970-01-01 00:00:00.000000002,-2.1119257551554593,1.2482675415931797,1.7478414283630617,-0.0587928837388904
1970-01-01 00:00:00.000000002,-2.0591448626403217,1.3878239222325224,1.738166600859206,-0.05047346112944424
1970-01-01 00:00:00.000000002,-1.5615926489179612,1.9975578557930505,2.207236291943626,-0.029411069647985493
1970-01-01 00:00:00.000000002,0.3532961043726487,1.7471007332089596,1.8080758306478142,-0.042762870337057536
1970-01-01 00:00:00.000000002,0.40492121706303025,1.7800700176083053,1.7167192123068085,-0.019278352693133678
1970-01-01 00:00:00.000000002,1.438651076181431,2.3168236734813,-0.954623167097983,0.024281278888436373
1970-01-01 00:00:00.000000002,2.709121984942617,3.4090895274523434,-4.856624362886795,0.05979324374646421
1970-01-01 00:00:00.000000002,3.3580552866770534,5.207677966028876,-9.445150232548617,0.06922070056297729
1970-01-01 00:00:00.000000002,2.540287704625706,6.918124817616951,-10.942522653636251,0.029074933743518848
1970-01-01 00:00:00.000000002,0.45639744122973686,7.5563601330858745,-7.028293392173051,-0.05952946603089014
1970-01-01 00:00:00.000000002,-2.0409413074287666,7.379089332156685,-2.2959083785810606,-0.11087996012247774
1970-01-01 00:00:00.000000002,-3.120211228853961,5.789049915903335,1.148765251243081,-0.0742313765173135
1970-01-01 00:00:00.000000002,-0.9362995798875683,5.7796586588250385,1.6669704237359213,-0.038966944253313714
1970-01-01 00:00:00.000000002,2.0337729345735363,2.063354340982056,-1.0889433417638676,0.07374435028720458
1970-01-01 00:00:00.000000002,4.888773815091624,-4.63039496164862,-5.879744160699418,0.21876089266875945
1970-01-01 00:00:00.000000002,6.207302249314788,-7.624424219342139,-13.704554910967833,0.29239383792183593
1970-01-01 00:00:00.000000002,3.6754515082555623,-8.055359461492309,-17.219538936335205,0.34957223031763934
1970-01-01 00:00:00.000000002,2.4008409733165785,-9.053292988215064,-13.90600811734774,0.33804463338943747
1970-01-01 00:00:00.000000002,2.409459140810969,-9.088537279181871,-13.697666290921367,0.3226468123296835
1970-01-01 00:00:00.000000002,1.8580079472782078,-8.659099630682784,-11.002867818516568,0.30153321852465736
1970-01-01 00:00:00.000000002,2.412099876297095,-6.593213944635652,-13.51582600440827,0.3076888924538459
1970-01-01 00:00:00.000000002,2.735584257615872,-6.520159114773066,-17.211916540799823,0.34358463743593043
1970-01-01 00:00:00.000000002,2.4533604623393597,-6.957407927645424,-18.087246370595228,0.33777054490805936
1970-01-01 00:00:00.000000002,1.2330852729252144,-8.298257592571439,-14.612138126189356,0.30781741416353775
1970-01-01 00:00:00.000000002,0.42671372545645925,-8.28083427060109,-12.375770235335139,0.2880124386897005
1970-01-01 00:00:00.000000002,0.4429098800282741,-8.23249593280285,-12.231886447004182,0.27029021131347986
1970-01-01 00:00:00.000000002,-0.15825875301629747,-6.5238807256118845,-10.162488644313752,0.232498456238335
1970-01-01 00:00:00.000000002,0.009760625442742338,-5.696751974297638,-10.439775265046649,0.22269979154198297
1970-01-01 00:00:00.000000002,0.032490808757479755,-5.589989671754753,-10.513010603276262,0.22882882406477967
1970-01-01 00:00:00.000000002,0.3632363531461502,-3.7079073983537,-12.386449258685182,0.2307402229342938
1970-01-01 00:00:00.000000002,0.6706539383777672,-3.0610372665349583,-11.95864656396354,0.21363001242126683
1970-01-01 00:00:00.000000002,0.6984302039038249,-3.0191850143598633,-11.82609418460012,0.20818389617019506
1970-01-01 00:00:00.000000002,0.6739429578602897,-2.453165471981356,-8.59210377103967,0.1611278333739978
1970-01-01 00:00:00.000000002,0.749029695375684,-2.4597880212555157,-8.40421292558967,0.1487623128089926
1970-01-01 00:00:00.000000002,0.4745111591618704,-2.957831647574226,-6.318365765538023,0.1087340668122272
1970-01-01 00:00:00.000000002,-0.5232382326093509,-4.117000687700192,-1.6569969683886387,0.07172326666945818
1970-01-01 00:00:00.000000002,-0.6658665073123249,-3.9740734414477656,-0.44343890207201153,0.05490761214633867
1970-01-01 00:00:00.000000002,-0.6611540390497593,-3.5422441783978686,-0.425115334564073,0.05152031427329253
1970-01-01 00:00:00.000000002,-0.5364267028137629,-3.1922936055816593,-1.5604493614449286,0.06036664294558774
1970-01-01 00:00:00.000000002,-0.5366114990833701,-3.152087595137571,-1.7094218472796694,0.07597462242690067
1970-01-01 00:00:00.000000002,0.05199829750561186,-2.79610689969273,-4.975975951666097,0.10891272602074298
1970-01-01 00:00:00.000000002,0.15821394155337531,-2.583742475159177,-6.382872626297995,0.12372520154011149
1970-01-01 00:00:00.000000002,0.13827123564485944,-2.567551739314178,-6.464196768088861,0.12905590585310356
1970-01-01 00:00:00.000000002,0.28560873422236055,-2.4574058838648702,-7.367691509642562,0.14353285895240409
1970-01-01 00:00:00.000000002,0.553704892873122,-2.627467119354321,-8.058533986577311,0.15127129154486213
1970-01-01 00:00:00.000000002,0.5358254968288699,-2.6472438232429742,-8.075763612486162,0.15275452821762853
1970-01-01 00:00:00.000000002,0.555546346397566,-2.9163615401149587,-7.805328982458007,0.15485553842215335
1970-01-01 00:00:00.000000002,0.644200203034884,-3.2070019296412053,-7.5306030836602,0.16586083940028606
1970-01-01 00:00:00.000000002,1.187581010320046,-3.8265278145132338,-7.674791530683063,0.1695498710699511
1970-01-01 00:00:00.000000002,1.1929157908127237,-3.8415949194347543,-7.671114102001131,0.1796398222697994
1970-01-01 00:00:00.000000002,1.6471129279513752,-3.895361518182599,-7.694115731304964,0.18189882225716325
1970-01-01 00:00:00.000000002,1.9672640603185496,-3.6387382798564922,-7.375582851593963,0.17605617031254062
1970-01-01 00:00:00.000000002,2.237527237684783,-3.25613474754815,-7.102183971337504,0.16605506657596864
1970-01-01 00:00:00.000000002,2.3578589981411495,-2.684701320509462,-7.041185791084522,0.14962921067272703
1970-01-01 00:00:00.000000002,2.0939691315991205,-2.2268176860612163,-6.505849167798561,0.12791684173368936
1970-01-01 00:00:00.000000002,1.5865511803172914,-2.139966505381209,-5.317332041714429,0.1035352138990613
1970-01-01 00:00:00.000000002,0.9904829974078989,-1.1426502608118232,-3.4024882600713924,0.07716163196055509
1970-01-01 00:00:00.000000002,1.177286056379492,-1.1156351826958575,-2.9538956263709912,0.07578420287808589
1970-01-01 00:00:00.000000002,1.5780293690605791,-0.6399539818379774,-3.763147961807014,0.05855753588614061
1970-01-01 00:00:00.000000002,0.8096714159573489,0.3969729775207832,-4.84100403796808,0.06536457049802831
1970-01-01 00:00:00.000000002,0.7487759354940916,0.42508419245983353,-4.877101245770459,0.023145685121334025
1970-01-01 00:00:00.000000002,-1.1987222077661708,1.2571418928403262,-3.6638879238886917,-0.013589398276376601
1970-01-01 00:00:00.000000002,-2.5520553358512807,3.0140136106141706,6.448393997160869,-0.14379274219842209
1970-01-01 00:00:00.000000002,-2.3145337909285657,3.0901535532832627,6.989453806773143,-0.14988668153998097
1970-01-01 00:00:00.000000002,-1.728986045692679,3.3389100869168784,11.43563654459695,-0.23436990049806783
1970-01-01 00:00:00.000000002,-2.523818163590392,2.2554733825945745,11.217787486466568,-0.23304604278582997
1970-01-01 00:00:00.000000002,-3.7257930465976923,0.9841504103573829,5.369904757221115,-0.13259408749870222
1970-01-01 00:00:00.000000002,-3.9386009112486757,1.0077097614475208,5.21076302289633,-0.15587225528635876
1970-01-01 00:00:00.000000002,-5.318276503179851,3.5995753501792724,7.446259062433418,-0.20039460377935192
1970-01-01 00:00:00.000000002,-5.264916667609004,3.708743221085185,7.616150190498301,-0.22686351906375785
1970-01-01 00:00:00.000000002,-6.135373753511715,4.684231505350612,10.587535967250579,-0.277180524712206
1970-01-01 00:00:00.000000002,-6.575644654949467,3.2255800089573916,14.707393510843271,-0.29693806258981253
1970-01-01 00:00:00.000000002,-6.094336232619077,1.3483306433750257,18.203990732393773,-0.29824525833668575
1970-01-01 00:00:00.000000002,-4.914182220076306,0.40547911109349355,19.026488012713816,-0.2795521635754885
1970-01-01 00:00:00.000000002,-3.5222139321463377,0.12992340245874615,17.29150365718863,-0.21934511189223027
1970-01-01 00:00:00.000000002,-1.21489633218108,0.3276875937823664,10.81934556986899,-0.1675310190250145
1970-01-01 00:00:00.000000002,-1.2867637978219848,0.3732968081533053,10.486481907762244,-0.14833722329497753
1970-01-01 00:00:00.000000002,-0.7401190935653346,0.9663240569783584,7.530663770333069,-0.1225761793178634
1970-01-01 00:00:00.000000002,-0.671543138835672,1.5191995313832274,5.643186692351444,-0.10947281716647886
1970-01-01 00:00:00.000000003,-0.8358426824597611,2.2648707737718965,5.298184406559003,-0.12038240077397627
1970-01-01 00:00:00.000000003,-1.1823839825758533,2.877936675220823,6.153417599504443,-0.1452266889680843
1970-01-01 00:00:00.000000003,-1.625715929630428,3.0780941953743532,7.4827655182449115,-0.16206346318034084
1970-01-01 00:00:00.000000003,-1.7132152083221939,2.7928686917008725,8.693513484922283,-0.16822472508697567
1970-01-01 00:00:00.000000003,-1.4865288291284033,2.0472958305212927,9.460033924628847,-0.16206876419589414
1970-01-01 00:00:00.000000003,-1.0770670863984246,1.0488382194940589,9.79212196717648,-0.14291242108225455
1970-01-01 00:00:00.000000003,-0.3757818333390286,-0.16026509475431083,9.24565799856346,-0.12816779559763355
1970-01-01 00:00:00.000000003,-0.35538958293290174,-0.18123875347978474,8.785401018417698,-0.12286103567319433
1970-01-01 00:00:00.000000003,-0.3810707889043873,-0.18173919013933582,8.761611557774968,-0.13763810851802444
1970-01-01 00:00:00.000000003,-1.095830386635916,0.2247626654432743,8.978593087231978,-0.14288584858789774
1970-01-01 00:00:00.000000003,-1.3571712334022505,0.47137443814211544,9.481445078522794,-0.14923652232089418
1970-01-01 00:00:00.000000003,-1.3492747597279202,0.48632288530207957,9.504399753791645,-0.15252453316800454
1970-01-01 00:00:00.000000003,-1.4578740491907511,0.7221588853665407,9.70016369420405,-0.15611045286282996
1970-01-01 00:00:00.000000003,-1.4367529494744586,0.9234371882909342,9.061490158414179,-0.1509875254320101
1970-01-01 00:00:00.000000003,-1.4490704694354424,0.9363567515372662,9.010782136027375,-0.14484118075283794
1970-01-01 00:00:00.000000003,-1.2253520341024433,0.9866662644975545,8.358098675607227,-0.13125319361235074
1970-01-01 00:00:00.000000003,-0.8597792885893825,0.9894969545822107,7.693746670053152,-0.11313048209521037
1970-01-01 00:00:00.000000003,-0.22640503336489107,0.795408814738671,6.938718721344411,-0.10761251744182296
1970-01-01 00:00:00.000000003,-0.1862610306778219,0.6706067450191459,6.835724507903175,-0.10834178717678797
1970-01-01 00:00:00.000000003,-0.3368505197786064,0.5183257024565258,6.833195393719598,-0.11026333465318011
1970-01-01 00:00:00.000000003,-0.6100372408137378,0.33575939172054603,6.672123292939414,-0.107196078045639
1970-01-01 00:00:00.000000003,-0.8390988091321452,0.23034755157517417,6.247303193221576,-0.10086109500209617
1970-01-01 00:00:00.000000003,-1.0180295092564937,0.16040215727499443,5.531840580508983,-0.08927583054509772
1970-01-01 00:00:00.000000003,-1.0850541543593175,0.08539357665550709,4.597275362326815,-0.07470344790969445
1970-01-01 00:00:00.000000003,-1.0853028624784993,0.010816566784707778,3.710186356676059,-0.062125108655647236
1970-01-01 00:00:00.000000003,-1.1028059571265922,0.002332085906922257,3.623434627302072,-0.056996126417483785
1970-01-01 00:00:00.000000003,-0.9885256357053773,-0.2570075551048128,2.0633912726729173,-0.035927612423402616
1970-01-01 00:00:00.000000003,-1.0326986177453035,-0.2854500266512871,1.969215781952275,-0.03196336192880944
1970-01-01 00:00:00.000000003,-1.0104869581716953,-0.6387985478849703,0.9167794566334897,-0.015738543059471144
1970-01-01 00:00:00.000000003,-1.098838008301215,-0.82430405867338,0.42163625472147304,-0.005170593107376728
1970-01-01 00:00:00.000000003,-1.10646371333261,-0.9889355331497279,-0.15412507600715317,0.004608032306862543
1970-01-01 00:00:00.000000003,-1.1196073179751878,-0.9975326111593845,-0.20359058170473715,0.009010190602544705
1970-01-01 00:00:00.000000003,-1.000176938633433,-1.158700484389604,-1.0570761462567064,0.02441159772588687
1970-01-01 00:00:00.000000003,-0.850065910388621,-1.396226689491499,-1.9463115893579062,0.0412567258648318
1970-01-01 00:00:00.000000003,-0.7009903366228336,-1.5700696078186933,-2.7739862423445807,0.05887052468674541
1970-01-01 00:00:00.000000003,-0.4438655122212903,-1.7183578958029777,-4.174022128135541,0.07554226648753219
1970-01-01 00:00:00.000000003,-0.47054158112785566,-1.7259236857293878,-4.249941324182755,0.08044056360892449
1970-01-01 00:00:00.000000003,-0.43405707220126716,-1.8400469990607828,-4.782859004969145,0.13788757078314962
1970-01-01 00:00:00.000000003,-0.318295737974734,-1.9244916016610467,-5.60639812273346,1.4233775347868152
1970-01-01 00:00:00.000000003,-0.30540019492652287,-1.9263897786097024,-5.645053841656529,1.4727274118740532
1970-01-01 00:00:00.000000003,-0.21740078879708807,-1.9375521396119249,-5.909575320803856,1.4753279432369921
1970-01-01 00:00:00.000000003,-0.28385159230235757,-2.0122286645489984,-6.03819049368431,1.4710014581234112
1970-01-01 00:00:00.000000003,-0.6465130615275149,-1.8987735896551952,-6.127719795116641,1.4701447158863583
1970-01-01 00:00:00.000000003,-0.8765649073054046,-1.743257017427112,-6.148842735750841,1.4688921857578277
1970-01-01 00:00:00.000000003,-0.9863801085572187,-1.6267073877839393,-6.098575577063165,1.466987868903275
1970-01-01 00:00:00.000000003,-1.0353313894524125,-1.587346431799773,-5.922201824015123,1.464861371805484
1970-01-01 00:00:00.000000003,-1.031858688840651,-1.5859207200558352,-5.905148120591071,1.4645797968342813
1970-01-01 00:00:00.000000003,-1.0306475577428533,-1.5799634455963343,-5.614247867832315,1.4659277830669792
1970-01-01 00:00:00.000000003,-0.8223327282428307,-1.6892509269240759,-5.5457029267603595,1.4838968063306464
1970-01-01 00:00:00.000000003,0.11719836070595376,-2.135560606772217,-5.475480180115881,1.4781220386774097
1970-01-01 00:00:00.000000003,0.1381681774862556,-2.1450110109290716,-5.466387491371714,1.4858577591915236
1970-01-01 00:00:00.000000003,0.5216293204119987,-2.1701655263298085,-5.507410924937529,1.4841936977120487
1970-01-01 00:00:00.000000003,0.6285504803973937,-2.0431572825162108,-5.5774065644820725,1.4782580727286854
1970-01-01 00:00:00.000000003,0.45689865930899654,-1.9325790011071151,-5.520064215577667,1.4758614426986132
1970-01-01 00:00:00.000000003,0.358109024887237,-1.7678394073631627,-5.345690916102179,1.4732222963820538
1970-01-01 00:00:00.000000003,0.38822903489893534,-1.6155323354775062,-5.130037856960408,1.4692782980729973
1970-01-01 00:00:00.000000003,0.4391607112159881,-1.5609157778524458,-5.124713349151748,1.4724947005013624
1970-01-01 00:00:00.000000003,0.6620343189184728,-1.5803389072067768,-5.288367810804998,1.4715184510309725
1970-01-01 00:00:00.000000003,0.6466531080794113,-1.136804277443273,-4.939787103295999,1.4645189928575089
1970-01-01 00:00:00.000000003,0.8076463045660279,-0.21913886501215496,-4.691646259437562,1.4493171511065877
1970-01-01 00:00:00.000000003,0.9146139201858171,0.257457035644219,-4.447259787989039,1.4390312767848918
1970-01-01 00:00:00.000000003,0.9858495356890408,0.5752997912229957,-3.3545470524495644,1.4189333621378337
1970-01-01 00:00:00.000000003,0.9915054574360773,0.5605884535085769,-3.3405595020172907,1.3917057033039397
