time,ax,ay,az,speed
1970-01-01 00:00:00.000000000,-0.5122913507479114,0.29534732684560633,-0.7359406972832937,-0.9627127037829094
1970-01-01 00:00:00.000000015,0.030164962364077647,0.6772812065214929,0.08159197594759518,-0.9837803555328126
1970-01-01 00:00:00.000000015,-0.17394938579785962,0.8725536527371951,-0.17976754862914412,-0.9680484921005398
1970-01-01 00:00:00.000000015,-0.3333619847656588,0.8490936588267598,-0.9678895474904904,-0.9361026897377721
1970-01-01 00:00:00.000000015,-0.24511605913538592,0.9195985132827635,-1.0866268559166425,-0.9401007531218196
1970-01-01 00:00:00.000000015,-0.13647674442173216,1.2413443004950202,-1.1097574615716796,-0.9353395438641766
1970-01-01 00:00:00.000000015,-0.6591300407812848,1.4973381099389138,-1.4761840966625779,-0.913426421354826
1970-01-01 00:00:00.000000015,-0.6209870414642668,1.514395177531584,-1.419602638641965,-0.8995633230401591
1970-01-01 00:00:00.000000015,-1.127176647454424,1.3383972103446833,0.09397838026028565,-0.9277177737986797
1970-01-01 00:00:00.000000015,-1.1451305099220246,1.3546801612047181,0.18936956509951816,-0.9164659100943608
1970-01-01 00:00:00.000000015,-1.5865412176670632,1.6338792308034789,0.9149119660474542,-0.920949710128302
1970-01-01 00:00:00.000000015,-2.0236819159997728,1.7776774235449886,1.5308718712375409,-0.9315579103139887
1970-01-01 00:00:00.000000015,-2.028879921530179,1.4378407518497847,1.4930581043047273,-0.9066843214108188
1970-01-01 00:00:00.000000015,-2.3477661218976102,2.6915913677150405,0.4292654363059658,-0.901350276462228
1970-01-01 00:00:00.000000015,-2.325155849536763,2.7817107325806916,0.3936932320807211,-0.8831885869449859
1970-01-01 00:00:00.000000015,-2.884747845884994,3.496910094258297,0.03276351216820983,-0.8624298887577534
1970-01-01 00:00:00.000000015,-3.246111406953584,3.671246277223579,0.2773060612911845,-0.8660339446841447
1970-01-01 00:00:00.000000015,-3.2200062778675154,3.743140099787905,0.320900851703334,-0.9040859087046207
1970-01-01 00:00:00.000000015,-2.3061925272406802,3.777292654728292,-0.4792268276226895,-0.9105293526621506
1970-01-01 00:00:00.000000015,-2.310287003864184,3.764818521214613,-0.4889682541773086,-0.909149669834819
1970-01-01 00:00:00.000000015,-2.3202954400722504,3.358925571332265,0.01320211810139059,-0.9003935796119341
1970-01-01 00:00:00.000000015,-2.6301708212092736,2.6974397532968055,0.3666932914550848,-0.8802091311471736
1970-01-01 00:00:00.000000015,-2.570750410703817,2.45495044937307,0.37051943287758066,-0.8822502796701094
1970-01-01 00:00:00.000000015,-2.3367116059729174,2.621979965679878,0.4230889821433825,-0.9047908340419966
1970-01-01 00:00:00.000000015,-2.1715339443891732,2.7205411874027887,0.4349156484129209,-0.9150696760446465
1970-01-01 00:00:00.000000015,-2.162537169071711,2.4889481405055927,0.22594957131565777,-0.8957743728532799
1970-01-01 00:00:00.000000015,-2.24947298941371,2.138171786730862,-0.1771640424075603,-0.8637252105113109
1970-01-01 00:00:00.000000015,-2.2680979895380595,2.071401656087954,-0.4296671614595536,-0.84509475609188
1970-01-01 00:00:00.000000015,-2.4058035654071652,2.1624111112352042,-0.3011111334090959,-0.8310950203781149
1970-01-01 00:00:00.000000015,-2.852050440452873,2.5860492988503987,0.07201751100190251,-0.8221198425292204
1970-01-01 00:00:00.000000015,-3.454986467136291,3.4398300174594882,0.7744939901943262,-0.8372306681769572
1970-01-01 00:00:00.000000015,-4.0763552536670975,3.3851127912292642,4.435071842918361,-0.9373565795751844
1970-01-01 00:00:00.000000015,-4.243343077901334,2.7713450687346963,4.785575491605499,-0.9082672573489795
1970-01-01 00:00:00.000000015,-4.634863000560524,2.211651289136865,3.545913654959469,-0.8154121443179355
1970-01-01 00:00:00.000000015,-4.956162009734138,1.5443675274443973,2.3052209817839198,-0.7567328497515141
1970-01-01 00:00:00.000000015,-4.333771195872857,1.5391944057317375,2.247975307076164,-0.8134523451030344
1970-01-01 00:00:00.000000015,-3.348588728880336,2.305238870264236,2.681469752224095,-0.9151230250787196
1970-01-01 00:00:00.000000015,-2.7996360894724197,2.8756158704594585,2.5750687820312756,-0.971508552965516
1970-01-01 00:00:00.000000015,-2.3619985522991627,3.403931089894779,2.162928820373992,-0.9980664472365718
1970-01-01 00:00:00.000000015,-2.224372561007598,3.7629459064250117,1.806431717791947,-0.9938631726964777
1970-01-01 00:00:00.000000015,-2.4742502150483756,3.8225000590450313,1.4876192354730788,-0.9593475401038267
1970-01-01 00:00:00.000000015,-2.89715783862102,3.6739193885357326,1.0886513407260607,-0.9291567093619586
1970-01-01 00:00:00.000000015,-2.736673916498196,3.322905696200337,1.1055492289111706,-0.928301347888429
1970-01-01 00:00:00.000000015,-2.5462140130505455,2.511800056547673,1.2284434875498689,-0.917714035951293
1970-01-01 00:00:00.000000015,-2.338230816506433,1.6837805091760956,1.250509613524582,-0.9118929442072156
1970-01-01 00:00:00.000000015,-1.916480627915418,1.4679594252784713,1.3030018116854534,-0.9357097235719108
1970-01-01 00:00:00.000000015,-1.5244409216626849,1.5954539371565544,1.3248692657965782,-0.9579396284204579
1970-01-01 00:00:00.000000015,-1.4712495751167558,1.8259899557017154,1.4351614425753882,-0.9619671660272091
1970-01-01 00:00:00.000000015,-1.7633883569674405,2.020821166955458,1.7390359839046012,-0.9506275541484852
1970-01-01 00:00:00.000000015,-2.275678615723813,2.2563441761159817,2.2889727468691645,-0.9348141719615672
1970-01-01 00:00:00.000000015,-2.9630213662247895,2.772274357251,2.6850309506378256,-0.9175523197388452
1970-01-01 00:00:00.000000015,-3.6230002353803847,3.048794856205766,2.4105943068969453,-0.8853670744424399
1970-01-01 00:00:00.000000015,-3.82974735531515,2.91646125826943,2.0222898335444546,-0.866084192242248
1970-01-01 00:00:00.000000015,-3.6205101593423956,2.5680685019829426,1.8136405837174032,-0.8764967311841572
1970-01-01 00:00:00.000000015,-2.9943575965279976,2.061732893915811,1.8363505254712371,-0.9089829510841884
1970-01-01 00:00:00.000000015,-2.276147557220666,1.31731494829816,1.9864189185602024,-0.9474476335347243
1970-01-01 00:00:00.000000015,-1.3950450601405047,0.44086432609695053,2.232053891616696,-0.9870095383908946
1970-01-01 00:00:00.000000015,-0.599830731632083,-0.2229452561303283,2.4700690426407546,-1.0107770154692592
1970-01-01 00:00:00.000000015,-0.33178063615717257,-0.4056508383639173,2.0145456629356002,-0.9992344760271935
1970-01-01 00:00:00.000000015,-0.2880992117099155,-0.4898468790180395,1.4124443572978538,-0.9787733365875656
1970-01-01 00:00:00.000000015,-0.19302513791184128,-0.35751510305265094,0.834151776176938,-0.9649458197665843
1970-01-01 00:00:00.000000015,-0.20573705972032258,0.19986775232201265,0.2225822552050195,-0.9618351413846699
1970-01-01 00:00:00.000000015,-0.2243799691394926,0.7844422530295551,-0.2939330483588486,-0.9741051603369351
1970-01-01 00:00:00.000000015,0.03697731601049638,1.05907447068074,-0.5797731696891599,-1.010002796507799
1970-01-01 00:00:00.000000015,0.7402898880385506,0.8071341638832515,-0.8633768247156394,-1.0494046368408088
1970-01-01 00:00:00.000000015,1.6115445001380597,0.47973504467044015,-1.2352140071296906,-1.077735307690642
1970-01-01 00:00:00.000000015,2.1868701760569325,0.36091244826369595,-1.772200961740939,-1.0842482647614575
1970-01-01 00:00:00.000000015,2.421711794713343,0.3779462509809207,-2.0011667673440914,-1.0839226483371311
1970-01-01 00:00:00.000000015,2.3795913096217634,0.43779626785591125,-1.9151418169147214,-1.0875033007062835
1970-01-01 00:00:00.000000015,2.3513148599643916,0.6086103009497533,-1.541604969532344,-1.1126091509114735
1970-01-01 00:00:00.000000015,2.4953601405987462,1.0457530388564826,-1.1571211793894927,-1.1518725928344278
1970-01-01 00:00:00.000000015,2.582805896730967,1.4416470521375382,-1.135741570021695,-1.1730255516558186
1970-01-01 00:00:00.000000015,2.6492414505725543,1.743644646620589,-1.6429739334327471,-1.1548900241091913
1970-01-01 00:00:00.000000015,2.309014318271243,2.0407948645407394,-2.320518174740018,-1.1049686413698878
1970-01-01 00:00:00.000000015,1.6962832185942802,2.228422281275778,-2.6404111992513943,-1.0586577075814048
1970-01-01 00:00:00.000000015,1.246677356809348,2.098920679751845,-2.4982702552010347,-1.0064755134814611
1970-01-01 00:00:00.000000015,0.2698998620409796,1.053188201943704,-0.452133561256922,-1.0054290264983903
1970-01-01 00:00:00.000000015,0.2762258428264651,0.9789120917839699,-0.3175845796800165,-0.9983568829192693
1970-01-01 00:00:00.000000015,0.013406138271390268,-0.16995911349399404,1.0799525201789855,-0.9976042020393685
1970-01-01 00:00:00.000000015,0.03644859001569625,-1.6055642231891014,1.6885465574453153,-0.974712639210972
1970-01-01 00:00:00.000000015,0.23182303161394893,-2.5537335959368517,1.387345847519433,-0.9430957399819797
1970-01-01 00:00:00.000000015,0.4555433497618377,-2.767359974129489,0.5976742185557621,-0.9109894473260813
1970-01-01 00:00:00.000000015,0.40866521611566375,-2.6314523425816305,-0.21660858353612578,-0.8700859748445001
1970-01-01 00:00:00.000000015,0.05931791897728558,-2.2820170414438112,-0.6962697399004869,-0.8314956393447436
1970-01-01 00:00:00.000000015,-0.4823197068510943,-1.4657919849640675,-0.8154586023398385,-0.8130804960263558
1970-01-01 00:00:00.000000015,-1.1325723299782973,-0.25358967274566135,-0.5303356434348142,-0.8309008735265078
1970-01-01 00:00:00.000000015,-1.479070110697533,0.3924021904483397,-0.23007240078298472,-0.8477117195721895
1970-01-01 00:00:00.000000015,-1.632326561574552,-0.4483297873279192,0.7716022201153927,-0.8540941571014523
1970-01-01 00:00:00.000000015,-1.481909072568619,-1.1423638067594009,1.4182749854414556,-0.8578878806241877
1970-01-01 00:00:00.000000015,-1.4933300528166686,-1.202708822503305,1.4646065594765096,-0.8660944470790002
1970-01-01 00:00:00.000000015,-1.26200608933339,-1.9403072530858434,2.266569268168386,-0.8861950427647597
1970-01-01 00:00:00.000000015,-1.0183757973937835,-2.1509019252239137,2.5174487666605616,-0.9014866219788854
1970-01-01 00:00:00.000000015,-0.8969745728099783,-1.8343348787058158,2.0042572809207777,-0.9042339014111077
1970-01-01 00:00:00.000000015,-0.7440594569983391,-1.5014853288375585,1.4721522891959795,-0.8881742451254825
1970-01-01 00:00:00.000000015,-1.111601304271536,-1.4789370459451805,0.7206864813337364,-0.8496387630138582
1970-01-01 00:00:00.000000015,-1.0673087152777385,-1.4666142588569886,0.6995833596403405,-0.8388717034232969
1970-01-01 00:00:00.000000015,-1.357271452964312,-1.4001307140755526,0.6375814580734249,-0.8303800002971728
1970-01-01 00:00:00.000000015,-1.3375301957465118,-1.1246459261930848,0.977385103332012,-0.8691192096104421
1970-01-01 00:00:00.000000016,-0.9201039731089323,-0.9893234944647316,1.2278021305639337,-0.9098528605117197
1970-01-01 00:00:00.000000016,-0.6319082734282825,-0.8104748953044012,0.9498859509444618,-0.9202944951557173
1970-01-01 00:00:00.000000016,-0.566114980399236,-0.8724053720972422,0.44021185159338316,-0.9170052020357882
1970-01-01 00:00:00.000000016,-0.20290509373704382,-0.6126889479970112,0.31761524540097963,-0.957064756486468
1970-01-01 00:00:00.000000016,0.3958896929216144,0.020649916280032966,-0.17375408566484557,-0.9828970829967504
1970-01-01 00:00:00.000000016,0.4020230963175586,0.08214822441551659,-1.0970640214941991,-0.9192449475681782
1970-01-01 00:00:00.000000016,-0.4303512964672641,-0.5151368018576923,-1.6594634394751189,-0.799205446140646
1970-01-01 00:00:00.000000016,-1.6245716595810766,-1.2695705180949823,-1.4871774878557942,-0.6880307417510059
1970-01-01 00:00:00.000000016,-2.7876294596683557,-1.8702470536579112,-0.35130859958262173,-0.6346044480876889
1970-01-01 00:00:00.000000016,-3.5584940803431735,-2.4293835720084873,1.299561657785203,-0.6485729979564021
1970-01-01 00:00:00.000000016,-3.498475357557768,-2.8084737406519946,2.604109009702596,-0.7122308468157775
1970-01-01 00:00:00.000000016,-2.787680775652046,-2.8521591365702257,3.0586298932099396,-0.7844115770445272
1970-01-01 00:00:00.000000016,-1.989607301666857,-2.805051844467839,2.6236692092420304,-0.8221106311102135
1970-01-01 00:00:00.000000016,-1.4114879926019055,-3.038829224666217,1.6258501957201406,-0.8171640235359767
1970-01-01 00:00:00.000000016,-0.9165805792635263,-3.301548845867468,0.46607445085424914,-0.799529628708625
1970-01-01 00:00:00.000000016,-0.47568929107900904,-3.1302635078197945,-0.5691139167197642,-0.7974098456611793
1970-01-01 00:00:00.000000016,-0.1080172676806497,-2.5460596942273908,-1.4126440312482322,-0.8110300331036
1970-01-01 00:00:00.000000016,0.15867654723652397,-1.8324227153430992,-2.0413494060057884,-0.8194755271593221
1970-01-01 00:00:00.000000016,0.03673189938200638,-1.1771928219260757,-2.2016291327977644,-0.8126484020878136
1970-01-01 00:00:00.000000016,-0.5157198252309092,-0.872241759321561,-1.823095462194388,-0.7924896118721788
1970-01-01 00:00:00.000000016,-1.1829994279476346,-0.8098807663227109,-1.2084944330173035,-0.77111720502766
1970-01-01 00:00:00.000000016,-1.7659763824271344,-0.7330071461340051,-0.5447224440151914,-0.7661431386170692
1970-01-01 00:00:00.000000016,-2.0522731133857626,-0.5934344038747095,-0.11113377997203366,-0.7768697622124224
1970-01-01 00:00:00.000000016,-2.047338881331764,-0.37077169925993303,-0.036939556006446383,-0.7903903818950302
1970-01-01 00:00:00.000000016,-1.990037507436024,-0.15287950207259215,-0.12171225813123177,-0.7991485748825665
1970-01-01 00:00:00.000000016,-1.949806445647717,-0.02055914487016039,-0.2628757017069492,-0.8002054281044019
1970-01-01 00:00:00.000000016,-1.9578078503077219,0.10652801994143306,-0.4671862585932746,-0.7976525545730885
1970-01-01 00:00:00.000000016,-1.9474305281372506,0.3332665116189896,-0.6647024519813588,-0.7999627170388777
1970-01-01 00:00:00.000000016,-1.9218584393603018,0.640980168872519,-0.9804675698021913,-0.8020284303753911
1970-01-01 00:00:00.000000016,-1.8894771204282776,1.0203466568452957,-1.260773323771464,-0.8076562941903361
1970-01-01 00:00:00.000000016,-1.8726605166545558,1.3481589677511612,-1.3706327702266947,-0.8149121109630544
1970-01-01 00:00:00.000000016,-1.9132200553436143,1.5066789869992099,-1.3695779577860585,-0.8182371872488663
1970-01-01 00:00:00.000000016,-1.9518759175935205,1.5359415502547396,-1.154204220969698,-0.8237240757291633
1970-01-01 00:00:00.000000016,-2.0130072651514395,1.5568729406895945,-0.950805937584922,-0.8291827866276448
1970-01-01 00:00:00.000000016,-2.0318253933503976,1.4816794063395367,-0.7855045358479662,-0.8321596052420246
1970-01-01 00:00:00.000000016,-2.018606596114494,1.26205430626263,-0.6942332545254148,-0.8255432791223114
1970-01-01 00:00:00.000000016,-2.0720895494225893,0.9953684898293045,-0.8072117092604201,-0.8059273039825732
1970-01-01 00:00:00.000000016,-2.1594828186767914,0.7635520276155647,-0.9498257870190125,-0.7838368199201817
1970-01-01 00:00:00.000000016,-2.28399324356668,0.7069496142238041,-1.0016711818200563,-0.7712534754294085
1970-01-01 00:00:00.000000016,-2.3866139826736004,0.8375052871611777,-0.8318783913885134,-0.7765892859397907
1970-01-01 00:00:00.000000016,-2.4404917910531485,1.057624975234042,-0.5571135495636885,-0.7947254088388432
1970-01-01 00:00:00.000000016,-2.4049312855557723,1.328731984380624,-0.34982450660850517,-0.8206338124863983
1970-01-01 00:00:00.000000016,-2.2404231810583157,1.581057801714432,-0.12522893019431558,-0.8494683296223322
1970-01-01 00:00:00.000000016,-2.1182770330532006,1.607488989695302,0.21630371914824634,-0.8673507595302923
1970-01-01 00:00:00.000000016,-2.128899417716282,1.2804104186025287,0.4246948457407437,-0.8597366791517578
1970-01-01 00:00:00.000000016,-2.20324922311184,0.7268122569363396,0.5136770602152229,-0.8323196332037405
1970-01-01 00:00:00.000000016,-2.386909827403275,0.16153115211128702,0.5125964135030008,-0.7948827839165488
1970-01-01 00:00:00.000000016,-2.6375999026451673,-0.2607360982822978,0.681161156015058,-0.7747804808938451
1970-01-01 00:00:00.000000016,-2.6727821597137096,-0.3661432912534404,1.2140173133836214,-0.7889276857372609
1970-01-01 00:00:00.000000016,-2.65187269831639,-0.390841287197766,1.8315977837055228,-0.7919755556494286
1970-01-01 00:00:00.000000016,-3.18438226299505,-1.124045483539242,2.801648826212447,-0.7818863372503665
1970-01-01 00:00:00.000000016,-3.1643041470985454,-1.1613561730324395,2.8599511193599234,-0.7719249547811244
1970-01-01 00:00:00.000000016,-3.451792762313365,-1.6719981062020168,3.227604478640023,-0.7495143597055296
1970-01-01 00:00:00.000000016,-3.620053274719327,-1.9983467187222281,3.269615779620504,-0.7307167815683362
1970-01-01 00:00:00.000000016,-3.6534131123270344,-2.016277407014506,2.8191074633971773,-0.7127528503559668
1970-01-01 00:00:00.000000016,-3.618422177807311,-1.8729013547770408,2.1645276479957407,-0.6953682621503928
1970-01-01 00:00:00.000000016,-3.585523323970351,-1.9097466426747638,1.5154515617784252,-0.6698776984139261
1970-01-01 00:00:00.000000016,-3.604533326751066,-2.1944874274732857,0.9984350899900556,-0.6455590250573018
1970-01-01 00:00:00.000000016,-3.4362927118997186,-2.4738513002953746,0.559858466761773,-0.6426533793245572
1970-01-01 00:00:00.000000016,-2.967305876557814,-2.5597424818176244,0.15749871126214005,-0.6663270180214385
1970-01-01 00:00:00.000000016,-2.321231619603857,-2.496303993519017,-0.16450154742267037,-0.7052843919929227
1970-01-01 00:00:00.000000016,-1.6747796726262878,-2.4525665683607585,-0.46114171683905403,-0.7384527909522212
1970-01-01 00:00:00.000000016,-1.1914662103997655,-2.491400311399668,-0.8047317664099263,-0.7513479228951638
1970-01-01 00:00:00.000000016,-0.9559915697232892,-2.5101796202581,-1.2115537570567236,-0.7428789080449876
1970-01-01 00:00:00.000000016,-0.9846691210067731,-2.438722411659017,-1.56249265021158,-0.7116555704094336
1970-01-01 00:00:00.000000016,-1.5304592454539376,-2.0633244932761183,-1.7037467973966596,-0.6998204917504156
1970-01-01 00:00:00.000000016,-1.5131688370334797,-2.0315587717068873,-1.6991907444088683,-0.6940175717623368
1970-01-01 00:00:00.000000016,-1.7223232843408538,-1.6990215520623673,-1.5846625108951864,-0.6989131550851428
1970-01-01 00:00:00.000000016,-1.8267381798426248,-1.3736818162032056,-1.618355731987268,-0.7082962977627227
1970-01-01 00:00:00.000000016,-1.7728147959121987,-1.1902743071324355,-1.6608290744690781,-0.7249737062164712
1970-01-01 00:00:00.000000016,-1.530851396756678,-1.1434677568595415,-1.6037725591646508,-0.7457370505689416
1970-01-01 00:00:00.000000016,-1.3251430372463977,-1.2823269286714638,-1.4900018235726677,-0.758898459741123
1970-01-01 00:00:00.000000016,-1.166082019012038,-1.5018115855137804,-1.398728945541085,-0.7669736306850639
1970-01-01 00:00:00.000000016,-0.9919010757031788,-1.5920831366558168,-1.351176962491759,-0.7748868252106709
1970-01-01 00:00:00.000000016,-0.9169278509039621,-1.6114089551587345,-1.2100248927017783,-0.7819465009684776
1970-01-01 00:00:00.000000016,-0.9295196767025682,-1.6157865290657034,-1.0193230168918292,-0.7874965773737949
1970-01-01 00:00:00.000000016,-0.9600544059662506,-1.5770075356153828,-0.8738767693777729,-0.7926412941241494
1970-01-01 00:00:00.000000016,-0.9828796397598935,-1.399876577393111,-0.7618094011515142,-0.8002780088216888
1970-01-01 00:00:00.000000016,-1.046705734032958,-1.2112094151578183,-0.6865264228722837,-0.8064143052206401
1970-01-01 00:00:00.000000016,-1.0899514107329988,-1.1435849198847101,-0.6152113044168855,-0.8137155201522892
1970-01-01 00:00:00.000000016,-0.9979442884714832,-1.0759908653877892,-0.5845862400419651,-0.8243121825495578
1970-01-01 00:00:00.000000016,-0.9081517681036562,-1.0491537901400672,-0.5596025212706115,-0.8336987532402507
1970-01-01 00:00:00.000000016,-0.8046136200995105,-1.1563819212480548,-0.4299022871185888,-0.8407746077913104
1970-01-01 00:00:00.000000016,-0.747766608400553,-1.4025971282153522,-0.2771982755892567,-0.8466547017831436
1970-01-01 00:00:00.000000016,-0.5521790313397509,-1.790136285894548,-0.1308468991194174,-0.8452980856816158
1970-01-01 00:00:00.000000016,-0.5506681691428618,-1.8002110621155512,-0.12479647181315598,-0.8455220827986536
1970-01-01 00:00:00.000000016,-0.5429695143799814,-1.6797296914756068,-0.10282514008600255,-0.8479654501322311
1970-01-01 00:00:00.000000016,-0.6381050441764167,-1.3640854479760411,0.03692284924083125,-0.8611399110218374
1970-01-01 00:00:00.000000016,-0.6593715014059647,-0.8863564592169646,0.36396301424904065,-0.8885912027968222
1970-01-01 00:00:00.000000016,-0.7095772603406492,-0.597472360393393,0.7601451259719118,-0.9107559740037552
1970-01-01 00:00:00.000000016,-0.772974613206502,-0.47603235337700034,1.1793203050202368,-0.9324551772769347
1970-01-01 00:00:00.000000016,-0.692857749024804,-0.45040076865065204,1.6365035217094677,-0.9605334003384998
1970-01-01 00:00:00.000000016,-0.5162682902104117,-0.4183450867055165,2.022718094620482,-0.9855033183774685
1970-01-01 00:00:00.000000016,-0.462337457551867,-0.45465263062307437,2.6171489748187504,-1.0077922540779367
1970-01-01 00:00:00.000000016,-0.5241941355444157,-0.9391034430959846,4.558476722507295,-1.0567150447053177
1970-01-01 00:00:00.000000016,-0.6017832075726643,-0.9644594413795284,4.648403424467147,-1.0868330613766588
1970-01-01 00:00:00.000000016,0.11257158358937103,-0.49340217642360595,5.806315035833341,-1.1798783147367913
1970-01-01 00:00:00.000000016,0.3322049842756545,-0.2795882095199249,6.199913655571118,-1.192070323978795
1970-01-01 00:00:00.000000016,-0.193395825777574,-0.6884152000438423,6.208417945157328,-1.1389561521201563
1970-01-01 00:00:00.000000016,-0.7198194033470202,-1.3397908277950645,6.395202227545463,-1.0919144193966936
1970-01-01 00:00:00.000000017,-0.9660238571999857,-1.9582834306161963,6.739695918376821,-1.0650794517838778
1970-01-01 00:00:00.000000017,-1.1273664685838707,-2.6609190886493206,6.94953027882158,-1.0422880685751126
1970-01-01 00:00:00.000000017,-1.0577376486094228,-3.575312958511609,6.7088406142096755,-1.0154793953403152
1970-01-01 00:00:00.000000017,-0.6780884009166236,-4.240308580332397,5.821388515671376,-0.9934333947816767
1970-01-01 00:00:00.000000017,-0.08957032755679381,-4.343030898379254,4.538637121001327,-0.9872344516810988
1970-01-01 00:00:00.000000017,0.5504689334517838,-3.852255299071467,3.141084128200408,-0.9926264237720062
1970-01-01 00:00:00.000000017,0.9723349480607275,-3.098855889680914,1.83964062727911,-0.9946727032936253
1970-01-01 00:00:00.000000017,1.1541730292470758,-2.4442337107008605,0.9018328199479217,-0.9909165535435165
1970-01-01 00:00:00.000000017,1.1521986722601085,-1.8724000420315658,0.2828997685255202,-0.987019985170578
1970-01-01 00:00:00.000000017,1.0963005227030778,-1.4385884878648694,-0.09156013347232195,-0.9866441097755371
1970-01-01 00:00:00.000000017,1.0910002045461522,-1.2989811341833961,-0.334515376141698,-0.9818629826324093
1970-01-01 00:00:00.000000017,1.0788461786210624,-1.3294152448771253,-0.6358681321438213,-0.9691695310898083
1970-01-01 00:00:00.000000017,1.0799653737534325,-1.3708718332352277,-0.859565547477726,-0.9613557125286603
1970-01-01 00:00:00.000000017,1.1383347313886385,-1.4076172405735852,-1.045894637854325,-0.9609276952835727
1970-01-01 00:00:00.000000017,1.2912295457064502,-1.3696689588679927,-1.3644649712054429,-0.968567356744193
1970-01-01 00:00:00.000000017,1.6156083950663587,-1.3693079949070348,-1.5905229307374484,-0.9862542828544626
1970-01-01 00:00:00.000000017,1.986130282818453,-1.9459934342360576,-1.424000689319776,-1.0046448109404207
1970-01-01 00:00:00.000000017,2.45459811183062,-2.9814252693137213,-0.2914062207437206,-1.0730661523841016
1970-01-01 00:00:00.000000017,3.710257274692568,-3.1085310931527848,0.37499047332095015,-1.1491835593486883
1970-01-01 00:00:00.000000017,3.9720772930920267,-3.0243038572073253,0.21575938901349737,-1.1552795614263944
1970-01-01 00:00:00.000000017,3.890204020623446,-2.6492157673497343,-0.27602968586124493,-1.1449073150686724
1970-01-01 00:00:00.000000017,3.776390947974785,-2.158079660916974,-0.32211870694856815,-1.1607757451092724
1970-01-01 00:00:00.000000017,3.858367265311692,-1.6251509770969115,-0.17739130143846232,-1.2022537025700408
1970-01-01 00:00:00.000000017,4.193462982689609,-1.1739624538037279,0.07958783500599753,-1.253039957385927
1970-01-01 00:00:00.000000017,4.52034275935779,-1.205444109740025,-0.057345987535966675,-1.2634339809863422
1970-01-01 00:00:00.000000017,4.630921169095948,-1.7479886589856064,-0.2528896482857011,-1.234637679053966
1970-01-01 00:00:00.000000017,4.456525739638977,-2.638318760461691,0.5812564062316514,-1.2198524310610948
1970-01-01 00:00:00.000000017,4.305314632268046,-3.5016922868640825,1.4317382031561143,-1.2164523729796788
1970-01-01 00:00:00.000000017,4.363300431102538,-3.775164378185562,1.9578836856664548,-1.2421530327072974
1970-01-01 00:00:00.000000017,4.731413909877471,-3.6424653083924876,2.2164019255917693,-1.2863988943637104
1970-01-01 00:00:00.000000017,5.160420004596376,-3.6420273111021957,2.0643399426206814,-1.3112454778035358
1970-01-01 00:00:00.000000017,5.538641089469664,-3.882143843585583,1.5809047729477075,-1.307100758550753
1970-01-01 00:00:00.000000017,5.7935432551961625,-4.452011950231512,0.593933442444478,-1.2566304875896679
1970-01-01 00:00:00.000000017,5.758739844799246,-5.134604708046514,-0.35712772232814366,-1.184348301751649
1970-01-01 00:00:00.000000017,5.511270662727168,-5.8383853916241675,-0.8924521699041681,-1.1268438843047164
1970-01-01 00:00:00.000000017,5.4707144395265,-6.377497209385337,-0.8647772086636987,-1.116132918055047
1970-01-01 00:00:00.000000017,5.745528251994435,-6.496203906363102,-0.5986971085988403,-1.1509095477647069
1970-01-01 00:00:00.000000017,6.254240655454434,-6.266049917696208,-0.296086378782779,-1.2044665268698374
1970-01-01 00:00:00.000000017,6.652387436811339,-6.047118602517621,-0.00560984961923186,-1.2296614088039552
1970-01-01 00:00:00.000000017,6.430291234928941,-5.955863539479881,-0.055090750136913,-1.1961027000374282
1970-01-01 00:00:00.000000017,5.719196070702275,-5.818766647462234,-0.28941008810042246,-1.1226811762296331
1970-01-01 00:00:00.000000017,4.589329757556091,-5.573168025534366,-0.4313137121084667,-1.0386211416966304
1970-01-01 00:00:00.000000017,3.3928612664150046,-5.2176818973339865,-0.16697199419655012,-0.981001504947761
1970-01-01 00:00:00.000000017,2.462174325056549,-4.814863007490018,0.4124500637948571,-0.9590392968996715
1970-01-01 00:00:00.000000017,1.855539594131313,-4.5773576263035025,1.0093853952507068,-0.9567978327503373
1970-01-01 00:00:00.000000017,1.5744789377959791,-4.868544434580368,1.7462040760984112,-0.9692537192352438
1970-01-01 00:00:00.000000017,1.7498932268975935,-5.890564020390095,2.3709027463827423,-0.9802744996248973
1970-01-01 00:00:00.000000017,2.269933787318443,-7.156792875368396,2.538061316819429,-0.9782665300531904
1970-01-01 00:00:00.000000017,2.808828377738871,-8.111079538101395,1.8885168841970277,-0.951157735356061
1970-01-01 00:00:00.000000017,3.162418491594665,-8.54482817329617,0.749421036573405,-0.9054658444873587
1970-01-01 00:00:00.000000017,3.180465719675719,-8.457269910834905,-0.5121376666548464,-0.8544088357423499
1970-01-01 00:00:00.000000017,2.989696471603141,-7.955113641199556,-1.4807922582074502,-0.8172269425093095
1970-01-01 00:00:00.000000017,2.6746788021879344,-7.169555969678364,-2.058010873071502,-0.7994761801342423
1970-01-01 00:00:00.000000017,2.324151734123132,-6.401110026689431,-2.113713801296143,-0.7968424076882876
1970-01-01 00:00:00.000000017,1.9119336350455893,-5.985995617441381,-1.8378426284295086,-0.7908496939546354
1970-01-01 00:00:00.000000017,1.479994295145468,-5.943531653862348,-1.4807971759350238,-0.7788593387213179
1970-01-01 00:00:00.000000017,1.1960965043709866,-6.266456405844226,-1.1707784908183314,-0.7654498205231532
1970-01-01 00:00:00.000000017,1.1312729725423059,-6.6261065442041405,-0.7555373164323563,-0.7636010556762628
1970-01-01 00:00:00.000000017,1.1074628704852536,-7.044929360952775,-0.38523812614049713,-0.7582877560211267
1970-01-01 00:00:00.000000017,1.0509296837831823,-7.617048890366836,-0.17595477820696942,-0.7402310457401239
1970-01-01 00:00:00.000000017,0.9891256247972777,-8.108570084685432,-0.1087202911812521,-0.7211298846957442
1970-01-01 00:00:00.000000017,0.9643334215667247,-8.299304610338183,0.005545702114749862,-0.7152370552433183
1970-01-01 00:00:00.000000017,0.9212882169303953,-8.346028719415205,0.13507992330989513,-0.713644931843418
1970-01-01 00:00:00.000000017,0.8444744127280793,-8.452301912162598,0.23278112896223765,-0.7120072028191419
1970-01-01 00:00:00.000000017,0.8840243533798167,-8.5691521288865,0.19698133875900253,-0.7135787641850206
1970-01-01 00:00:00.000000017,1.054145586349181,-8.812385182356604,-0.06186459705268105,-0.7021990447599289
1970-01-01 00:00:00.000000017,1.0662431936741015,-8.821307838887613,-0.07338550332733745,-0.7018554884789896
1970-01-01 00:00:00.000000017,1.0802858393132582,-8.812946265315613,-0.11956379049198113,-0.6979189418793724
1970-01-01 00:00:00.000000017,0.9930169732489871,-8.685367509758505,0.0380369749191552,-0.6990821273887073
1970-01-01 00:00:00.000000017,0.8350975428792403,-8.710274644263798,0.37826396720930183,-0.6955966437155214
1970-01-01 00:00:00.000000017,0.5833693520096116,-8.851188311245284,0.8159497138508697,-0.6911676788115477
1970-01-01 00:00:00.000000017,0.41794354983743476,-8.996903133717781,1.1772849324052885,-0.6910240585551363
1970-01-01 00:00:00.000000017,0.3692033384532483,-9.038691670711689,1.247248089515018,-0.6899772737540657
1970-01-01 00:00:00.000000017,0.35562942674331016,-8.804360065252002,0.9918253947460992,-0.6949504225588821
1970-01-01 00:00:00.000000017,0.5177080874928695,-8.563177669920837,0.6478899898010722,-0.7078317141642851
1970-01-01 00:00:00.000000017,0.7968566982983454,-8.459991631103343,0.44264972139002545,-0.7250604683696629
1970-01-01 00:00:00.000000017,1.0826828308188485,-8.719459218835128,0.19078963876397245,-0.7316637807823281
1970-01-01 00:00:00.000000017,1.473442608529389,-9.1696151989504,0.004462603731976211,-0.734069534258476
1970-01-01 00:00:00.000000017,1.7939222292182415,-9.24200844455494,-0.202156629729904,-0.7200709359258299
1970-01-01 00:00:00.000000017,1.4041153422655364,-9.080811242759951,-0.42889004516623774,-0.6740441744658149
1970-01-01 00:00:00.000000017,0.6429450022150911,-8.8265802278752,-0.014559707669890065,-0.6158068925625393
1970-01-01 00:00:00.000000017,-0.8729381115731001,-7.92379484733616,1.3488380006134872,-0.6396818621884273
1970-01-01 00:00:00.000000017,-0.9020304527225993,-7.855487923407905,1.4435784510272391,-0.6452106597317887
1970-01-01 00:00:00.000000017,-1.0004808238930882,-6.884010493405466,2.6681487683938565,-0.7406373592979997
1970-01-01 00:00:00.000000017,-0.571368085741969,-5.791143392484222,3.818090301662242,-0.8803460352587477
1970-01-01 00:00:00.000000017,0.4873173493165994,-4.914310966174648,4.23283951398056,-0.9661554551943062
1970-01-01 00:00:00.000000017,0.4148256876628955,-4.890736564640162,4.2230927054039675,-0.9513351253964331
1970-01-01 00:00:00.000000017,0.07899497580628342,-5.510734600273164,3.1655052107631056,-0.8450512516728497
1970-01-01 00:00:00.000000017,-0.7384304086169838,-6.248813716728894,2.1458319112062885,-0.7147647437641333
1970-01-01 00:00:00.000000017,-1.6333467526779966,-6.646759461988828,2.3324326812249336,-0.6431205405403779
1970-01-01 00:00:00.000000017,-2.386013398485873,-6.69049922943771,3.3530430093987613,-0.626297323294146
1970-01-01 00:00:00.000000017,-3.023090623565981,-6.86957729821395,4.826871007156811,-0.6397647537863982
1970-01-01 00:00:00.000000017,-3.3443151770560955,-7.337964667804571,6.9225973383695605,-0.6972278744042419
1970-01-01 00:00:00.000000017,-3.135333347236637,-8.097712460641278,8.991013400689512,-0.7776315832599991
1970-01-01 00:00:00.000000017,-2.504758600503577,-9.074694360462043,9.810341889295342,-0.8232474645677121
1970-01-01 00:00:00.000000018,-1.7642538602204716,-9.775647668292416,8.781605213826198,-0.8066623565267799
1970-01-01 00:00:00.000000018,-1.2220824268163013,-9.90483378146292,6.505957785982231,-0.7436772596850144
1970-01-01 00:00:00.000000018,-1.0462625495806792,-9.565762662769046,4.71835677613138,-0.6835218865312689
1970-01-01 00:00:00.000000018,-1.3553477061704897,-9.053296142221338,3.9571371406448757,-0.6439517055794284
1970-01-01 00:00:00.000000018,-1.83831090349095,-8.55700249402455,3.940576704463023,-0.6369434809306543
1970-01-01 00:00:00.000000018,-2.016777921925872,-8.344229292350361,4.329975783947888,-0.661980375457199
1970-01-01 00:00:00.000000018,-1.7790820501587477,-8.459282255379188,4.496675606185805,-0.7086205123578307
1970-01-01 00:00:00.000000018,-0.8505456783768512,-8.857246492974339,4.279410692982109,-0.771628348290996
1970-01-01 00:00:00.000000018,0.5145066761682511,-9.371876205419769,3.6119099538393247,-0.8108480419908328
1970-01-01 00:00:00.000000018,1.3791438636887228,-9.860574807073723,2.5649943069653247,-0.7984325391758109
1970-01-01 00:00:00.000000018,1.6634363370916359,-9.915076424074444,2.3415034957206498,-0.7982633542598183
1970-01-01 00:00:00.000000018,1.673924356735002,-9.880964231723251,2.371124488705327,-0.7891536146262121
1970-01-01 00:00:00.000000018,1.3114356713212458,-9.18459116204143,3.1152243697352384,-0.82251757023581
1970-01-01 00:00:00.000000018,1.1081902377774548,-8.325255596838668,4.017675040702757,-0.8910792351839775
1970-01-01 00:00:00.000000018,1.3579720625494902,-7.829807443595675,4.879504238246267,-0.9691192707245163
1970-01-01 00:00:00.000000018,1.844646340780204,-8.546349452988812,5.262135319202216,-0.9919451471222028
1970-01-01 00:00:00.000000018,2.2821584933677235,-10.070982233863091,5.298794933452714,-0.9627541483358125
1970-01-01 00:00:00.000000018,2.5481750679462647,-11.274778748746876,5.150719996588889,-0.9070247453769238
1970-01-01 00:00:00.000000018,2.183139618364282,-11.647812793526967,4.720876163222926,-0.8266827880655281
1970-01-01 00:00:00.000000018,1.291758152122571,-11.244888324363888,4.034214762547471,-0.6921321802749807
1970-01-01 00:00:00.000000018,-1.1541845652124976,-9.22940411947926,2.687690270377572,-0.6261182345401962
1970-01-01 00:00:00.000000018,-1.0581370656518094,-9.079176616082172,2.6532688231407735,-0.5932138668165361
1970-01-01 00:00:00.000000018,-2.0891609187887417,-7.8247841589379465,2.2841483102249476,-0.5570758137046821
1970-01-01 00:00:00.000000018,-2.9176848048760253,-6.7945530613248355,2.6641781668502635,-0.5523904892924731
1970-01-01 00:00:00.000000018,-3.6028723033736894,-6.081470988849678,3.4453397027153736,-0.5607898892088499
1970-01-01 00:00:00.000000018,-4.175076444924248,-5.630033561257203,4.135123882823803,-0.5638064429873562
1970-01-01 00:00:00.000000018,-4.664426386907295,-5.3276541183470725,4.554786180275001,-0.5602030247020979
1970-01-01 00:00:00.000000018,-4.993624024383908,-4.9577490081791895,4.602981610535787,-0.5527965980347197
1970-01-01 00:00:00.000000018,-5.267089996274839,-4.449847118827991,4.057439287854515,-0.5335831385722306
1970-01-01 00:00:00.000000018,-5.461391110971562,-3.842595276968681,3.293407084743983,-0.5084202202076755
1970-01-01 00:00:00.000000018,-5.791750625514815,-2.61097550824515,2.303801851314333,-0.5045129559537591
1970-01-01 00:00:00.000000018,-5.792046974811192,-2.5492276588609815,2.2637586875325346,-0.5089138037543705
1970-01-01 00:00:00.000000018,-5.716911666615393,-2.0215126975109285,2.2643412955545292,-0.5395011619237239
1970-01-01 00:00:00.000000018,-5.510282687610508,-1.555482092040314,2.3495893743337044,-0.5814844862921134
1970-01-01 00:00:00.000000018,-5.1714060000217685,-1.1955696792084611,2.4555059198245397,-0.6296458595942964
1970-01-01 00:00:00.000000018,-4.704668488824484,-1.2206833544126627,2.453286353104419,-0.6647378305783864
1970-01-01 00:00:00.000000018,-4.250700350851904,-1.6503845614965513,2.3957219424316936,-0.7057792375851879
1970-01-01 00:00:00.000000018,-3.1338453496373315,-2.184687363133354,2.386218535412109,-0.7362891413608781
1970-01-01 00:00:00.000000018,-2.8902753832077877,-2.395052945031363,2.2232998117680527,-0.7329062810857936
1970-01-01 00:00:00.000000018,-2.889301920321088,-2.4159788705913963,2.208639664447397,-0.7364171658335472
1970-01-01 00:00:00.000000018,-2.7501569817960174,-2.669591835030995,2.076755854216924,-0.7335724705146454
1970-01-01 00:00:00.000000018,-2.5862947478801135,-2.8258608562504866,1.7009082184047253,-0.7328997190667162
1970-01-01 00:00:00.000000018,-2.2356240171995174,-2.808422405724288,1.16799492071864,-0.7344910662787777
1970-01-01 00:00:00.000000018,-2.06908587953594,-2.681172546325138,1.1553261929787024,-0.7779875184800613
1970-01-01 00:00:00.000000018,-1.2203048122190834,-2.1764609086359776,1.307587726124828,-0.8643964962644229
1970-01-01 00:00:00.000000018,-0.44558063994661923,-1.7324271177875457,1.2503872814503845,-0.9598730116006716
1970-01-01 00:00:00.000000018,0.9261646174912553,-1.5604001420209606,0.24154000264235675,-1.0135036873469077
1970-01-01 00:00:00.000000018,1.8384126423460718,-1.8411632836665877,-1.2965937769949292,-0.9725131136540197
1970-01-01 00:00:00.000000018,1.6293280402058574,-2.0435380087405206,-2.392101473269054,-0.886879873075231
1970-01-01 00:00:00.000000018,0.8525198014961369,-1.9250344657103542,-2.3808175146523904,-0.8139149727600472
1970-01-01 00:00:00.000000018,-0.45507637239396204,-1.404716089459759,-1.1122949463660576,-0.8111479154666902
1970-01-01 00:00:00.000000018,-0.9925318424437739,-0.9030671158333308,-0.5519132033613379,-0.8628459109708072
1970-01-01 00:00:00.000000018,-0.10057870016602588,-1.0140328108154526,-1.3252983171653885,-0.8966284535203874
1970-01-01 00:00:00.000000018,0.7619425585932708,-1.3004144992578621,-2.0557370831781565,-0.9207180571536513
1970-01-01 00:00:00.000000018,1.5409588392386284,-1.8211269109045498,-2.4035711704025875,-0.9367273313859499
1970-01-01 00:00:00.000000018,2.0704638342464863,-2.6700148343729584,-1.8906872568997042,-0.9209226294749608
1970-01-01 00:00:00.000000018,1.449567769546982,-2.9808667341194766,-1.1065778828435613,-0.8897767813921644
1970-01-01 00:00:00.000000018,0.7500525070878828,-2.59098810857322,-0.639516701596762,-0.8806515898338033
1970-01-01 00:00:00.000000018,0.3873923374391849,-2.6995237528342027,-0.3840846157457386,-0.8615276995972292
1970-01-01 00:00:00.000000018,0.09664685023513317,-3.0072500984530945,0.05813519595899211,-0.8416931797942335
1970-01-01 00:00:00.000000018,-0.2609131433223274,-3.2013032807749386,0.49866053126293713,-0.819262530222664
1970-01-01 00:00:00.000000018,-0.7392786185091836,-3.2000355240364793,0.8836021065741024,-0.8004921777838836
1970-01-01 00:00:00.000000018,-1.1397332819488373,-2.945593363914265,1.1126588505335666,-0.7899637656464629
1970-01-01 00:00:00.000000018,-1.4980988945985518,-2.3417157572232505,1.1474564022576668,-0.7892599502451432
1970-01-01 00:00:00.000000018,-1.8051789796524638,-1.3175292605753348,1.0818668309617039,-0.8068520704341954
1970-01-01 00:00:00.000000018,-1.9860348495262552,-0.31530260753726136,0.9792197044817875,-0.8294742807046566
1970-01-01 00:00:00.000000018,-2.113808399330568,0.5389584244522638,1.0916647574295602,-0.8543539412084918
1970-01-01 00:00:00.000000018,-2.3018504254616667,1.2277904836295217,1.356339161997503,-0.8774717160434649
1970-01-01 00:00:00.000000018,-2.469157283461229,1.7970348542055143,1.715142837163707,-0.9017321713043749
1970-01-01 00:00:00.000000018,-2.59800637073354,2.335432445789454,1.995799307292665,-0.9260150433045732
1970-01-01 00:00:00.000000018,-2.6503329365756,2.6665185845781783,2.078315862206659,-0.9437965954506992
1970-01-01 00:00:00.000000018,-2.5492589028368746,2.762015349743029,1.970174984208816,-0.9550470219426412
1970-01-01 00:00:00.000000018,-2.3478578501721072,2.787922417483806,1.7464352704316004,-0.9624464380003932
1970-01-01 00:00:00.000000018,-2.157633704440431,2.8283096176222347,1.4999970127468762,-0.9645871087654923
1970-01-01 00:00:00.000000018,-2.081662901454886,2.9508601740248346,1.1279069894423492,-0.9569825829595932
1970-01-01 00:00:00.000000018,-2.1229720583888505,3.2620647017121414,0.8706413228604158,-0.9567930104796737
1970-01-01 00:00:00.000000018,-2.1457891166466174,3.7820386112603734,0.786560566846293,-0.9692768609341849
1970-01-01 00:00:00.000000018,-2.215957123417839,4.340553879425959,0.6040700590975281,-0.9761061576352822
1970-01-01 00:00:00.000000018,-2.3412086491324073,4.824268141578458,0.4346830371249299,-0.9742373868804788
1970-01-01 00:00:00.000000018,-2.5746409227182636,5.033550163164672,0.2512361632478127,-0.9594390681654049
1970-01-01 00:00:00.000000018,-2.7535474875444557,4.828745111852032,0.09585221855038503,-0.9334586056010832
1970-01-01 00:00:00.000000018,-2.896062896629823,4.434096197467239,-0.07169792176035263,-0.902414942436804
1970-01-01 00:00:00.000000018,-3.0038763615217094,3.9518962948819722,-0.22165203096134567,-0.8717007650740982
1970-01-01 00:00:00.000000018,-3.0678021744006343,3.3039687272701483,-0.1260419512718074,-0.8466407516396692
1970-01-01 00:00:00.000000018,-3.1052944528662554,2.663448738503715,0.22670874371428112,-0.8294101321052022
1970-01-01 00:00:00.000000018,-3.2312809726819665,2.0833191368947337,0.7213499561219452,-0.8232608906362204
1970-01-01 00:00:00.000000018,-3.1922748372137963,1.6440203501388608,1.3075924640629564,-0.8407815225880171
1970-01-01 00:00:00.000000018,-2.9195379165397557,1.5542488547148363,1.8326651114381358,-0.8788216813799784
1970-01-01 00:00:00.000000018,-2.5991249925995006,1.5601281027955245,1.91379492040047,-0.8979744990376575
1970-01-01 00:00:00.000000018,-2.4881280922049753,1.3079053601182178,1.5784931787284437,-0.8777943532828824
1970-01-01 00:00:00.000000018,-2.555969227588238,0.9678234861670076,1.1700277710381075,-0.8379661738295587
1970-01-01 00:00:00.000000018,-2.8091920318519366,1.008052590326405,0.9469804632358891,-0.8125685161797829
1970-01-01 00:00:00.000000018,-3.038195533167445,1.2946734250090306,0.9435217086940076,-0.8063067906614534
1970-01-01 00:00:00.000000019,-3.233881453051129,1.3579412417404686,0.9379170283253425,-0.7979034748564469
1970-01-01 00:00:00.000000019,-3.3268483727029277,1.0569650714390215,1.0674630255455588,-0.7998620610072754
1970-01-01 00:00:00.000000019,-3.013733315156299,0.41410003523114175,1.117569009522807,-0.8143878242218984
1970-01-01 00:00:00.000000019,-2.3441993745863825,-0.2669155894088747,0.7162487623596043,-0.8292606621946076
1970-01-01 00:00:00.000000019,-1.5302373022995168,-0.8751851154004905,-0.2832165919432339,-0.8300142211622378
1970-01-01 00:00:00.000000019,-0.7210500455766985,-1.3527858027866038,-1.6028000212091364,-0.8208265855680418
1970-01-01 00:00:00.000000019,0.013416870940154285,-1.634077144038167,-2.7264295649037393,-0.8163491733752146
1970-01-01 00:00:00.000000019,0.5620628220734536,-1.6186732755474327,-3.362174420495337,-0.8219772848662522
1970-01-01 00:00:00.000000019,0.790567796302875,-1.5202956582752045,-3.502474151003093,-0.8272318805462737
1970-01-01 00:00:00.000000019,0.745433348482481,-1.4933100429221966,-3.2686282016273465,-0.8272840349223328
1970-01-01 00:00:00.000000019,0.5219557639665258,-1.370908667646923,-2.822320459958095,-0.8312702293795551
1970-01-01 00:00:00.000000019,0.2754826608779154,-0.9982849156848504,-2.411085149381359,-0.8440730904657319
1970-01-01 00:00:00.000000019,0.06795490484637326,-0.4927896456516938,-1.9369841631462628,-0.8687088030028634
1970-01-01 00:00:00.000000019,-0.05833932439704549,-0.09590254826239197,-1.4263542869192716,-0.899931621963127
1970-01-01 00:00:00.000000019,-0.022122077180442457,0.15077098384486837,-1.0772314423963745,-0.9320948487238503
1970-01-01 00:00:00.000000019,0.1863791726891226,0.22242090030714726,-0.853192869549505,-0.9609275053475045
1970-01-01 00:00:00.000000019,0.4401391964393995,0.13941221898676065,-0.6741571409016043,-0.9781289011201122
1970-01-01 00:00:00.000000019,0.5344358210719284,0.003410206811765238,-0.38734874031743594,-0.9868516304191488
1970-01-01 00:00:00.000000019,0.5137576215783096,-0.11993335634368238,-0.10685556894375026,-0.9894618414714922
1970-01-01 00:00:00.000000019,0.4311493269974542,-0.012954646274350343,0.23090456065302015,-0.9999619074943001
1970-01-01 00:00:00.000000019,0.34347330936498627,0.2627685501830346,0.5838893498221053,-1.0168990176277954
1970-01-01 00:00:00.000000019,0.24732443088620026,0.5282621238448204,0.9546645071723582,-1.035754945827647
1970-01-01 00:00:00.000000019,0.20183648914071708,0.6466413988435452,1.3383849490480029,-1.0521519145022205
1970-01-01 00:00:00.000000019,0.17304424373556748,0.4888108111965313,1.7394842833893323,-1.0645915794667038
1970-01-01 00:00:00.000000019,0.27939098149045616,0.1673892438079459,1.9938294428091383,-1.0756819907536135
1970-01-01 00:00:00.000000019,0.5341590450394403,-0.07021450598864466,1.7429973948507826,-1.0797354484875152
1970-01-01 00:00:00.000000019,0.8697306662065136,-0.06624375388075109,1.0640373697825594,-1.0802379667887043
1970-01-01 00:00:00.000000019,1.2225098778969115,0.04142934442483712,0.24580778249482627,-1.0768934615909969
1970-01-01 00:00:00.000000019,1.4946033161350862,0.11229291271204149,-0.49977038306159893,-1.0684286368075526
1970-01-01 00:00:00.000000019,1.6687630282841475,0.19793953606245493,-1.0321478878958699,-1.0632194949508078
1970-01-01 00:00:00.000000019,1.8021288741342523,0.30553861660842047,-1.2947585344927153,-1.0650336712300794
1970-01-01 00:00:00.000000019,1.8754388059895684,0.42491720337433186,-1.3030184523979944,-1.0693755372518883
1970-01-01 00:00:00.000000019,1.8127537395373152,0.4079416337498813,-1.1460239210018184,-1.0673900753195644
1970-01-01 00:00:00.000000019,1.6831593753499834,0.27994766018824824,-0.9491866623353135,-1.0597157440605451
1970-01-01 00:00:00.000000019,1.5263702347921937,0.13122005526735409,-0.5014410981170874,-1.0643601503805917
1970-01-01 00:00:00.000000019,1.5183802246987201,0.12316309829085059,-0.47955372056548157,-1.0678390499548638
1970-01-01 00:00:00.000000019,1.5861745638021632,0.12450871485698543,-0.2661842408795382,-1.0869690821293763
1970-01-01 00:00:00.000000019,1.8077808330242646,0.15388299152233265,0.20789000549245368,-1.1150153788637778
1970-01-01 00:00:00.000000019,1.835629934543625,0.1705004419649419,0.5193827748947103,-1.1282777614737098
1970-01-01 00:00:00.000000019,1.8218478607608248,0.16871219222149167,0.5345281673551224,-1.1294009302359802
1970-01-01 00:00:00.000000019,1.8390329401875274,0.11944897830427534,0.647597973982597,-1.1308271246087458
1970-01-01 00:00:00.000000019,1.8142034971571865,0.0958664870167956,0.4900733951978019,-1.1134751691772986
1970-01-01 00:00:00.000000019,1.5687880958529774,0.0744024771966431,0.18984000240551308,-1.0775461371308737
1970-01-01 00:00:00.000000019,1.1693568593038368,-0.16215830507929327,0.3104479673791569,-1.0554292357281703
1970-01-01 00:00:00.000000019,1.0790199339003923,-0.36143949456165836,1.0334923366076143,-1.0778060077538283
1970-01-01 00:00:00.000000019,1.2599976645217916,-0.41344361537123947,1.5271095537407064,-1.1120685409109121
1970-01-01 00:00:00.000000019,1.5551988922605071,-0.4847441662208848,1.515259568632311,-1.13125064259995
1970-01-01 00:00:00.000000019,1.848770087174424,-0.6214151333462125,1.1881325385780375,-1.128465070041341
1970-01-01 00:00:00.000000019,1.940491659028071,-0.5659503527339259,0.7918330543676639,-1.1097921671232664
1970-01-01 00:00:00.000000019,1.703612249366634,-0.39904994756460005,0.4515543722540328,-1.0757289993817083
1970-01-01 00:00:00.000000019,1.219111648254601,-0.308898908581335,0.29963431942015367,-1.0353914932539068
1970-01-01 00:00:00.000000019,0.6982539048665035,-0.3185111134254313,0.5112817227961383,-1.007131847767759
1970-01-01 00:00:00.000000019,0.28705024116194716,-0.6199582462739194,0.9259151037069694,-0.986225488844199
1970-01-01 00:00:00.000000019,0.046019453569124014,-1.2675604726504641,1.3912271406119552,-0.9681552877056885
1970-01-01 00:00:00.000000019,-0.0048182363729296004,-2.157461917836612,1.8339302902678134,-0.9572546817573983
1970-01-01 00:00:00.000000019,0.20934785757039207,-3.0601679970667544,2.048634008490293,-0.9539778078727773
1970-01-01 00:00:00.000000019,0.5987241877478119,-3.6245137540968195,1.8217481878390718,-0.9575858819386254
1970-01-01 00:00:00.000000019,1.100962317884322,-3.8623683061116343,1.0779021206004071,-0.9615059470343608
1970-01-01 00:00:00.000000019,1.681616810117434,-3.62282351546115,0.06821606382810509,-0.966467692532937
1970-01-01 00:00:00.000000019,2.0124310856565195,-3.0308938597314516,-1.0630956456335976,-0.9601489997469561
1970-01-01 00:00:00.000000019,2.057957526434521,-2.4450605903089837,-2.005548388956193,-0.9413051936558305
1970-01-01 00:00:00.000000019,1.868768378644465,-1.9509303464531427,-2.551899124025636,-0.9202794968024701
1970-01-01 00:00:00.000000019,1.5503193903671735,-1.4840799621955099,-2.6497491580055734,-0.9102624182804716
1970-01-01 00:00:00.000000019,1.2398085872046574,-1.123192193735362,-2.495291703034577,-0.9107693576799727
1970-01-01 00:00:00.000000019,1.0481935480385336,-0.8333603878659398,-2.214377943134725,-0.921761358285489
1970-01-01 00:00:00.000000019,0.9577185594910197,-0.3411258604015742,-2.0065003433595963,-0.9403748977848274
1970-01-01 00:00:00.000000019,0.8509061365360931,-0.10641424849546877,-1.9405077330932614,-0.9477372874237319
1970-01-01 00:00:00.000000019,0.850476124592916,-0.07533585685951194,-1.930485458041896,-0.9418088705393665
1970-01-01 00:00:00.000000019,0.628527953908389,0.3537200063491958,-1.9012257409774023,-0.9497283240786228
1970-01-01 00:00:00.000000019,0.6241333640282021,0.38120328751754945,-1.8971822891182204,-0.94542862035369
1970-01-01 00:00:00.000000019,0.4785128979913782,0.5800073966898379,-1.9314574251493588,-0.9356057854058064
1970-01-01 00:00:00.000000019,0.20448182602426113,0.6749353332584056,-2.1062292797641526,-0.9199886754527772
1970-01-01 00:00:00.000000019,0.13881623517739017,0.6352620405302318,-2.194717689239599,-0.9120730125760392
1970-01-01 00:00:00.000000019,0.12029110743013768,0.7647184423798954,-2.1135696483828785,-0.9184039827781578
1970-01-01 00:00:00.000000019,0.10210771427544847,0.9672795366514022,-1.91651918417366,-0.9296908895097572
1970-01-01 00:00:00.000000019,0.018986332945938753,1.093992557397311,-1.6402848141165833,-0.9410865237959186
1970-01-01 00:00:00.000000019,0.0015706137314394977,1.103697679238176,-1.3379926308119185,-0.946467086817841
1970-01-01 00:00:00.000000019,-0.14325208478801274,1.1084012725852734,-1.3079597272533827,-0.9359683297339414
1970-01-01 00:00:00.000000019,-0.31747550166146266,0.9768823097126788,-1.073174375880947,-0.9209321868500845
1970-01-01 00:00:00.000000019,-0.6321583329321353,0.5505630020451153,-0.8846065091441158,-0.8960588028302812
1970-01-01 00:00:00.000000019,-0.7419229462232456,0.2841351564208451,-1.0403849600948116,-0.8768390786521345
1970-01-01 00:00:00.000000019,-0.7227309267847848,0.2733434659836399,-1.0535301687499135,-0.8763390761114362
1970-01-01 00:00:00.000000019,-0.7047273693836942,0.26215435009132537,-1.2389136711990494,-0.8683000514028079
1970-01-01 00:00:00.000000019,-0.748044948467218,0.25699229612073515,-1.4449706439858576,-0.8655940021258197
1970-01-01 00:00:00.000000019,-0.5744272994999169,0.8005930472104793,-1.776338314377184,-0.8787826039524127
1970-01-01 00:00:00.000000019,-0.5843177439249805,0.8457470640182514,-1.7794367587421043,-0.8748092191332808
1970-01-01 00:00:00.000000019,-0.7359668295492546,1.40579419395102,-1.6472376589909696,-0.8698497999774824
1970-01-01 00:00:00.000000019,-1.3747856793704964,1.5136503987221845,-0.6680258079511914,-0.8331811541958634
1970-01-01 00:00:00.000000019,-2.795969999005034,0.8044543297474954,0.45222860250834895,-0.7843536051112389
1970-01-01 00:00:00.000000019,-3.1187971112132846,0.5141787213865208,1.1857602926029231,-0.7868039668812727
1970-01-01 00:00:00.000000019,-3.1319723724890216,0.49073671109435046,1.225664861176439,-0.7969879372772386
1970-01-01 00:00:00.000000019,-2.9004975136848223,0.3726562269807153,1.7941347079806171,-0.8449265907844137
1970-01-01 00:00:00.000000019,-2.2958727371912997,0.4464755106857519,1.5914663476010387,-0.890535920601107
1970-01-01 00:00:00.000000019,-1.5802088640125977,0.7035068980163186,0.9467810137291898,-0.9282189289637022
1970-01-01 00:00:00.000000019,-0.9079628549360637,1.0321079995879827,0.205518286920232,-0.9374778975856977
1970-01-01 00:00:00.000000019,-0.9270114244179531,1.378583200427749,-0.6826131573144094,-0.91851019628162
1970-01-01 00:00:00.000000020,-0.8903369215334687,1.3997499128415452,-0.6759620335290063,-0.9021859011377296
1970-01-01 00:00:00.000000020,-1.382953519184891,1.2129759837504304,-0.020050210512272654,-0.8921975969806115
1970-01-01 00:00:00.000000020,-1.6422482149068132,0.8761280905859868,1.160132791863507,-0.911622775172926
1970-01-01 00:00:00.000000020,-1.7017109618652337,0.47316139257577206,2.374314521331498,-0.9409384021838484
1970-01-01 00:00:00.000000020,-1.6927314337318449,-0.08867537491379551,3.4584544002132955,-0.9816189676646512
1970-01-01 00:00:00.000000020,-1.139237896733212,-1.3112057880784473,4.810145011597292,-1.0065829975919294
1970-01-01 00:00:00.000000020,-1.178361638033192,-1.3891242120437373,4.840217604074155,-1.0213652761568928
1970-01-01 00:00:00.000000020,-0.717082218171049,-1.9108636774331575,4.66001455807418,-1.0359951989748937
1970-01-01 00:00:00.000000020,-0.10330226888814242,-2.0614238840445624,4.122946658535633,-1.0577339015583003
1970-01-01 00:00:00.000000020,0.5392989235519914,-1.8077956641734214,3.3493307499845173,-1.0830346155026203
1970-01-01 00:00:00.000000020,1.0799419897431366,-1.421317665034257,2.6367249746499013,-1.106459333408874
1970-01-01 00:00:00.000000020,1.484818906868008,-1.1440724189336118,2.0159524383806877,-1.117658513719089
1970-01-01 00:00:00.000000020,1.7167780428858335,-1.0128191906915023,1.4998093171104718,-1.11450208152474
1970-01-01 00:00:00.000000020,1.7854643845921985,-1.0773152573647402,1.1036295959742826,-1.0991672150766711
1970-01-01 00:00:00.000000020,1.7760484046976994,-1.3360328453336798,0.7868496870179208,-1.0743528127226254
1970-01-01 00:00:00.000000020,1.707617536075419,-1.6354415969098972,0.5014419232442805,-1.048228758699509
1970-01-01 00:00:00.000000020,1.6740425246694606,-1.871458642853766,0.20151386895741472,-1.0283920437843497
1970-01-01 00:00:00.000000020,1.7237995478949444,-1.9444365052580634,-0.11106220651037355,-1.0188511685942299
1970-01-01 00:00:00.000000020,1.8060563802103848,-1.9228209513712826,-0.4946873969948385,-1.0250834605171906
1970-01-01 00:00:00.000000020,2.2796198756706394,-1.828644734768851,-1.3524130653525466,-1.015317818372207
1970-01-01 00:00:00.000000020,2.283174404059271,-1.8341682261513923,-1.4040467062876199,-1.0220789742960956
1970-01-01 00:00:00.000000020,2.531340739957743,-1.8896761340368435,-1.7526267671312847,-1.0265932503404709
1970-01-01 00:00:00.000000020,2.799815675325396,-2.0248271290688358,-2.0046157424825437,-1.033678521122086
1970-01-01 00:00:00.000000020,3.1056535704386183,-2.1883084977311946,-2.279650426806858,-1.0403789668653078
1970-01-01 00:00:00.000000020,3.4189972069087156,-2.2931894237294417,-2.7796328953586498,-1.040240698297261
1970-01-01 00:00:00.000000020,3.7028227518147414,-2.2190490016256224,-3.5116808065385823,-1.0373629458226319
1970-01-01 00:00:00.000000020,3.985944265465446,-1.9504593568690218,-4.115074617889728,-1.047884575620445
1970-01-01 00:00:00.000000020,4.308193384984244,-1.5126345337674614,-4.414614776413561,-1.074801495858876
1970-01-01 00:00:00.000000020,4.558303696379033,-1.026226779529061,-4.4650780699530195,-1.1073095372458261
1970-01-01 00:00:00.000000020,4.718272005549626,-0.5175271983163778,-4.214531797117198,-1.144594694577631
1970-01-01 00:00:00.000000020,4.773620230520194,-0.08176902895459814,-3.71204190615268,-1.1815086702916349
1970-01-01 00:00:00.000000020,4.745955065815283,0.1040191074788182,-2.966343978068646,-1.2118837123599469
1970-01-01 00:00:00.000000020,4.635121180815737,-0.05284740543604327,-2.0723778380194418,-1.232483899745664
1970-01-01 00:00:00.000000020,4.537690778310749,-0.4657962383265479,-1.1727548325309363,-1.2500787648475307
1970-01-01 00:00:00.000000020,4.593566783700217,-0.7810233030749265,-0.3493749140100165,-1.2770150248318486
1970-01-01 00:00:00.000000020,4.7320491394051905,-0.9536302635078,0.40783483544905896,-1.311124224423788
1970-01-01 00:00:00.000000020,4.905439346758946,-1.1864249779541356,1.141484304816164,-1.3427702009288622
1970-01-01 00:00:00.000000020,5.065719024652345,-1.4963966439091605,1.7456888919319584,-1.36022370331092
1970-01-01 00:00:00.000000020,5.068789316982729,-1.9427075212461287,2.2656926636936516,-1.3596929021191444
1970-01-01 00:00:00.000000020,4.974608631773599,-2.4500162406517276,2.684703216881218,-1.3447944648212733
1970-01-01 00:00:00.000000020,4.76359287339352,-2.829636959775014,2.849388208674546,-1.321663631479895
1970-01-01 00:00:00.000000020,4.570403657773464,-2.9180975246871945,3.0308625659180173,-1.3080394365493273
1970-01-01 00:00:00.000000020,4.33269514462173,-2.7511717997023686,3.191725478188664,-1.287576748275175
1970-01-01 00:00:00.000000020,3.739124902547413,-2.6387440898965857,3.1205223225561443,-1.2317357895001977
1970-01-01 00:00:00.000000020,2.8079131132275323,-2.947838168571047,3.359457689761525,-1.1722091092958906
1970-01-01 00:00:00.000000020,2.2077681852552704,-3.447794751144251,4.339927011382504,-1.1628184511113973
1970-01-01 00:00:00.000000020,2.1136216638587024,-3.841916454082869,5.1192752758069,-1.1731854124710375
1970-01-01 00:00:00.000000020,2.140959672179861,-4.175194763801485,4.739260180695434,-1.1544329403150577
1970-01-01 00:00:00.000000020,2.3166613014531157,-4.271088718345412,3.7080030531816757,-1.1292505258237076
1970-01-01 00:00:00.000000020,2.5918889029944947,-3.9279866180643976,2.843036268669985,-1.1191172434648753
1970-01-01 00:00:00.000000020,2.598742101542159,-3.2979865577159906,2.040539612585258,-1.100351636050587
1970-01-01 00:00:00.000000020,2.3039405294077513,-2.572766390498774,1.296417320900566,-1.0454928801324024
1970-01-01 00:00:00.000000020,1.1245041353604597,-1.810103270713323,1.0693307667676248,-1.0213534124866874
1970-01-01 00:00:00.000000020,1.1684156820228042,-1.7692280178100892,1.1063072827761615,-1.0002553560573024
1970-01-01 00:00:00.000000020,0.5035744575474435,-1.9502391616800632,1.8097799166677488,-0.9767271525814514
1970-01-01 00:00:00.000000020,0.015436452881215715,-2.4854048347167215,2.6595749800879416,-0.9695532508069904
1970-01-01 00:00:00.000000020,-0.007789182310706444,-3.443427210536646,4.211008710841405,-0.9889464540725467
1970-01-01 00:00:00.000000020,-0.038380471288570125,-3.504664457139764,4.270125605262934,-0.9995356165188399
1970-01-01 00:00:00.000000020,0.249501329265561,-3.9554667426556485,4.559429020839146,-1.0214688023548095
1970-01-01 00:00:00.000000020,0.7034255736854069,-4.2575172157831,4.619878336173658,-1.0447016682813652
1970-01-01 00:00:00.000000020,1.1078552532905463,-4.368557804402907,4.306226334934763,-1.0565359621569232
1970-01-01 00:00:00.000000020,1.4356905669856916,-4.268865114444194,3.5729110957161168,-1.0570909213043946
1970-01-01 00:00:00.000000020,1.750411809753268,-3.9577428488838304,2.595430686106882,-1.0518614763552467
1970-01-01 00:00:00.000000020,1.970409148840778,-3.5335444859573917,1.56036474863154,-1.036521620825414
1970-01-01 00:00:00.000000020,1.9724161688291482,-3.0148343124470984,0.7175414864633481,-1.0010983264122717
1970-01-01 00:00:00.000000020,1.3324468033194963,-2.110510130361642,0.06972720563148958,-0.9866613725532891
1970-01-01 00:00:00.000000020,1.3773555912239175,-2.036581110057253,0.09745116284685751,-0.9564006352665418
1970-01-01 00:00:00.000000020,0.40192711339511217,-1.743427719042089,0.6952063133757566,-0.9524036575012487
1970-01-01 00:00:00.000000020,0.4167679927525654,-1.7178972610990306,0.7411893412786771,-0.9404280742870549
1970-01-01 00:00:00.000000020,0.013098139560638877,-1.6270681924259451,1.0796360393543407,-0.9264242100434221
1970-01-01 00:00:00.000000020,-0.3794254036673668,-1.553127561623226,1.318800094066766,-0.9132092241070776
1970-01-01 00:00:00.000000020,-0.6472191857631174,-1.4815572524951741,1.3537852193543343,-0.9044061219416691
1970-01-01 00:00:00.000000020,-0.7159417339824151,-1.344257330574493,1.088061753672232,-0.9010951431460257
1970-01-01 00:00:00.000000020,-0.5828851215808418,-1.0195082486277227,0.06776455418439976,-0.8812803186125481
1970-01-01 00:00:00.000000020,-0.5558452502306491,-0.9042197672413805,-0.48017317556080075,-0.8652278442601352
1970-01-01 00:00:00.000000020,-0.5766483220734387,-0.7765398262559641,-0.6645546536924158,-0.861985835777448
1970-01-01 00:00:00.000000020,-0.5719489509983495,-0.7640331304673549,-0.6644800629320875,-0.8600673105286297
1970-01-01 00:00:00.000000020,-0.6390691813172555,-0.6019533326063049,-0.5260056817176513,-0.8594301847392396
1970-01-01 00:00:00.000000020,-0.8972134504444518,-0.512378680727813,-0.061345174269380576,-0.868219508255711
1970-01-01 00:00:00.000000020,-0.9568350943664172,-0.5282629551083936,0.3236940683806276,-0.8784884462287318
1970-01-01 00:00:00.000000020,-0.9932383054528313,-0.5338518399745293,0.5179542877705698,-0.884099272695782
1970-01-01 00:00:00.000000020,-0.9926765005508629,-0.5216483551073556,0.525160070521294,-0.8781035474607924
1970-01-01 00:00:00.000000020,-1.1799075227272229,-0.34782960324902845,0.3641917609794481,-0.8718723640705284
1970-01-01 00:00:00.000000020,-1.1697183474272053,-0.3248870091109975,0.35288139942926,-0.8675863589380307
1970-01-01 00:00:00.000000020,-1.2925949217783415,0.023975119426794755,0.11170078578529355,-0.8548645650815926
1970-01-01 00:00:00.000000020,-1.621438136068299,0.588993515918355,-0.22018190094246456,-0.8469786159811082
1970-01-01 00:00:00.000000020,-1.7312197435028058,0.7980249297924658,-0.3874369918081437,-0.8443829469846273
1970-01-01 00:00:00.000000020,-1.723666779350396,0.8189980566247297,-0.3792984097309188,-0.840042484457285
1970-01-01 00:00:00.000000020,-1.8956393674727043,1.0452736146887,-0.12326905531322163,-0.8564131177486612
1970-01-01 00:00:00.000000020,-1.7593189029498801,1.064022711174459,-0.03833291252188098,-0.8724785235523457
1970-01-01 00:00:00.000000020,-1.5715529696075503,1.0056789895645142,-0.08938018023471751,-0.8781676156218726
1970-01-01 00:00:00.000000020,-1.5000933864543708,0.805794844713407,-0.15844711616949625,-0.8715622605922311
1970-01-01 00:00:00.000000020,-1.4898422577839716,0.7866316414108105,-0.15284213262831114,-0.8681635966550088
1970-01-01 00:00:00.000000020,-1.5655770334575005,0.3934660942644933,-0.008083843908887778,-0.8586482282069954
1970-01-01 00:00:00.000000020,-1.5319377731395394,0.016172119282154146,0.6137975626399134,-0.886119349382301
1970-01-01 00:00:00.000000020,-1.0926874464631782,-0.08759376070928207,1.1998431481236154,-0.9473490921780885
1970-01-01 00:00:00.000000020,-0.3742518001306703,0.06675739020958192,0.9799284853400996,-0.9943450907836985
1970-01-01 00:00:00.000000020,0.2302449699890577,0.29837725099237833,-0.08344008931654823,-0.9916344043573883
1970-01-01 00:00:00.000000020,0.3819940683416898,0.5749701822338185,-1.1472691012377085,-0.9442420312165959
1970-01-01 00:00:00.000000020,-0.25084662231264643,0.8404241651292763,-1.2782191482930596,-0.8882939426821554
1970-01-01 00:00:00.000000021,-1.2665053898337904,1.023041338264287,0.04191115933276246,-0.8831353591939441
1970-01-01 00:00:00.000000021,-1.9092360647322346,1.0377676518434868,2.665896134114708,-0.950285071717244
1970-01-01 00:00:00.000000021,-2.119316715039911,0.7215111959786527,5.662110396233185,-1.0497356427028204
1970-01-01 00:00:00.000000021,-1.9564772929401364,-0.04887341889089286,7.969176505710267,-1.134485339729925
1970-01-01 00:00:00.000000021,-1.4255000721749327,-1.1372531240583916,8.909495639918356,-1.1775281480307735
1970-01-01 00:00:00.000000021,-0.6855528732553305,-2.173299508286727,8.320867194484277,-1.1751132347020712
1970-01-01 00:00:00.000000021,0.11825883074398816,-2.88667319069909,6.659079020141294,-1.1453687799410395
1970-01-01 00:00:00.000000021,0.893072942170959,-3.1285078181725785,4.612635171746813,-1.1114750012898873
1970-01-01 00:00:00.000000021,1.5190823288546522,-3.048230276650573,2.6668782403326032,-1.0796486315759892
1970-01-01 00:00:00.000000021,1.930052494363059,-2.935575496069117,1.13121147255723,-1.050903895938084
1970-01-01 00:00:00.000000021,2.185768910686684,-2.9517546316157985,0.38638500431238504,-1.0342030731524956
1970-01-01 00:00:00.000000021,2.2590275370023236,-3.1665758103243498,0.39640739111025075,-1.0273553319462123
1970-01-01 00:00:00.000000021,2.21758404186678,-3.3667044194328466,0.7457023833731766,-1.0253030616864436
1970-01-01 00:00:00.000000021,2.0600321815010316,-3.3531323887408218,1.1188680855872144,-1.0245162079660743
1970-01-01 00:00:00.000000021,1.81663266647115,-3.299985739716844,1.3316202643341137,-1.0187502165450693
1970-01-01 00:00:00.000000021,1.6367820268253916,-3.2801835822452214,1.3011780528025991,-1.015440637382052
1970-01-01 00:00:00.000000021,1.72181446799574,-2.9008206529076768,0.9143374893325138,-1.0339966647738852
1970-01-01 00:00:00.000000021,2.1391533324633465,-2.0764860741519984,-0.02357786871468244,-1.0619813394028024
1970-01-01 00:00:00.000000021,2.5785706661124026,-1.6086246328900307,-0.6202612283226965,-1.0838207827955022
1970-01-01 00:00:00.000000021,2.8391906087794685,-1.6263243829952374,-0.6184206651145026,-1.0961251651921295
1970-01-01 00:00:00.000000021,2.916859754152036,-1.8869535583517718,-0.4119165801392345,-1.0963785277623628
1970-01-01 00:00:00.000000021,2.891714908670718,-2.408095695933208,-0.09000100207544298,-1.0927690878222807
1970-01-01 00:00:00.000000021,2.9929521638228493,-3.0878289451822254,0.5256908107648586,-1.1145855567765968
1970-01-01 00:00:00.000000021,3.5661661451372604,-3.830891206220756,0.7910475104927669,-1.1186463273797227
1970-01-01 00:00:00.000000021,3.5557756317727125,-3.8827818689759566,0.7960437263420889,-1.1254135286737075
1970-01-01 00:00:00.000000021,3.7985334914147293,-4.362061804250248,0.8442905526234945,-1.1253614949305342
1970-01-01 00:00:00.000000021,3.9891045178943374,-4.998381583028913,0.8943064572440393,-1.114841571698955
1970-01-01 00:00:00.000000021,4.107693969479191,-5.716359147640636,0.9298655828553017,-1.0974791510514925
1970-01-01 00:00:00.000000021,4.20604771948814,-6.4135464301377585,1.1418332529796342,-1.0873265335608457
1970-01-01 00:00:00.000000021,4.3220300308967845,-7.030356426412915,1.5686702872607454,-1.0912992154254124
1970-01-01 00:00:00.000000021,4.511166511595151,-7.625865895096626,1.9924756909748382,-1.0975410950109399
1970-01-01 00:00:00.000000021,4.660390809744438,-8.177396718989124,2.4187993912667674,-1.1016843276630797
1970-01-01 00:00:00.000000021,4.74949457982322,-8.864241783427449,2.864711607410096,-1.0983320177099671
1970-01-01 00:00:00.000000021,4.811399384141436,-9.444099663314686,3.1414457790431474,-1.0902483802687049
1970-01-01 00:00:00.000000021,4.833486506625521,-9.62446549984247,3.206308052981585,-1.086390623318373
1970-01-01 00:00:00.000000021,4.8319152716889615,-9.505615124296721,3.089725359594863,-1.0814447411921373
1970-01-01 00:00:00.000000021,4.706683733845752,-9.23587835652835,3.007541155720401,-1.0713528892286606
1970-01-01 00:00:00.000000021,4.3846485104062625,-9.071458347753259,3.155527999071363,-1.053441113766284
1970-01-01 00:00:00.000000021,3.926868037669944,-9.101351947181636,3.5338599048344066,-1.0294120968329838
1970-01-01 00:00:00.000000021,3.4061900741336455,-9.178890253527547,3.994843404080976,-1.004531528100909
1970-01-01 00:00:00.000000021,2.8914824774493058,-9.119590724026654,4.436006179387425,-0.9838449878560875
1970-01-01 00:00:00.000000021,2.379790944777885,-9.196215405460265,4.881167329111375,-0.9554392542815819
1970-01-01 00:00:00.000000021,1.792078876673607,-9.526842732579498,5.256894197440722,-0.9116323869256117
1970-01-01 00:00:00.000000021,1.1861476377295466,-9.98189278184747,5.601621594126916,-0.861989600371158
1970-01-01 00:00:00.000000021,0.6057766147847894,-10.434598912879652,5.786552308408637,-0.8124233586730611
1970-01-01 00:00:00.000000021,0.16061451431697,-10.696356699945463,5.691211898863946,-0.7675199178438475
1970-01-01 00:00:00.000000021,-0.2092338192735112,-10.688316009529707,5.554884937036102,-0.7318984469926294
1970-01-01 00:00:00.000000021,-0.6233071555205041,-10.83604605163707,5.34281090683058,-0.6916086452373096
1970-01-01 00:00:00.000000021,-0.9112996721425062,-11.104378002377922,5.231558929682731,-0.6609855921215386
1970-01-01 00:00:00.000000021,-1.0529532417713738,-11.230217591297578,5.411222615872561,-0.6530599207748367
1970-01-01 00:00:00.000000021,-1.1531032390134999,-11.289608339641465,5.693340321891809,-0.6497436457837227
1970-01-01 00:00:00.000000021,-1.3451927451307262,-11.583515226699673,6.064658427528612,-0.634326163063319
1970-01-01 00:00:00.000000021,-1.627498016689095,-12.091176505303999,6.176563497326521,-0.6029364809800599
1970-01-01 00:00:00.000000021,-1.7916283530718096,-12.564926275226618,6.015880141569101,-0.5816346821167586
1970-01-01 00:00:00.000000021,-1.6003061456399619,-12.434448240300545,5.979585010553259,-0.6238152506582799
1970-01-01 00:00:00.000000021,-0.7907464184693545,-11.384907257402894,5.713184098854092,-0.7311081301715047
1970-01-01 00:00:00.000000021,0.43196921343835604,-9.719656203328771,5.514777164755911,-0.8777127577235566
1970-01-01 00:00:00.000000021,1.6130007406505664,-8.333432074681383,5.648177507348017,-1.004758170572021
1970-01-01 00:00:00.000000021,2.289615323198187,-8.07040648712521,5.948618859583926,-1.0381545217776387
1970-01-01 00:00:00.000000021,1.9173404202226836,-8.770529483597283,6.761545295519946,-0.9784003233222724
1970-01-01 00:00:00.000000021,0.5895199915078798,-9.964413669670485,7.632580019785541,-0.8591783075927701
1970-01-01 00:00:00.000000021,-0.9059837220581213,-11.026115285533805,8.06063955066172,-0.7268896697104429
1970-01-01 00:00:00.000000021,-2.244582133878308,-11.583630300261138,7.911756587561916,-0.6097740351081519
1970-01-01 00:00:00.000000021,-3.266285510837479,-11.524418214040118,7.264272920986801,-0.5295246707329371
1970-01-01 00:00:00.000000021,-3.7443913619162426,-10.87600831536198,6.173265442541688,-0.48773891122109797
1970-01-01 00:00:00.000000021,-3.9049959695961522,-9.717675416286882,5.074024912085173,-0.479295047790371
1970-01-01 00:00:00.000000021,-4.007290122953781,-8.536459568926183,4.290175539215822,-0.48845902366113325
1970-01-01 00:00:00.000000021,-4.0404821052882625,-7.549248226333599,3.4781993651285465,-0.4916138726737584
1970-01-01 00:00:00.000000021,-4.102287247012628,-6.748674628260887,2.665775233075212,-0.4905476247100238
1970-01-01 00:00:00.000000021,-4.061652471595907,-6.1523534752143325,2.010345189397957,-0.49055873300103614
1970-01-01 00:00:00.000000021,-4.0270819811847325,-6.086170674123967,1.3922434090717206,-0.4758396379158467
1970-01-01 00:00:00.000000021,-3.904800114630516,-6.275903724916011,0.978577856755268,-0.4587604895099173
1970-01-01 00:00:00.000000021,-3.867461663152295,-6.391578034061741,0.5010105878669774,-0.4390417143054727
1970-01-01 00:00:00.000000021,-3.8380394620863445,-6.581813480489692,0.26359772991435537,-0.430476082476698
1970-01-01 00:00:00.000000021,-3.6771718669640334,-6.581289101262217,0.10222495771809065,-0.44771567466777273
1970-01-01 00:00:00.000000021,-3.2028484786204388,-5.919792417386798,-0.560324035322429,-0.46464729734960075
1970-01-01 00:00:00.000000021,-3.224375642012983,-5.8750940388737725,-0.6029617821157254,-0.4697492244636875
1970-01-01 00:00:00.000000021,-3.0964403915170857,-5.226367711188113,-0.9882651607854334,-0.4872028421531721
1970-01-01 00:00:00.000000021,-3.022093027445491,-4.557203296294269,-1.4005666921802167,-0.5050966467610244
1970-01-01 00:00:00.000000021,-2.89234551809219,-3.9454264695302768,-1.7043407088535272,-0.5277118011676802
1970-01-01 00:00:00.000000021,-2.7442323692782833,-3.2833682479451562,-1.9306893137868941,-0.5571788516881914
1970-01-01 00:00:00.000000021,-2.5646651184221283,-2.285650126109551,-2.004404664513187,-0.5962510955340372
1970-01-01 00:00:00.000000021,-2.6022671337469747,-2.2324232953386023,-1.9914747663950192,-0.5948388660566837
1970-01-01 00:00:00.000000021,-2.7190794564624277,-1.879862366032361,-1.6554975461521066,-0.6044818059961434
1970-01-01 00:00:00.000000021,-3.0240088957964963,-1.6567906579746114,-1.0898890501513785,-0.6090999662787945
1970-01-01 00:00:00.000000021,-3.3870589644465974,-1.6203329339303283,-0.5383543425829639,-0.6080648181792385
1970-01-01 00:00:00.000000021,-3.652867295047788,-1.6488769123313223,-0.0023565537755642074,-0.6153284787476085
1970-01-01 00:00:00.000000021,-3.7022100297158884,-1.520982968633666,0.10308812102451481,-0.6274433776244117
1970-01-01 00:00:00.000000021,-3.5755617325350837,-0.9907732282622077,-0.28737416604709526,-0.6487527045960311
1970-01-01 00:00:00.000000021,-3.2853848676979363,-0.26774089358427916,-0.900037303434363,-0.676726345606699
1970-01-01 00:00:00.000000021,-2.94764219808989,0.4342374930734985,-1.5911646350939197,-0.7003902351980551
1970-01-01 00:00:00.000000021,-2.676453864031087,1.0107397672295626,-2.29282128344074,-0.7152234440800502
1970-01-01 00:00:00.000000021,-2.4334811355607155,1.2484962622417894,-2.9222499776890563,-0.717882714846303
1970-01-01 00:00:00.000000021,-2.2306140852447682,1.3929276621996447,-3.41365976526296,-0.7233415078692329
1970-01-01 00:00:00.000000021,-1.9542285216044841,1.6816343993669476,-3.675479902192611,-0.7412542154046573
1970-01-01 00:00:00.000000022,-1.7760425022710602,1.795830378601984,-3.5396683360434014,-0.7558930501623757
1970-01-01 00:00:00.000000022,-1.8577931912427017,1.9222191217689353,-2.2791318720966767,-0.8014248400970148
1970-01-01 00:00:00.000000022,-1.9054727361475026,1.9324823913443472,-2.1684957283817687,-0.8041811502719476
1970-01-01 00:00:00.000000022,-1.9959108550405031,2.0632273660310974,-0.4618308727084605,-0.8530442957429439
1970-01-01 00:00:00.000000022,-2.4130918880292054,2.114005946005309,1.2884116197633526,-0.8886653802775477
1970-01-01 00:00:00.000000022,-2.8627125512417164,2.002880922332388,2.486892352539174,-0.9029732255306715
1970-01-01 00:00:00.000000022,-3.144221463276449,2.0436449917919344,2.937547933617104,-0.9117456742278476
1970-01-01 00:00:00.000000022,-3.1495552408161953,2.7012044031383273,2.8525724022111554,-0.9384894315326587
1970-01-01 00:00:00.000000022,-3.0025216596842603,3.3520843662592763,2.295117399400452,-0.9642585038375648
1970-01-01 00:00:00.000000022,-2.5805905833477514,3.654904504652291,1.7154284003912048,-0.9966591532914365
1970-01-01 00:00:00.000000022,-1.8781496035006622,3.7452708242562225,1.186382976065725,-1.0306050701275764
1970-01-01 00:00:00.000000022,-1.2340926040808053,3.506214272878627,0.6057184759962813,-1.0408712175402206
1970-01-01 00:00:00.000000022,-0.7734603478466667,2.73602312287392,-0.018475544758930984,-1.0094092240511607
1970-01-01 00:00:00.000000022,-0.6616778894577278,1.6394101614766485,-0.5815580677279859,-0.940177715081689
1970-01-01 00:00:00.000000022,-0.9370493695254811,0.7969983566793238,-0.9146451642129222,-0.856441963470677
1970-01-01 00:00:00.000000022,-1.6815747410169595,0.2868325873182754,-0.9565742475676421,-0.7764681801732872
1970-01-01 00:00:00.000000022,-2.4901340115896,0.32956290788495163,-0.7807781131426459,-0.7261174942373319
1970-01-01 00:00:00.000000022,-3.2112644061460185,0.7326348083446363,-0.5031659245145006,-0.7074352814653532
1970-01-01 00:00:00.000000022,-3.6504279253375547,1.1119181883015732,0.10563942213239524,-0.7142938344459469
1970-01-01 00:00:00.000000022,-4.002478988092726,1.3895131383554782,0.7057871846469417,-0.7281413860173875
1970-01-01 00:00:00.000000022,-4.153062109131832,1.6165543870569208,0.912232403095437,-0.7339057482630529
1970-01-01 00:00:00.000000022,-4.276884044222119,1.622390200716784,0.7894225874653231,-0.7223789285496188
1970-01-01 00:00:00.000000022,-4.355383598392533,1.4951472493141065,0.7093436754861748,-0.7131591055587752
1970-01-01 00:00:00.000000022,-4.308524478053283,1.5740092735597553,0.44028039345704806,-0.7054931787416456
1970-01-01 00:00:00.000000022,-4.364583801685442,1.638791345335627,0.31391515639053497,-0.6994685119292214
1970-01-01 00:00:00.000000022,-4.409747354511598,1.6522638841021056,0.514335662687325,-0.7012498097473429
1970-01-01 00:00:00.000000022,-4.540825353340482,1.987110554611307,0.8379247653572692,-0.7194993220590065
1970-01-01 00:00:00.000000022,-4.558853840246921,2.0055778947252185,0.8654898062811793,-0.7193750815235963
1970-01-01 00:00:00.000000022,-4.62734957738492,2.128981804820577,1.245789206085521,-0.7381386772271772
1970-01-01 00:00:00.000000022,-4.5410325235218165,1.945181068202469,1.2390689908001018,-0.7421189708380614
1970-01-01 00:00:00.000000022,-4.343535709369294,1.9484698919196726,1.0166364007907083,-0.7415106801270016
1970-01-01 00:00:00.000000022,-4.349230024255025,1.9443358925878909,0.990943709508171,-0.7478395136318661
1970-01-01 00:00:00.000000022,-4.138289336792496,1.9985199353699477,0.688764483346616,-0.7502354605166925
1970-01-01 00:00:00.000000022,-4.04144692901166,2.023015054796445,0.6130100332462491,-0.7512052279230921
1970-01-01 00:00:00.000000022,-4.064512398212106,1.9017470770299845,0.8913669471978973,-0.753445160510982
1970-01-01 00:00:00.000000022,-4.141207043098007,1.658105447419932,1.2878469635038845,-0.7578646834665734
1970-01-01 00:00:00.000000022,-4.100654029315828,1.3133266583516374,1.5767277224504284,-0.7626746380430769
1970-01-01 00:00:00.000000022,-3.956601635590618,1.121838405926744,1.3539256205101777,-0.7642264658439453
1970-01-01 00:00:00.000000022,-3.660019113089562,1.071227113583246,0.8241808432372999,-0.7765231278305555
1970-01-01 00:00:00.000000022,-3.053304700574116,1.2068546761472332,0.05451816222318981,-0.7963369702547736
1970-01-01 00:00:00.000000022,-2.4846746685149723,1.4409056414186705,-1.1751339641846172,-0.7975185700217505
1970-01-01 00:00:00.000000022,-2.043768224849569,1.8874078560046383,-2.3433249813601047,-0.7968542064847666
1970-01-01 00:00:00.000000022,-1.7990650359185711,2.4235018780981132,-2.940245125146667,-0.8131495976753681
1970-01-01 00:00:00.000000022,-1.5488116287849607,2.6193733432169717,-2.971062907027271,-0.8359544401775788
1970-01-01 00:00:00.000000022,-1.365484138175543,2.697638617811792,-2.63039313553796,-0.8595600580675861
1970-01-01 00:00:00.000000022,-1.3531580606937046,2.705912563038424,-2.060508527160678,-0.8831239023102675
1970-01-01 00:00:00.000000022,-1.3192137808681543,2.451908876231401,-1.413428805794685,-0.8948770123039743
1970-01-01 00:00:00.000000022,-1.4339530475663422,2.1360633249077092,-0.9616329995975308,-0.8881192001987369
1970-01-01 00:00:00.000000022,-1.6439681180846542,1.6801908557372247,-0.592272223878207,-0.8759514336014876
1970-01-01 00:00:00.000000022,-1.6771860875169136,1.1199027726532844,-0.3889040524580748,-0.87175651438547
1970-01-01 00:00:00.000000022,-1.3932169230259241,1.096023201168376,-1.1192979972229256,-0.8726352595392879
1970-01-01 00:00:00.000000022,-0.9192891409989921,1.8893075392740868,-2.040557992179642,-0.8978116127940577
1970-01-01 00:00:00.000000022,-0.5910041487078119,2.480925003825559,-2.285123147033831,-0.9276336413067147
1970-01-01 00:00:00.000000022,-0.4677049936754389,2.430126637117745,-2.0733079046320295,-0.9388376293854582
1970-01-01 00:00:00.000000022,-0.46711034064059714,2.1156599671377534,-1.7110245092467304,-0.9378165833164196
1970-01-01 00:00:00.000000022,-0.5551157867032807,1.6372852228323498,-1.1797610977989417,-0.937617372927125
1970-01-01 00:00:00.000000022,-0.5314890450516759,1.2743429696870117,-0.7092232109733645,-0.9445505653646207
1970-01-01 00:00:00.000000022,-0.48515594235671505,1.1238991646575565,-0.36534139254129244,-0.9613236859770283
1970-01-01 00:00:00.000000022,-0.2871037908052689,1.09590882904428,-0.1300200346642578,-0.9862146030378866
1970-01-01 00:00:00.000000022,-0.039949983382388365,1.1182596366924809,0.007420873760810951,-1.013850178891432
1970-01-01 00:00:00.000000022,0.2742488192257618,0.9432305290579353,0.17651279361138228,-1.0416110596255463
1970-01-01 00:00:00.000000022,0.6952692696811689,0.6466149998224844,0.30607490569723095,-1.0619980790476016
1970-01-01 00:00:00.000000022,0.9846568098667929,0.3359923721692142,0.15812756623391316,-1.0617191686396286
1970-01-01 00:00:00.000000022,1.1459042676797693,-0.011859103943635152,-0.22366877007152808,-1.0414576269123261
1970-01-01 00:00:00.000000022,1.1705126939433947,-0.36675671795167547,-0.40775289746949456,-1.0182052972975049
1970-01-01 00:00:00.000000022,1.0699534094947214,-0.6928210900321549,-0.33790827088538317,-1.0023342094008572
1970-01-01 00:00:00.000000022,1.0165237327361993,-1.0359991410039855,-0.162356844523331,-0.991404784613119
1970-01-01 00:00:00.000000022,0.9567301470867281,-1.2456626073929615,-0.01223342156206627,-0.9821018654708673
1970-01-01 00:00:00.000000022,0.8315209604884827,-1.298638045456654,0.1303076754968615,-0.9770923699509775
1970-01-01 00:00:00.000000022,0.7276245540609242,-1.1538418452980514,0.4442634346159695,-0.9856693485668957
1970-01-01 00:00:00.000000022,0.6132865790263137,-0.709428403752451,0.5104684329725956,-0.9903166675169258
1970-01-01 00:00:00.000000022,0.34816220977436985,-0.22855290551422347,0.3605564061480077,-0.9807085238862029
1970-01-01 00:00:00.000000022,0.024315418614910822,0.06227256000527834,0.24832713816047783,-0.9650408722736901
1970-01-01 00:00:00.000000022,-0.25153231501659434,0.028253955147143753,0.4626182536752977,-0.9570530980130333
1970-01-01 00:00:00.000000022,-0.362320849868322,-0.37944982510792297,0.9123316569970386,-0.9554268281537268
1970-01-01 00:00:00.000000022,-0.3270788530834968,-1.13534393227748,1.3083917860283223,-0.9514159613540153
1970-01-01 00:00:00.000000022,-0.10563701300944438,-1.985920320080128,1.453162592071552,-0.9438881021008058
1970-01-01 00:00:00.000000022,0.18429214205107883,-2.632495410953719,1.2790074988358324,-0.9315534964354847
1970-01-01 00:00:00.000000022,0.3914364162930831,-3.050768625879555,0.870727026286703,-0.9173691518664953
1970-01-01 00:00:00.000000022,0.6293767780484406,-3.0648550449121172,0.4040246537873353,-0.9140111610777217
1970-01-01 00:00:00.000000022,0.787642880060873,-2.6081394808408156,-0.11988326812183633,-0.9187540913251968
1970-01-01 00:00:00.000000022,0.8258838527983736,-1.888161045218513,-0.6741230005054891,-0.9255994121311939
1970-01-01 00:00:00.000000022,0.798153392526121,-1.2360549525896993,-0.9452839580570637,-0.936276248747731
1970-01-01 00:00:00.000000022,0.7294731662460834,-0.8253112753256384,-0.9385324676575109,-0.9438479046798134
1970-01-01 00:00:00.000000022,0.5813779258871252,-0.6941900367322842,-0.7919332242254902,-0.9444577331369947
1970-01-01 00:00:00.000000022,0.4615954765592868,-0.8054273080944014,-0.5812721780790744,-0.9441184816673995
1970-01-01 00:00:00.000000022,0.4669431689478172,-0.954626604150324,-0.3046949062433054,-0.9490205942165684
1970-01-01 00:00:00.000000022,0.4700990343007392,-0.9907909053259898,-0.16679019185182606,-0.95073746354159
1970-01-01 00:00:00.000000022,0.40704357026188004,-0.7779037958081921,-0.17981622991277624,-0.9520668775631461
1970-01-01 00:00:00.000000022,0.30783003263201936,-0.45752488188539764,-0.38316131618333593,-0.9499815310535615
1970-01-01 00:00:00.000000022,0.23200018108003134,-0.07610553050780085,-0.6663768224475393,-0.948271976293265
1970-01-01 00:00:00.000000022,0.15958713657804902,0.353508546584244,-0.9081799014907448,-0.9525288404551038
1970-01-01 00:00:00.000000022,0.1571016559228477,0.6803248854216969,-1.0449919206632723,-0.960518118855228
1970-01-01 00:00:00.000000022,0.18105350296351494,0.7782333645911477,-1.0436319516280383,-0.968490363846481
1970-01-01 00:00:00.000000022,0.26352786904245723,0.7926683796618792,-0.9223783521711647,-0.9780292838771681
1970-01-01 00:00:00.000000022,0.29532224015994407,0.8249237390955418,-0.6594727041774573,-0.9871894480211021
1970-01-01 00:00:00.000000023,0.19224931612854235,0.8961057191032021,0.03244848256528038,-1.0102526695071241
1970-01-01 00:00:00.000000023,0.1673831053110709,0.897864630291884,0.06351568704100068,-1.0116986750702803
1970-01-01 00:00:00.000000023,0.1704236660485825,0.8837277123999212,0.2199634811639928,-1.018123143768189
1970-01-01 00:00:00.000000023,0.19592821931886575,0.9147035396691536,0.3274182395499695,-1.0257062715076497
1970-01-01 00:00:00.000000023,0.23753085483483777,0.9631424405324275,0.2702035685503729,-1.026071605073171
1970-01-01 00:00:00.000000023,0.21704878841939365,1.0019964019702456,0.12993215857396,-1.0163730182041095
1970-01-01 00:00:00.000000023,0.07932191149180644,1.0026866549155005,0.14989095519784212,-1.0040736441864913
1970-01-01 00:00:00.000000023,-0.12279990696512057,0.9255692512018083,0.27214960222131285,-0.9885894043776161
1970-01-01 00:00:00.000000023,-0.37135783840590664,0.7026548312077956,0.4131200084520767,-0.9728685703346682
1970-01-01 00:00:00.000000023,-0.45257417444610304,0.36508544788185887,0.4510648824579383,-0.9598877381852335
1970-01-01 00:00:00.000000023,-0.4083083130290772,0.15003236628178057,0.26101192259163847,-0.9487202559872576
1970-01-01 00:00:00.000000023,-0.3416879988095326,0.14811616277376244,0.05858474856385066,-0.9432314524231664
1970-01-01 00:00:00.000000023,-0.341909210914107,0.17897627780059353,-0.09935146217686494,-0.9386567102474456
1970-01-01 00:00:00.000000023,-0.3312008708002957,0.15210136150413475,-0.27321620367730654,-0.9326417005959879
1970-01-01 00:00:00.000000023,-0.302878840085009,0.23992422915658612,-0.4653222907648762,-0.9305054594986912
1970-01-01 00:00:00.000000023,-0.28141038302829485,0.33566008150340715,-0.5306783911946269,-0.9311984500889584
1970-01-01 00:00:00.000000023,-0.3169205372638152,0.3483502913631039,-0.3375419515623387,-0.9364003729754719
1970-01-01 00:00:00.000000023,-0.35992631789381974,0.46735889696804667,0.06460681067913901,-0.9540505085811256
1970-01-01 00:00:00.000000023,-0.36739204549440707,0.6209367624519881,0.4325226755769264,-0.9723665230370733
1970-01-01 00:00:00.000000023,-0.37949656781508256,0.6321379909179788,0.4477097315802252,-0.9656413117375012
1970-01-01 00:00:00.000000023,-0.5814999492508995,0.5999988860281573,0.3088499707838749,-0.9467390001807366
1970-01-01 00:00:00.000000023,-0.7463210698026292,0.7021207694200456,0.7755283171621694,-0.9620228555646163
1970-01-01 00:00:00.000000023,-0.7455672537270179,0.8809997958010222,1.654152500082673,-1.004140192575946
1970-01-01 00:00:00.000000023,-0.6700014138932291,0.950317152895063,2.2520326207575003,-1.0343189082984208
1970-01-01 00:00:00.000000023,-0.6134375398177044,0.9121552440088934,2.2853201720130385,-1.037878419838203
1970-01-01 00:00:00.000000023,-0.5948128725666362,0.8792210191444473,2.152958607393935,-1.0370518435336666
1970-01-01 00:00:00.000000023,-0.4813396800715676,0.995787503257707,2.2635374579897256,-1.043546125204269
1970-01-01 00:00:00.000000023,-0.6199223845489338,1.121558340236289,2.3270695297513155,-1.0241767655589409
1970-01-01 00:00:00.000000023,-1.1709858775790698,0.919830525422751,2.4508826875964456,-0.9756837025864779
1970-01-01 00:00:00.000000023,-1.8329395356775546,0.3549699433540702,2.987867132528801,-0.928179107099866
1970-01-01 00:00:00.000000023,-2.3993341383426894,-0.40325776010008035,3.9039141854439228,-0.9027678943471391
1970-01-01 00:00:00.000000023,-2.6475852288494788,-1.1919603022517367,4.718785038261639,-0.8955848764683441
1970-01-01 00:00:00.000000023,-2.594993073259646,-1.891008843264379,4.891943405052762,-0.8893622128657224
1970-01-01 00:00:00.000000023,-2.2804140016042735,-2.3791131918277504,4.349852172221688,-0.8810295968474111
1970-01-01 00:00:00.000000023,-1.7851106158940853,-2.5708625700366077,3.328250010981006,-0.8742521359661469
1970-01-01 00:00:00.000000023,-1.244444057780143,-2.430595567856654,2.116478755569507,-0.8701974429345366
1970-01-01 00:00:00.000000023,-0.8137208737986288,-2.0476969488935395,0.8241972025952217,-0.8635580100667979
1970-01-01 00:00:00.000000023,-0.5137203380700219,-1.521721020502624,-0.27765325373230404,-0.8603677971027626
1970-01-01 00:00:00.000000023,-0.31903017060794087,-1.0312631846929494,-1.0633276333830586,-0.8588650917234
1970-01-01 00:00:00.000000023,-0.25926707437845997,-0.6041381209928413,-1.4639460023961415,-0.8607428342148354
1970-01-01 00:00:00.000000023,-0.29847595377029335,-0.26703606786639456,-1.4497844170653233,-0.8677614178297004
1970-01-01 00:00:00.000000023,-0.4184733134583531,-0.15736688138995988,-1.2317644283576545,-0.8703466171771475
1970-01-01 00:00:00.000000023,-0.558684753167954,-0.21850572321358785,-1.044491142142425,-0.8682332395043478
1970-01-01 00:00:00.000000023,-0.606330319221678,-0.2885328226269477,-1.015741586737809,-0.8681960266902474
1970-01-01 00:00:00.000000023,-0.5166960869313065,-0.3673773299220763,-1.1760285419864533,-0.8685563233403544
1970-01-01 00:00:00.000000023,-0.3584427023291946,-0.41775606977849084,-1.5241300314057977,-0.8699256880086841
1970-01-01 00:00:00.000000023,-0.08157696573856707,-0.41386801135788287,-1.9773137632308453,-0.8712687101548686
1970-01-01 00:00:00.000000023,0.13528305120706308,-0.4654246361594201,-2.5720859751021146,-0.8630738854478295
1970-01-01 00:00:00.000000023,0.34196956460085826,-0.5759290458479286,-3.142339445427676,-0.8550580778380048
1970-01-01 00:00:00.000000023,0.6054497703928107,-0.7105668358547064,-3.6469862855650685,-0.8494014502982277
1970-01-01 00:00:00.000000023,0.8411677756249208,-0.8697125479293939,-4.086627290529413,-0.8391181059143699
1970-01-01 00:00:00.000000023,0.9354328038255861,-1.0405293231616166,-4.46080792365178,-0.8256447743124229
1970-01-01 00:00:00.000000023,1.024586486583251,-1.0915419081512108,-4.722149378785571,-0.8202535312379602
1970-01-01 00:00:00.000000023,1.1116588977272395,-0.9288016307853656,-4.784924737422839,-0.8189000029767287
1970-01-01 00:00:00.000000023,0.8771944641409659,-0.5298751323704747,-4.514591540947867,-0.8338195584504279
1970-01-01 00:00:00.000000023,0.8650031734205124,-0.5139155374247052,-4.495135462376826,-0.8303166693920719
1970-01-01 00:00:00.000000023,0.7353737544676799,-0.5848351194019971,-4.3430566845318594,-0.8237212564409202
1970-01-01 00:00:00.000000023,0.620886185520564,-0.9219858068157877,-4.412748140369911,-0.8055103748993195
1970-01-01 00:00:00.000000023,0.6425566189369123,-0.9355831822516986,-4.427944623083193,-0.8018603834681709
1970-01-01 00:00:00.000000023,0.5857176140709135,-1.0258740697752948,-4.828870638671582,-0.7818339345364824
1970-01-01 00:00:00.000000023,0.5950346329348689,-0.9688430976589241,-5.407389017027123,-0.7634822449944759
1970-01-01 00:00:00.000000023,0.6246402993515008,-0.5529289944097179,-6.090672248454846,-0.752226107708525
1970-01-01 00:00:00.000000023,0.575218994828248,0.09379219220310148,-6.736729747647065,-0.7425907195290059
1970-01-01 00:00:00.000000023,0.3758024658318771,0.40081136958065516,-6.985537752328711,-0.7322301338874766
1970-01-01 00:00:00.000000023,0.2305992193195801,0.5175599549907368,-6.583344396712166,-0.7381777269168115
1970-01-01 00:00:00.000000023,0.018937297813265946,0.5188817636638323,-5.819186610405119,-0.7529941443717462
1970-01-01 00:00:00.000000023,-0.13464510052650475,0.3232408701064784,-5.203700878052249,-0.76167096494651
1970-01-01 00:00:00.000000023,-0.18808961959225218,0.24375603619997724,-4.64560279001659,-0.776987602195063
1970-01-01 00:00:00.000000023,-0.2159698415786673,0.42527829011033824,-4.31046826957824,-0.7998881115028051
1970-01-01 00:00:00.000000023,-0.11681221080135726,0.9708976534283947,-4.254900631946612,-0.8378515517314321
1970-01-01 00:00:00.000000023,0.17683215443570352,1.7271237658410081,-4.383683379595484,-0.8839383718611045
1970-01-01 00:00:00.000000023,0.5046965569025659,2.0524747500014957,-4.7135198914087475,-0.8874537627956978
1970-01-01 00:00:00.000000023,0.28535769901368113,1.1812498359126435,-4.63979833672746,-0.83575787190944
1970-01-01 00:00:00.000000023,-0.1165491533448331,-1.0342270074154436,-2.9365330272880055,-0.8035066058145186
1970-01-01 00:00:00.000000023,-0.06995754546086938,-3.8161523754533304,-0.10736673937233854,-0.8196938244062619
1970-01-01 00:00:00.000000023,0.27288246053820275,-6.2921751539791275,2.7473430400803216,-0.8685146773091297
1970-01-01 00:00:00.000000023,0.8586908413693075,-8.10435027128361,4.503855332240574,-0.9119759522406493
1970-01-01 00:00:00.000000023,1.4682825049821633,-8.710779715610615,5.171253385482937,-0.9403335781206154
1970-01-01 00:00:00.000000023,1.4900123236442906,-6.608267129824774,4.8484209961769,-0.9985957366377965
1970-01-01 00:00:00.000000023,1.2896865351559432,-5.441175801143695,4.757370499807916,-1.0004943225853287
1970-01-01 00:00:00.000000023,0.3811927213520124,-2.9418998684681363,5.087162131223663,-1.0281713405792197
1970-01-01 00:00:00.000000023,-0.7646813099154854,-2.506518313883112,6.5796093768437816,-1.0265295394407215
1970-01-01 00:00:00.000000023,-1.6484497993301566,-2.600664192101597,9.19572145783271,-1.0546958100459638
1970-01-01 00:00:00.000000023,-2.564097087375395,-2.883600303880381,12.532684553618958,-1.122442762820703
1970-01-01 00:00:00.000000023,-2.9379317841371853,-2.9819313972633394,15.96137410528442,-1.2266461707077525
1970-01-01 00:00:00.000000023,-3.141182765151899,-2.7048654342056078,18.34809827708458,-1.3233218582643465
1970-01-01 00:00:00.000000023,-3.0728410786895823,-2.193548185515167,19.543166516772427,-1.397156861656579
1970-01-01 00:00:00.000000023,-2.9144805644448883,-1.3057957482374891,19.282537502237115,-1.4347735799970824
1970-01-01 00:00:00.000000023,-2.7306133249017654,-0.1660627322410939,17.98222032828564,-1.444855513608905
1970-01-01 00:00:00.000000023,-2.522229919645841,1.1905608156158691,16.85587019936314,-1.4578664495553957
1970-01-01 00:00:00.000000023,-2.629045492519852,2.2484939071275467,16.813564207777095,-1.4802494711288936
1970-01-01 00:00:00.000000023,-2.9139149915175335,1.8076228365659714,17.649211570356538,-1.4700211111866135
1970-01-01 00:00:00.000000023,-3.263871676018741,-0.133650691646428,18.2741748200492,-1.4012939027099582
1970-01-01 00:00:00.000000023,-3.4375932774054303,-2.1284262387508925,18.291273843240475,-1.3271489897136721
1970-01-01 00:00:00.000000023,-3.2460386745034007,-3.431791091760531,17.99228561031075,-1.2796621566919955
1970-01-01 00:00:00.000000023,-3.0358934876371504,-5.031033039065668,17.999337834867514,-1.2248290412524534
1970-01-01 00:00:00.000000023,-3.059145275701168,-6.7576639718012865,17.388272922323214,-1.1422849659131329
1970-01-01 00:00:00.000000023,-2.84898380758949,-7.84569929825083,15.064225969177373,-1.0366701370840115
1970-01-01 00:00:00.000000024,-2.4384724378339566,-7.931816792552021,12.74022853388497,-0.953408446936088
1970-01-01 00:00:00.000000024,-2.599120199133079,-7.995943443223906,11.239355103146647,-0.8879472727605301
1970-01-01 00:00:00.000000024,-2.5957498671319685,-7.7980618535963435,9.882953571971672,-0.8605735967010542
1970-01-01 00:00:00.000000024,-2.145415897140272,-7.068574246475241,8.583543697490555,-0.8643874807658689
1970-01-01 00:00:00.000000024,-1.8529210020043079,-7.1511977301303515,7.524971331378185,-0.8256433128725571
1970-01-01 00:00:00.000000024,-2.0244293073681296,-7.592984488041414,6.761462228723305,-0.7572019877902945
1970-01-01 00:00:00.000000024,-2.4468937403229645,-7.919430741787343,6.224461549351573,-0.6788576522648874
1970-01-01 00:00:00.000000024,-3.1968886121027165,-7.499254737343165,5.781390406642894,-0.5895638204879605
1970-01-01 00:00:00.000000024,-4.805858737014934,-5.6206226667839605,5.062903929700671,-0.549541001215897
1970-01-01 00:00:00.000000024,-5.380237599006705,-4.300913340144766,4.12365962095425,-0.541399286662134
1970-01-01 00:00:00.000000024,-5.351813345652171,-4.204741467636328,4.075201885552497,-0.5189436891731752
1970-01-01 00:00:00.000000024,-6.003665791274846,-3.4810686942201947,3.15282888077908,-0.4740427291976449
1970-01-01 00:00:00.000000024,-6.348444476031099,-3.688506086253783,2.396785085537926,-0.43460280910783544
1970-01-01 00:00:00.000000024,-6.059727003422904,-4.993090923909871,1.6758731394671518,-0.3947284059916004
1970-01-01 00:00:00.000000024,-5.350656431292111,-6.997278484462007,0.7294600549256857,-0.345393777814767
1970-01-01 00:00:00.000000024,-4.39739095390448,-9.294687749112242,-0.341711249021438,-0.2921631875548585
1970-01-01 00:00:00.000000024,-3.3780134202472016,-11.41325730140869,-1.4096303383445048,-0.24697884600640896
1970-01-01 00:00:00.000000024,-2.3978180279730514,-12.708957322902432,-2.3140058202601184,-0.22196358859784904
1970-01-01 00:00:00.000000024,-1.8161066069598646,-13.187441783650312,-3.277378175372021,-0.20488941282887585
1970-01-01 00:00:00.000000024,-1.4026674804989472,-12.990454294965852,-4.563688374094673,-0.19853401709189122
1970-01-01 00:00:00.000000024,-0.8894853615642476,-11.849653708642986,-6.237037453399708,-0.2003585768677043
1970-01-01 00:00:00.000000024,-0.7915013322034228,-10.668232271073292,-7.804359300375389,-0.17918399101412708
1970-01-01 00:00:00.000000024,-1.0511533675697762,-10.437047872571823,-8.725093918971833,-0.1320394427496241
1970-01-01 00:00:00.000000024,-1.3814009466564388,-10.608795836885557,-8.749912060383702,-0.11261651174511966
1970-01-01 00:00:00.000000024,-1.3855154293982515,-10.738680508407619,-8.260772496457129,-0.14684715943754945
1970-01-01 00:00:00.000000024,-0.8420578862738369,-10.709451370094007,-7.914818823932928,-0.2261302730428446
1970-01-01 00:00:00.000000024,0.3677789901646845,-9.491185847309584,-8.76401511291073,-0.28334957589824783
1970-01-01 00:00:00.000000024,0.30097615501660324,-9.422361898202055,-8.833384615594284,-0.29410366714713343
1970-01-01 00:00:00.000000024,0.5942655414491141,-8.56719388862371,-9.641977992612745,-0.31205792155227563
1970-01-01 00:00:00.000000024,0.7249342095895687,-7.34390314638804,-10.452051236699557,-0.3334902665141617
1970-01-01 00:00:00.000000024,0.7331852520238173,-6.139516251841516,-10.984730586263678,-0.3635044623185486
1970-01-01 00:00:00.000000024,0.8462599357934361,-5.331341765939817,-11.293980705026192,-0.38943632869335465
1970-01-01 00:00:00.000000024,0.9203065816363388,-4.804903710763246,-11.450940731673198,-0.3994686946317013
1970-01-01 00:00:00.000000024,0.7255342967529173,-4.660530683346546,-11.390891308828964,-0.40569068504127537
1970-01-01 00:00:00.000000024,0.8526932203198917,-4.658309899737591,-10.982009766852874,-0.43306496162669617
1970-01-01 00:00:00.000000024,1.0322460600442358,-4.552281957421625,-10.31181774405161,-0.4755086267324351
1970-01-01 00:00:00.000000024,1.1896561149086935,-4.121009103899105,-9.55477547579329,-0.5233741134017352
1970-01-01 00:00:00.000000024,1.135805858721018,-4.088660567318664,-9.540816821831644,-0.5292891545787823
1970-01-01 00:00:00.000000024,1.2515109364472703,-3.5442759622652997,-9.81872846222161,-0.538882808785887
1970-01-01 00:00:00.000000024,1.1340526342047241,-3.1231140764652348,-10.081175320772592,-0.5368703452609879
1970-01-01 00:00:00.000000024,1.0221149157969238,-2.864796294793163,-9.957997391135534,-0.5416087057578903
1970-01-01 00:00:00.000000024,0.8744067734640436,-2.9442665853757974,-9.502634942312268,-0.554445412627462
1970-01-01 00:00:00.000000024,0.984651532676482,-3.5226901445284002,-9.005434685470787,-0.5707060693586086
1970-01-01 00:00:00.000000024,1.3901796839444045,-3.8923669996276553,-9.118101248135831,-0.5786181427916202
1970-01-01 00:00:00.000000024,1.6684142907378297,-3.8517112612911384,-9.21379143006959,-0.582476201888084
1970-01-01 00:00:00.000000024,1.549699749938379,-3.783701907805857,-9.084132216315632,-0.5781041607592359
1970-01-01 00:00:00.000000024,1.3336096390556222,-3.620869145353808,-8.620407306339208,-0.5889650344979185
1970-01-01 00:00:00.000000024,1.2190197666318188,-3.5073770972504716,-8.194477135346423,-0.6015638511880037
1970-01-01 00:00:00.000000024,1.136516231861259,-3.5261945657008233,-8.078357433306063,-0.6011410328698888
1970-01-01 00:00:00.000000024,1.1041530887760853,-3.664899887911429,-8.136197275156746,-0.5942677475383911
1970-01-01 00:00:00.000000024,1.152408313668051,-3.8149059160700136,-8.23777250408843,-0.5828916588290783
1970-01-01 00:00:00.000000024,1.0617574317807645,-4.0089641795176725,-8.205064668769387,-0.56521137438534
1970-01-01 00:00:00.000000024,0.8449513299112381,-4.299658391887444,-7.921505013665403,-0.550346910555557
1970-01-01 00:00:00.000000024,0.6753071993970401,-4.5830641882435765,-7.426822486996553,-0.5454069974149625
1970-01-01 00:00:00.000000024,0.49855827513255235,-4.824502888814946,-6.734130333367068,-0.5570702177739816
1970-01-01 00:00:00.000000024,0.5346164846352615,-5.011042489948216,-5.977225194102589,-0.5780175626707567
1970-01-01 00:00:00.000000024,0.49878532639333006,-5.25652777547976,-5.433833343095633,-0.5822874100293765
1970-01-01 00:00:00.000000024,0.33711347807128755,-5.601957172145275,-4.923024793619529,-0.58049223226242
1970-01-01 00:00:00.000000024,0.2772734923141964,-5.737403100084387,-4.478923312273286,-0.5820900886976939
1970-01-01 00:00:00.000000024,0.08039292852823132,-5.74867661034606,-4.198654717972186,-0.5766902427881563
1970-01-01 00:00:00.000000024,-0.12544449041463718,-6.045938512252079,-3.953827205968465,-0.5576195995752985
1970-01-01 00:00:00.000000024,-0.36198479843064335,-6.536477827101196,-3.8494944498175916,-0.5238535523860889
1970-01-01 00:00:00.000000024,-0.6337548048572087,-7.094528252072829,-3.8880883716990975,-0.4919917474417089
1970-01-01 00:00:00.000000024,-0.6422012699062818,-7.266349424842258,-3.129456032035153,-0.5104880745170903
1970-01-01 00:00:00.000000024,-0.6709090050649591,-7.266310025034128,-3.076628299615866,-0.510590070885459
1970-01-01 00:00:00.000000024,-0.7334336664098383,-6.931892318089494,-2.4473791246034566,-0.5333149064006835
1970-01-01 00:00:00.000000024,-1.010267257240043,-6.551069836125798,-1.9088953374211417,-0.5451996746765749
1970-01-01 00:00:00.000000024,-1.321599190791622,-6.284024553562479,-1.9298262820227285,-0.5241076061221365
1970-01-01 00:00:00.000000024,-1.8134313014550734,-6.240582044015334,-2.319403211146578,-0.4786946245751864
1970-01-01 00:00:00.000000024,-2.1891173484767563,-6.2529191645203595,-2.7352889486039036,-0.4418757870767336
1970-01-01 00:00:00.000000024,-2.3616365097343506,-6.069073156446619,-3.0142361595709204,-0.4327893849087743
1970-01-01 00:00:00.000000024,-2.3505142875682137,-5.59030555776679,-2.8773368580398033,-0.4716871036889807
1970-01-01 00:00:00.000000024,-1.9690495055015582,-4.628070215822261,-1.932752320069259,-0.5616557272590814
1970-01-01 00:00:00.000000024,-1.9233412812435595,-3.382459319329934,0.9281551662740317,-0.7078865822018725
1970-01-01 00:00:00.000000024,-2.0660669025138674,-3.3499303251011896,1.0913428904529605,-0.7028809112066908
1970-01-01 00:00:00.000000024,-2.4191932697693797,-4.012387976540258,2.3413743578177173,-0.7166265385169156
1970-01-01 00:00:00.000000024,-2.2666063106186605,-4.30798477911338,2.552325032997874,-0.7194753663775901
1970-01-01 00:00:00.000000024,-2.2696610737942,-4.31460355642703,2.559999036218873,-0.720610850583947
1970-01-01 00:00:00.000000024,-2.2521942136525395,-4.183381902655434,2.570578286672895,-0.73408825762781
1970-01-01 00:00:00.000000024,-2.0989879131848825,-3.8347818157174887,3.3975407035015714,-0.7978461058146786
1970-01-01 00:00:00.000000024,-1.7431530387146046,-3.1829552916469144,4.335792537939424,-0.8849847692986282
1970-01-01 00:00:00.000000024,-1.368645300484014,-2.698956920953936,4.8249119586582,-0.9406885274530062
1970-01-01 00:00:00.000000024,-1.2565428354621224,-2.6288031998042625,4.996908720137093,-0.9535270976274242
1970-01-01 00:00:00.000000024,-1.3045430749953772,-2.6752369615132188,5.195115997291218,-0.9510505962395412
1970-01-01 00:00:00.000000024,-1.5042010019065188,-2.3425103984160636,5.781307569362362,-0.9647546382036144
1970-01-01 00:00:00.000000024,-1.8749008458097305,-1.727603110694048,6.745129060518982,-1.002383950231609
1970-01-01 00:00:00.000000024,-2.1126606935667738,-1.2751931301064081,8.364757524867002,-1.0720315578329915
1970-01-01 00:00:00.000000024,-2.1159352644083134,-0.9136745232264396,9.892260989842558,-1.1535312323066493
1970-01-01 00:00:00.000000024,-1.8496752386458826,-0.7845742657521579,10.585733932137304,-1.2138669831912394
1970-01-01 00:00:00.000000024,-1.3551812096563018,-1.1373944171900903,10.554991412756351,-1.2384410789650608
1970-01-01 00:00:00.000000024,-0.8268807004292579,-1.677980991864593,9.896128218799797,-1.2269481423497504
1970-01-01 00:00:00.000000024,-0.48939487994047315,-1.7431688589382617,9.065393999053754,-1.2142352602625224
1970-01-01 00:00:00.000000024,-0.30864650561653706,-1.0776297051725425,8.679458249947452,-1.2474553904423975
1970-01-01 00:00:00.000000024,0.1104874974015495,0.3033809653971441,8.686192895644991,-1.3108461355646441
1970-01-01 00:00:00.000000024,0.042383195964385,0.35051418973876347,8.679348351310702,-1.3137918509595958
1970-01-01 00:00:00.000000024,0.1003677959926717,0.2693238395962173,8.5150342717908,-1.3027121582976098
1970-01-01 00:00:00.000000024,0.04996966905412786,-0.4467871025046856,7.108560405177192,-1.2274530049396255
1970-01-01 00:00:00.000000024,0.13448488872340117,-0.46380075171227036,7.034871523503837,-1.2197441195618197
1970-01-01 00:00:00.000000024,0.03329138545139457,-0.30673026732201747,6.352073655830807,-1.1865352968250085
1970-01-01 00:00:00.000000024,-0.24348703982460648,0.330695971328332,5.869729621238472,-1.1680964574029027
1970-01-01 00:00:00.000000025,-0.6002785370347238,1.1740850514915173,5.569189675912491,-1.163505494748784
1970-01-01 00:00:00.000000025,-0.9110908280570035,1.9380002865060308,5.816791495962266,-1.1781520332507862
1970-01-01 00:00:00.000000025,-1.2066780872989802,2.36079351803295,6.193051548930228,-1.187728569160853
1970-01-01 00:00:00.000000025,-1.4513570618903469,2.511506048996537,6.353681673766845,-1.182437985479316
1970-01-01 00:00:00.000000025,-1.655547476747921,2.5257150035192555,6.432198841420307,-1.1622518401349444
1970-01-01 00:00:00.000000025,-2.07727280800452,1.9956407660754838,6.628528764633622,-1.1355199781120324
1970-01-01 00:00:00.000000025,-2.042398264531722,1.9755641605796248,6.657056283748307,-1.1278090888291317
1970-01-01 00:00:00.000000025,-2.271434957734967,1.785569702806545,7.052969029802785,-1.1243472870424487
1970-01-01 00:00:00.000000025,-2.3478606776898774,1.5797136253390271,7.618003331068898,-1.1346718511749405
1970-01-01 00:00:00.000000025,-2.363563295438288,1.4683193134520238,8.234742041162331,-1.1601715625761029
1970-01-01 00:00:00.000000025,-2.1918652427476717,1.3023690917178954,8.957493034166328,-1.2024990845275216
1970-01-01 00:00:00.000000025,-1.8063279837695876,1.004815977770639,9.676739696167942,-1.2481339048275595
1970-01-01 00:00:00.000000025,-1.4030640059412014,0.8016920874895528,9.788508541768381,-1.2730865664163886
1970-01-01 00:00:00.000000025,-1.061479687770714,0.7434407535769247,8.965561300707977,-1.27263301928534
1970-01-01 00:00:00.000000025,-0.5654675220906932,1.3306300842255911,7.4660684024851784,-1.2785831291496565
1970-01-01 00:00:00.000000025,-0.0003816083413014648,1.7608377476431367,6.8205517935208855,-1.2968452406263953
1970-01-01 00:00:00.000000025,0.14811128920701738,1.5192630835425083,7.2461040039820075,-1.3039643863596622
1970-01-01 00:00:00.000000025,0.005429798049332468,0.6242092964257739,8.189200102414498,-1.295249402663392
1970-01-01 00:00:00.000000025,-0.1492785338807568,-0.16630081970119365,9.36161002155491,-1.2934582252065066
1970-01-01 00:00:00.000000025,-0.394920356093105,-0.7566793416844273,9.681922566241433,-1.2704705912388903
1970-01-01 00:00:00.000000025,-0.4944954615707827,-0.9986845901240147,9.315656082617881,-1.2438909225893742
1970-01-01 00:00:00.000000025,-0.48155538471840226,-0.8607748680487947,8.43782138805664,-1.2175545950589548
1970-01-01 00:00:00.000000025,-0.4360816458859177,-0.8003819528488888,7.447376289255934,-1.1882282496578593
1970-01-01 00:00:00.000000025,-0.31249818805994567,-0.7893516060678628,6.351524674656849,-1.1544218928999093
1970-01-01 00:00:00.000000025,-0.24298453893389285,-0.6598429622882191,5.396058375174262,-1.1288944099444476
1970-01-01 00:00:00.000000025,-0.1419914393557075,-0.8040633510621193,4.564396479700252,-1.1033821509482098
1970-01-01 00:00:00.000000025,0.062481420906383575,-0.9724265571483274,3.920087535973154,-1.0849827064165967
1970-01-01 00:00:00.000000025,0.1853638247852114,-1.0909301738429196,3.888490509674706,-1.0806274042001034
1970-01-01 00:00:00.000000025,0.10308410585295003,-1.4773072743406561,4.574537087513753,-1.0865763447163366
1970-01-01 00:00:00.000000025,0.05377891709672021,-1.8788497419484835,5.291527344603026,-1.089417411734597
1970-01-01 00:00:00.000000025,-0.1390285268411517,-2.01362517709292,5.784711797943472,-1.089683190942305
1970-01-01 00:00:00.000000025,-0.3046723132138225,-2.001327449707169,6.133393789723998,-1.0943261538544038
1970-01-01 00:00:00.000000025,-0.35396263245637966,-2.1431107245083765,5.946025765096696,-1.078017722634365
1970-01-01 00:00:00.000000025,-0.40097411458031995,-2.39270154110175,5.1292624388040675,-1.042191786356208
1970-01-01 00:00:00.000000025,-0.2390027031750654,-2.6554385916481227,4.098452376203871,-1.006768215392531
1970-01-01 00:00:00.000000025,-0.02656758020225666,-2.8834651476116697,2.949627004486322,-0.9698747434562287
1970-01-01 00:00:00.000000025,0.173794686054355,-2.9546061745964205,1.7849909641973458,-0.9363356386551243
1970-01-01 00:00:00.000000025,0.34377479237046316,-2.9792829371210896,0.6567476582126273,-0.8995688708615206
1970-01-01 00:00:00.000000025,0.37234091876734593,-2.992021566305219,-0.308792631088595,-0.8580123132381166
1970-01-01 00:00:00.000000025,0.23395106131314952,-2.8578338836712973,-0.7966832281560732,-0.8192981171190282
1970-01-01 00:00:00.000000025,-0.30637783464398327,-2.465735295096948,-0.2478965314026024,-0.8092788512528236
1970-01-01 00:00:00.000000025,-0.965023619226698,-2.011331215569455,1.0591647486627687,-0.825542998330252
1970-01-01 00:00:00.000000025,-1.587364303245828,-2.1703049129877368,1.7652473575879313,-0.8104794913734268
1970-01-01 00:00:00.000000025,-1.932893681125708,-2.572696466244302,1.8667188750665928,-0.7931982998970045
1970-01-01 00:00:00.000000025,-1.759793368511996,-2.4843626163208095,1.194299328497729,-0.7977375465580636
1970-01-01 00:00:00.000000025,-1.2157086435943847,-2.068397020905109,0.06606014788460401,-0.8090183036582231
1970-01-01 00:00:00.000000025,-0.7669172433796679,-1.4063380117698805,-0.7046563992661578,-0.8397377158667602
1970-01-01 00:00:00.000000025,-0.3154384815729753,-0.43581714873712607,-0.8748707799263143,-0.8969878765996913
1970-01-01 00:00:00.000000025,-0.05783582198405948,0.30832488704729194,-0.24780476756448278,-0.9598850611450357
1970-01-01 00:00:00.000000025,-0.01595357793202337,0.2874347574356906,0.7109877141069688,-0.9930631158945756
1970-01-01 00:00:00.000000025,-0.1174119878371565,-0.425592646404736,1.3164668383315499,-0.9808252781295994
1970-01-01 00:00:00.000000025,-0.22933101991003857,-1.4651303043135246,0.896922826894912,-0.9259134875545758
1970-01-01 00:00:00.000000025,-0.10657842341580626,-2.462955978359516,-0.42958092046799756,-0.8488692941430006
1970-01-01 00:00:00.000000025,0.09247561008052371,-3.0401901176992636,-2.5011166858366214,-0.7490664606122165
1970-01-01 00:00:00.000000025,-0.10848359163961685,-2.6785584452277194,-4.156950842828005,-0.6823063880940656
1970-01-01 00:00:00.000000025,-0.35522969551298994,-2.0124168667514843,-4.968085033821861,-0.6547349812299219
1970-01-01 00:00:00.000000025,-0.6472620715565622,-1.7944256059351118,-5.369073719234962,-0.6332667539865235
1970-01-01 00:00:00.000000025,-0.7366914115000848,-2.3677940557096444,-5.177624947735418,-0.6241869386194467
1970-01-01 00:00:00.000000025,-0.49569779671976066,-3.5380090485094597,-4.578795019905547,-0.6217757390227487
1970-01-01 00:00:00.000000025,-0.22128232756410915,-4.864010185767184,-3.9054005214357463,-0.6193179467162895
1970-01-01 00:00:00.000000025,0.09762910230770805,-6.0526478463801325,-3.379400938035215,-0.6121907014925929
1970-01-01 00:00:00.000000025,0.26826470508342465,-6.735827345013218,-3.5167704840318503,-0.5881766721004004
1970-01-01 00:00:00.000000025,0.2942378474933005,-6.8429624175454915,-4.6016740793934146,-0.5468513937869126
1970-01-01 00:00:00.000000025,0.3695758044688569,-6.601832167478836,-6.056103898354005,-0.5044851989098661
1970-01-01 00:00:00.000000025,0.38112458731636006,-6.318226977340619,-6.824852049122216,-0.4859698497370536
1970-01-01 00:00:00.000000025,0.3815304789322288,-6.1066900306694825,-7.081295237897259,-0.4830945539420384
1970-01-01 00:00:00.000000025,0.3676811802224147,-5.984272014089534,-7.291987537457684,-0.47945127005199817
1970-01-01 00:00:00.000000025,0.36786829917082114,-5.9888156919539,-7.322529615666204,-0.48225107966794545
1970-01-01 00:00:00.000000025,0.4991819510528529,-6.140297805729899,-7.842858222593938,-0.4678740180467308
1970-01-01 00:00:00.000000025,0.6488454560610821,-6.102227702010112,-8.487645033626775,-0.45335004685030145
1970-01-01 00:00:00.000000025,0.7262435641560787,-6.0379839108131454,-8.991691447598761,-0.44071100918138706
1970-01-01 00:00:00.000000025,0.7561874618057827,-6.161293231576517,-9.275979393171323,-0.43380254267865626
1970-01-01 00:00:00.000000025,0.9481565021073499,-6.233664545265999,-9.376483371540134,-0.4386888466556107
1970-01-01 00:00:00.000000025,1.0634989121843441,-6.184830839775376,-9.426252987582266,-0.44797766619290136
1970-01-01 00:00:00.000000025,1.1952711259280808,-6.057059584107184,-9.432638748619096,-0.4569995959908131
1970-01-01 00:00:00.000000025,1.169940110025276,-5.687264623882287,-9.336479917897087,-0.47249811832265587
1970-01-01 00:00:00.000000025,1.159286492208916,-5.666101318582244,-9.31933509247003,-0.4674656565886911
1970-01-01 00:00:00.000000025,0.9784693280772047,-5.612617225193009,-9.100713826148489,-0.4642208569267341
1970-01-01 00:00:00.000000025,0.8024956256163234,-5.5211507162040485,-8.796525168113865,-0.4630844350079141
1970-01-01 00:00:00.000000025,0.562461007876032,-5.3742557981500205,-8.57126939875937,-0.45486257412045605
1970-01-01 00:00:00.000000025,0.1922052520866716,-5.229477344913561,-8.023470109456195,-0.4639265773114738
1970-01-01 00:00:00.000000025,0.11525898849494304,-5.231042305615362,-7.471833347657485,-0.4805648043889106
1970-01-01 00:00:00.000000025,0.09611654789286833,-5.2307298279750185,-7.438095198569648,-0.48338806246299787
1970-01-01 00:00:00.000000025,0.12524776506740432,-5.179511825757452,-7.03758578977033,-0.5017616581593649
1970-01-01 00:00:00.000000025,0.14326615798165515,-5.066434818114064,-6.777066475867299,-0.5145220584779698
1970-01-01 00:00:00.000000025,0.08344859557445333,-4.995536862225308,-6.574517657549834,-0.5216425196490357
1970-01-01 00:00:00.000000025,0.05334215339162629,-5.017966752427404,-6.439816568436361,-0.5247322625040617
1970-01-01 00:00:00.000000025,0.050525885643462,-5.368212997647367,-6.179177234564552,-0.5247761122933361
1970-01-01 00:00:00.000000025,0.137140862108116,-5.808283780805288,-5.782468361560231,-0.5287223661697306
1970-01-01 00:00:00.000000025,0.18831169047795193,-5.999471040044905,-5.2414904835109395,-0.5447497302386826
1970-01-01 00:00:00.000000025,0.18362925731701524,-5.841204606406624,-4.151544999234731,-0.5932906562742238
1970-01-01 00:00:00.000000025,0.22544987767289215,-5.640014459859656,-2.777185622752464,-0.6510591160910192
1970-01-01 00:00:00.000000025,0.1335235061337337,-5.3984716247004965,-1.5417526299782436,-0.6945912930797964
1970-01-01 00:00:00.000000025,-0.12750979682197744,-4.997521245500637,-0.4789372251068473,-0.7317076355101815
1970-01-01 00:00:00.000000026,-0.34777733806390604,-4.718055244820299,-0.0730056889102309,-0.7449681066986629
1970-01-01 00:00:00.000000026,-0.48830692890559424,-4.262083672046203,-0.3643296828680348,-0.7545445527524625
1970-01-01 00:00:00.000000026,-0.30094863338920286,-3.2784173703888024,-0.6841092184882036,-0.7979482875793179
1970-01-01 00:00:00.000000026,0.005352814537197631,-2.3112560237597712,-0.9126899116217804,-0.84612990719746
1970-01-01 00:00:00.000000026,0.23697335992022356,-1.9532449392466003,-1.0362680634214667,-0.8753088748736615
1970-01-01 00:00:00.000000026,0.5312641877376048,-2.0229416657823953,-0.9131321306417333,-0.8837940442753354
1970-01-01 00:00:00.000000026,0.35358328940568917,-2.3512004004341587,0.6966801725385574,-0.9221506841165141
1970-01-01 00:00:00.000000026,0.3185257510203748,-2.364031017525936,0.8189349175967793,-0.9188362984565472
1970-01-01 00:00:00.000000026,0.08682474344204202,-2.5362189766893675,2.3559806986512277,-0.9450112781334729
1970-01-01 00:00:00.000000026,-0.3236118693981776,-2.7259180352147063,3.680507263858624,-0.9585048932749636
1970-01-01 00:00:00.000000026,-0.7201390488885409,-2.3612345570255027,4.470048842613834,-0.9822874232083157
1970-01-01 00:00:00.000000026,-0.8552450083601855,-1.2262721993425447,4.311954291846215,-1.0121127282182385
1970-01-01 00:00:00.000000026,-0.8883419520518913,-1.168132421349827,4.282699441107339,-1.0147738348107458
1970-01-01 00:00:00.000000026,-0.832884835470946,-0.6847367796788315,3.6994970154758797,-1.0082144142479506
1970-01-01 00:00:00.000000026,-0.980106496728434,0.12379385937109205,3.2972744660911335,-1.0134608605342024
1970-01-01 00:00:00.000000026,-1.1183930393384611,1.0862789115594305,3.386021497845845,-1.0461208913143962
1970-01-01 00:00:00.000000026,-1.1570684241520428,1.6064548073339504,4.02602403034706,-1.081085150354098
1970-01-01 00:00:00.000000026,-1.368332713974211,2.0639934356578826,4.842619870725429,-1.1171856190455975
1970-01-01 00:00:00.000000026,-1.488769673208889,2.303693255583486,5.657037779394149,-1.150601263722454
1970-01-01 00:00:00.000000026,-1.5344435679787012,1.9226409951638206,6.434316702984199,-1.1621319713930576
1970-01-01 00:00:00.000000026,-1.586209489376314,1.1817862832396842,6.89368587057914,-1.1527892944901565
1970-01-01 00:00:00.000000026,-1.505408804944499,0.5666532173154681,7.026266367660435,-1.1321144148333384
1970-01-01 00:00:00.000000026,-1.6512408065936208,0.6720061428823414,6.619661614857038,-1.1101443474055526
1970-01-01 00:00:00.000000026,-1.8034179975041986,1.5543772467437436,5.931461839715608,-1.1149183588805727
1970-01-01 00:00:00.000000026,-1.7089173987057023,2.4047648505676675,5.388393388833277,-1.1340660110010536
1970-01-01 00:00:00.000000026,-1.5858251934205563,2.7386233548569114,4.919509295056467,-1.140514301874273
1970-01-01 00:00:00.000000026,-1.4005129553783144,2.5693459298092614,4.469637776931598,-1.1285399403640415
1970-01-01 00:00:00.000000026,-1.2783871257808295,2.1152604352108852,3.9922543673143487,-1.098520402737193
1970-01-01 00:00:00.000000026,-1.2524728147041881,1.5208202801876847,3.549364599858847,-1.0533764742371636
1970-01-01 00:00:00.000000026,-1.4306496828034732,1.030573038158302,3.1742757371761967,-1.0089584933645201
1970-01-01 00:00:00.000000026,-1.5826844373814017,1.2372079118715766,3.3386364656835545,-1.00594668481978
1970-01-01 00:00:00.000000026,-1.8526584826040167,1.7585953551241966,3.853463609029718,-1.017047224019605
1970-01-01 00:00:00.000000026,-2.3104459651798095,1.6767739688322247,4.386788270469318,-1.0224210713590707
1970-01-01 00:00:00.000000026,-2.1514533656179227,1.3435436404906143,4.169061530786615,-1.0090798655305693
1970-01-01 00:00:00.000000026,-2.1449796368254215,1.3059966277176716,4.134965364072601,-1.015642994662984
1970-01-01 00:00:00.000000026,-1.8629407429696478,0.8357639252187151,3.6424019165058414,-0.9958823730377825
1970-01-01 00:00:00.000000026,-1.7132227688081563,0.41574931009660454,3.1160063384940897,-0.967061120448175
1970-01-01 00:00:00.000000026,-1.6770224960394216,0.06391671068454438,2.664218486129513,-0.9403186157680055
