time,ax,ay,az,speed
1970-01-01 00:00:00.000000000,-0.0062947315543844095,1.666804643846769,-1.9376869460967474,0.8751353119363976
1970-01-01 00:00:00.000000000,0.19439878971580138,1.3217734139044381,-2.007297673214904,0.8901227758248268
1970-01-01 00:00:00.000000000,0.536920105715008,1.0186255026694249,-1.761802259609309,0.8774702511049549
1970-01-01 00:00:00.000000000,0.6576925704470716,1.2562841316983167,-1.7361943627081493,0.8484856222119042
1970-01-01 00:00:00.000000000,0.5932610594564561,1.4511977826869564,-1.3152938040088693,0.8035359227929852
1970-01-01 00:00:00.000000000,0.41389442959156875,1.377587248064246,-0.8252070983166198,0.7702581850880633
1970-01-01 00:00:00.000000000,0.05887864040433158,1.2878943088161634,-0.4210614567713884,0.7594141130278969
1970-01-01 00:00:00.000000000,-0.19928772235762413,1.1935630129298223,0.0045516884467848295,0.7536694342974735
1970-01-01 00:00:00.000000000,-0.21585307898127187,1.1296947135413604,0.23534471808691781,0.7527909309308464
1970-01-01 00:00:00.000000000,-0.03108154147278,1.0206315865513105,0.3121930337643788,0.7558656793744291
1970-01-01 00:00:00.000000000,0.25487939118915937,0.786202941398907,0.5527120116062549,0.7361698749083156
1970-01-01 00:00:00.000000000,0.22960626830250963,0.5894243800473803,0.7436078284327138,0.7250401366529398
1970-01-01 00:00:00.000000000,-0.030186976502464297,0.5331865387045347,0.9296305749011975,0.7165876782198977
1970-01-01 00:00:00.000000000,-0.36345350064350956,0.659458900814313,1.2092644297388127,0.6974165557981645
1970-01-01 00:00:00.000000000,-0.6490989166440012,0.8542916076654108,1.5525968524302094,0.6674897973886235
1970-01-01 00:00:00.000000000,-0.9086994750800352,0.9869893685187692,2.0414254482439467,0.627125480736356
1970-01-01 00:00:00.000000000,-1.2590079016294364,0.9231281471793804,2.4445970549943983,0.6153476320056972
1970-01-01 00:00:00.000000000,-1.5052442248122793,0.6054397300584722,2.6306641613388653,0.6269723528262031
1970-01-01 00:00:00.000000000,-1.7142374892780088,0.21331354949958742,2.622904286255011,0.5742175240765603
1970-01-01 00:00:00.000000000,-1.8131412182909012,-0.11373171967255705,2.4199937414435193,0.6130244733333129
1970-01-01 00:00:00.000000000,-1.80971847829641,-0.36764249738443705,2.1333542159942205,0.6477522413924381
1970-01-01 00:00:00.000000000,-1.8270724174743607,-0.526493727300299,1.966692072807408,0.6662895288648212
1970-01-01 00:00:00.000000000,-1.9096576216309695,-0.7841276146822203,2.2808922748472096,0.6595070651944899
1970-01-01 00:00:00.000000000,-2.1119207480882993,-1.369132134204404,2.643219082982539,0.6701024684970548
1970-01-01 00:00:00.000000000,-2.4549715832205417,-1.9417685876672066,2.8266943868508387,0.6778125075908548
1970-01-01 00:00:00.000000000,-3.3249212998545765,-2.704301558055233,3.0318475367450683,0.7390349134063626
1970-01-01 00:00:00.000000000,-3.961751810572022,-3.072985758037521,3.5345768270525717,0.7813993783628461
1970-01-01 00:00:00.000000000,-3.8153023392333454,-3.0394069753802024,2.6286337272519695,0.8395367381634159
1970-01-01 00:00:00.000000000,-3.6481712438084295,-2.189248327669003,0.24028805830962555,0.9417283038037827
1970-01-01 00:00:00.000000000,-3.306006322355043,-1.0095025226819936,-0.33006080389114,0.9018043157350006
1970-01-01 00:00:00.000000000,-2.942455808166395,-0.3544750489290824,-0.689085027554674,0.8737144590523691
1970-01-01 00:00:00.000000000,-2.669970406702166,-0.8282030217599949,-1.2921141634418212,0.9254883575176001
1970-01-01 00:00:00.000000000,-2.756181159627313,-1.7616555960287892,-2.452646442812539,1.1137036386802022
1970-01-01 00:00:00.000000000,-1.6861109381684574,-1.2588356397740532,-2.9516773612535814,1.1260538202863575
1970-01-01 00:00:00.000000000,-0.04802093083445713,-0.2424970194826134,-3.5082326526460608,1.028040669634882
1970-01-01 00:00:00.000000000,0.6830505585424747,0.062191356713925255,-4.419829017219622,0.9857010050211776
1970-01-01 00:00:00.000000000,-0.08272418502835205,-0.8034252050708799,-5.052239668113168,1.1146791123028559
1970-01-01 00:00:00.000000000,-0.3507232345771002,-1.4598842007803225,-4.445854328988452,1.1593042221988208
1970-01-01 00:00:00.000000000,0.1363544237171745,-1.4636784228738289,-3.8360574214510974,1.0901861823847065
1970-01-01 00:00:00.000000000,0.0411776618746687,-1.69040066724525,-4.5086635006233795,1.1486367539513094
1970-01-01 00:00:00.000000000,0.017808498607034373,-1.7102845391654742,-4.181002041797533,1.1437427300786887
1970-01-01 00:00:00.000000000,0.3164085070310166,-1.418162935987924,-3.3092726736753324,1.0554174146032476
1970-01-01 00:00:00.000000000,0.3985398793048775,-1.1497417333914397,-3.238987148319536,1.0367819655213173
1970-01-01 00:00:00.000000000,0.5968557561064805,-0.9870788958517147,-3.7555953612227957,1.0793621263970423
1970-01-01 00:00:00.000000000,1.2780177979557406,-0.7304259001759592,-4.641125050267115,1.1308395038229806
1970-01-01 00:00:00.000000000,2.4326317295473023,-0.3252803991623541,-5.395640986252435,1.1163259887556705
1970-01-01 00:00:00.000000000,3.217779596886297,-0.023811824316640418,-5.512848525657607,1.0421767476665253
1970-01-01 00:00:00.000000000,3.0041854057537916,-0.1427094426695824,-4.776339791785574,0.951257115153304
1970-01-01 00:00:00.000000000,1.7433013659231598,-0.4003400109585204,-2.2693227357492893,0.824649980471638
1970-01-01 00:00:00.000000000,0.5109193285727822,-0.5345907203805018,0.8865060593847284,0.7000539926062552
1970-01-01 00:00:00.000000000,0.35881344173144625,-0.4539162323182532,1.7846795461337592,0.6603825290893963
1970-01-01 00:00:00.000000000,0.715562564897326,0.5456789796471105,0.8166682180861556,0.6509823268622126
1970-01-01 00:00:00.000000000,1.0149188475555961,1.4841313938692084,-1.4377549467286206,0.7169045094646682
1970-01-01 00:00:00.000000000,1.0635627306123143,2.0476714153993925,-2.1142490191810492,0.731123691457113
1970-01-01 00:00:00.000000000,1.2124086897785589,2.2850936941325557,-2.9148716989415338,0.7594135342909203
1970-01-01 00:00:00.000000000,1.2070582589804615,2.194783686512375,-3.7923614919075836,0.8218485969258664
1970-01-01 00:00:00.000000000,1.2001179122570447,1.7653546187350981,-3.8125998055297283,0.8506688619363492
1970-01-01 00:00:00.000000000,1.216161870586809,1.5951768361233112,-2.7724474406070163,0.775477994338989
1970-01-01 00:00:00.000000000,0.8054059450556921,1.188960912551683,-1.6589401349023343,0.725659443369075
1970-01-01 00:00:00.000000000,0.1914869875157949,0.9083565696527702,-0.8673474348753716,0.7227972457020037
1970-01-01 00:00:00.000000000,0.01772268642623156,1.0310179685789498,-0.815089106226873,0.7380991932862258
1970-01-01 00:00:00.000000000,0.3186753668661165,1.2494741346282388,-1.5697128806008223,0.780108027870814
1970-01-01 00:00:00.000000000,0.844525427990929,1.4724303649042962,-2.7995119714745167,0.8463457599419211
1970-01-01 00:00:00.000000000,1.541913637442165,1.092583861744335,-3.9306722052545524,0.9115471367130041
1970-01-01 00:00:00.000000000,1.797131669753478,0.6754542855960508,-4.180517186995131,0.9174288169078526
1970-01-01 00:00:00.000000000,1.3567352065792297,0.9034378393616609,-3.684535853601484,0.8716684120069091
1970-01-01 00:00:00.000000000,0.813677983928108,1.13211628129053,-2.387201956123216,0.7862487135957952
1970-01-01 00:00:00.000000000,0.38554159026561385,1.2668606579779622,-1.1667580592300313,0.7140872597702228
1970-01-01 00:00:00.000000000,0.16357235845217344,1.2615033513899596,-0.4268837758120866,0.6863706696710943
1970-01-01 00:00:00.000000000,0.31590737695175275,0.8997976354787989,-0.0030360817684810942,0.6778701294725072
1970-01-01 00:00:00.000000000,0.45084348423790416,0.5785928610952628,0.390469622620762,0.6655643828396159
1970-01-01 00:00:00.000000000,0.5125055542847923,0.5356640644177135,1.1091703428534705,0.6097041597169263
1970-01-01 00:00:00.000000000,0.3765124331211547,0.8559981193696333,2.028790875609583,0.5219906728994137
1970-01-01 00:00:00.000000000,0.09903239565539118,1.4978200433459632,3.0897181833888694,0.4094603955462204
1970-01-01 00:00:00.000000000,-0.24872026009065307,2.584039994725593,3.8924970196442206,0.28621845279809743
1970-01-01 00:00:00.000000000,-0.6228597686925909,4.322228238835203,4.558669771595202,0.12328775678786308
1970-01-01 00:00:00.000000000,-1.1977128617043862,6.2963908494520195,5.12185520905347,-0.02329912170322146
1970-01-01 00:00:00.000000000,-1.5216512653418897,7.810980505414835,5.362076681893952,-0.11782673153419532
1970-01-01 00:00:00.000000000,-1.4875343923395303,8.58843519569346,5.642567601027928,-0.16578872858026739
1970-01-01 00:00:00.000000000,-0.9486304332229017,8.7202439723672,6.130722739919021,-0.21111324387874164
1970-01-01 00:00:00.000000000,-0.30437519225668863,8.140357146546767,6.419151465111797,-0.24818226562415147
1970-01-01 00:00:00.000000000,-0.62119319516995,6.844330856728428,7.461298690432016,-0.21099455344548312
1970-01-01 00:00:00.000000000,-0.5244199586295295,6.092196091834014,8.971533283266023,-0.2591690684953707
1970-01-01 00:00:00.000000000,-0.38836917974459784,6.598994950357159,8.974131285317938,-0.32865746616686
1970-01-01 00:00:00.000000000,-0.9540718006093305,7.579234860702073,8.578578713210527,-0.36213372292216817
1970-01-01 00:00:00.000000000,-1.518347676114035,9.269595516615619,8.376743199382657,-0.46582232251999134
1970-01-01 00:00:00.000000000,-2.395200298030744,11.080831605082047,8.474475187283685,-0.5801999657597088
1970-01-01 00:00:00.000000000,-3.32581579554295,11.942460085913027,9.463689122591171,-0.6660929854828731
1970-01-01 00:00:00.000000000,-3.8300338557501004,11.321965893308652,10.50150630141734,-0.6940539613433125
1970-01-01 00:00:00.000000000,-4.527345792076574,9.935581514118878,11.011943496376029,-0.6345199878921497
1970-01-01 00:00:00.000000000,-5.421059009860672,7.8497753909450205,12.232008503777918,-0.5230638065065424
1970-01-01 00:00:00.000000000,-5.548169446565604,5.62589483803216,12.869826902263394,-0.3667804889537185
1970-01-01 00:00:00.000000000,-4.724109386955961,3.761681790808033,11.215614412218601,-0.1638313381637826
1970-01-01 00:00:00.000000000,-4.32695761842301,1.6383182257081657,8.900566939562335,0.14602057265024349
1970-01-01 00:00:00.000000000,-3.4275915267475883,-0.2454471403701372,6.881335512281595,0.39191085823304944
1970-01-01 00:00:00.000000000,-2.5493441588877466,-1.8714239090711913,5.03945899867134,0.5834212084679691
1970-01-01 00:00:00.000000000,-2.199049388267802,-3.421843892338612,4.04521196405794,0.7254977848107629
1970-01-01 00:00:00.000000000,-2.286572901491726,-4.730935240806021,4.218689974158368,0.7963264268832793
1970-01-01 00:00:00.000000001,-2.5443863861999336,-5.752685708181451,4.920139239460485,0.8399191444756344
1970-01-01 00:00:00.000000001,-2.4468177797607176,-6.373056619696275,5.343591751671584,0.8538942365510658
1970-01-01 00:00:00.000000001,-2.372193578462794,-6.854947167263943,4.821733912026274,0.9340026009525301
1970-01-01 00:00:00.000000001,-1.9786721321482164,-7.050345522179204,4.0033952472887915,1.0282288656135958
1970-01-01 00:00:00.000000001,-0.9167307588260601,-7.214375693297699,2.809944003048065,1.1220645110868475
1970-01-01 00:00:00.000000001,0.5396243472231698,-7.263667226812445,0.5892238050552315,1.2455254059728849
1970-01-01 00:00:00.000000001,1.9522072264111188,-7.816245181760681,-1.0625070176792613,1.3493972012539968
1970-01-01 00:00:00.000000001,3.0078008808674808,-8.839328617715628,-1.0912892193851826,1.377704593090395
1970-01-01 00:00:00.000000001,3.5115149956897627,-10.027913440871103,-0.5845878500304916,1.4202223700721208
1970-01-01 00:00:00.000000001,4.115226293208174,-11.400224815231432,-0.17847326086545834,1.4862903716249507
1970-01-01 00:00:00.000000001,4.931949729002367,-12.892461932954001,-0.34849555591331804,1.5991938034206854
1970-01-01 00:00:00.000000001,6.098666954774636,-13.942884909734804,-0.9775442840019936,1.6991862877208468
1970-01-01 00:00:00.000000001,7.459359014614597,-14.12924299502774,-1.609012477282949,1.7189051020952029
1970-01-01 00:00:00.000000001,8.535622673152686,-14.042033299955218,-2.2111499465789417,1.71977562710368
1970-01-01 00:00:00.000000001,9.27346993277117,-14.229391395493215,-2.565771372078699,1.7451830401692217
1970-01-01 00:00:00.000000001,10.077313707938435,-14.055328428262328,-2.9684711494462794,1.750253909760314
1970-01-01 00:00:00.000000001,10.932462466803546,-13.771458243185073,-3.5899317385660403,1.7585719499595318
1970-01-01 00:00:00.000000001,11.791065072793128,-13.736688524922092,-4.422330179024423,1.772425854154566
1970-01-01 00:00:00.000000001,12.352547664783263,-13.700195938268115,-5.144047103650216,1.5197436058524305
1970-01-01 00:00:00.000000001,12.2192147788427,-13.747862330773936,-5.296202141987861,1.489812755590644
1970-01-01 00:00:00.000000001,11.387911038793295,-13.609511335802189,-4.470835073196269,1.396198226106843
1970-01-01 00:00:00.000000001,9.667532296463255,-12.6994011109286,-3.4068022093545967,1.2755037484368215
1970-01-01 00:00:00.000000001,7.585233850069087,-11.232894676387913,-2.471400596496212,1.1422487387550508
1970-01-01 00:00:00.000000001,5.360884541826159,-9.229112750535894,-2.2113714950339896,0.9832763731446387
1970-01-01 00:00:00.000000001,2.156073533715989,-7.010506695515641,-3.0429868768562227,0.9072780029015112
1970-01-01 00:00:00.000000001,-1.811511098590461,-5.697113585135157,-4.091819736832697,0.92910592263342
1970-01-01 00:00:00.000000001,-6.276638052064506,-5.3366885630559535,-4.961274477549144,0.9618752224642655
1970-01-01 00:00:00.000000001,-12.2745089251228,-4.512124968815813,-4.9812385084344495,0.9812995066474087
1970-01-01 00:00:00.000000001,-18.704412871759725,-1.291540697767904,-2.3330203529777407,0.7907781284049062
1970-01-01 00:00:00.000000001,-23.059609553630267,6.078573624172216,1.9277364731250186,0.11617922956073079
1970-01-01 00:00:00.000000001,-27.238981174963094,12.578195021307137,3.297071598242435,-0.43035068519007574
1970-01-01 00:00:00.000000001,-33.66169333000681,14.464164035660946,4.024668763960752,-0.24575387096678303
1970-01-01 00:00:00.000000001,-34.388327169002174,17.59134501419101,5.2560961013505345,-0.25947098407453195
1970-01-01 00:00:00.000000001,-29.932330077113487,18.670891741947173,5.308666366954366,-0.2828005304090252
1970-01-01 00:00:00.000000001,-23.026074804095614,15.437960643164498,4.743124431199001,-0.15249293800144886
1970-01-01 00:00:00.000000001,-16.185718603534458,10.719519970449364,3.8211676223738165,0.03938732551098806
1970-01-01 00:00:00.000000001,-10.58584129457229,6.797865029371015,4.987187843296592,0.0831589713867622
1970-01-01 00:00:00.000000001,-5.795418120256837,6.1513950825606925,7.1614634066269796,-0.1571140638897905
1970-01-01 00:00:00.000000001,-2.3584633725920074,7.1904490116493625,8.022970947513327,-0.3661701103436184
1970-01-01 00:00:00.000000001,0.5745189325846146,8.181643758373175,7.649667702634005,-0.48014161480101647
1970-01-01 00:00:00.000000001,3.043526043113695,9.025040166118416,6.079164725297183,-0.47812401340573785
1970-01-01 00:00:00.000000001,5.445649800987235,9.220562522061938,3.7139016756269814,-0.39466317773074877
1970-01-01 00:00:00.000000001,7.4473914908915155,9.039805057865388,1.0558376449428715,-0.25970288282704196
1970-01-01 00:00:00.000000001,9.019938575195797,8.59212266291125,-1.7183366395620863,-0.07094426180607727
1970-01-01 00:00:00.000000001,10.661134058175717,8.357625070311045,-3.79080868354636,0.06274781782168515
1970-01-01 00:00:00.000000001,12.467761095550701,8.594058047020576,-5.103194004656043,0.10386092871109315
1970-01-01 00:00:00.000000001,14.200643668484904,8.52637252407295,-6.1509991173385155,0.14434935639212215
1970-01-01 00:00:00.000000001,15.843428167378264,8.19252125888955,-6.899261007543395,0.17651462400261625
1970-01-01 00:00:00.000000001,17.257464210640986,7.6661031296060225,-7.1346464226720645,0.17436892952557548
1970-01-01 00:00:00.000000001,18.106837382290692,7.316775661139847,-6.961679983935621,0.11438066804068076
1970-01-01 00:00:00.000000001,17.782038992738514,7.449475283396013,-6.268077581363559,0.034966443985004814
1970-01-01 00:00:00.000000001,16.844190289454023,7.6485715294717265,-5.446900173961425,-0.032350367340493014
1970-01-01 00:00:00.000000001,15.596732679442692,7.841597174436057,-4.768585953499443,-0.07036342589678718
1970-01-01 00:00:00.000000001,14.329865724032409,8.308352592728333,-4.571120158097268,-0.07523994526075617
1970-01-01 00:00:00.000000001,13.415835442363926,8.100876962722461,-4.284704181633105,-0.03573918846394747
1970-01-01 00:00:00.000000001,13.131789207010229,6.982324181873386,-3.548893964901051,-0.014297587984615279
1970-01-01 00:00:00.000000001,12.774678626141046,6.3071193100200285,-2.150189508534178,-0.15663055077372323
1970-01-01 00:00:00.000000001,10.339023522731344,7.11454629140251,-0.9515736627869359,-0.3516564059850378
1970-01-01 00:00:00.000000001,5.864353718856856,9.967791903558291,-0.36013804100237645,-0.5975092909257982
1970-01-01 00:00:00.000000001,-0.5098229299816024,13.701714734470372,-0.33627381447738713,-0.7867930450261116
1970-01-01 00:00:00.000000001,-7.82748232767896,17.18195885197413,-0.2658020250548534,-0.8840282257611265
1970-01-01 00:00:00.000000001,-14.684812165463091,21.16110808042201,0.8595529495869034,-1.0736134647476452
1970-01-01 00:00:00.000000001,-20.726038968259925,26.976253425664975,4.5320257701462,-1.4868194419948462
1970-01-01 00:00:00.000000001,-24.090229993697275,34.47297552534059,9.530383957169807,-2.4868485821186854
1970-01-01 00:00:00.000000001,-33.15985071188238,30.35607135032336,14.600326665230938,-2.287684909232395
1970-01-01 00:00:00.000000001,-39.4637027068368,22.917299052615853,19.954784123291343,-1.6958740737442992
1970-01-01 00:00:00.000000001,-38.57197781623653,19.21952383817843,18.48736543150794,-1.133972539805403
1970-01-01 00:00:00.000000001,-33.37835383454707,9.927894824909734,13.622132774131366,-0.19491248010731738
1970-01-01 00:00:00.000000001,-26.23485124822494,-0.5100868275610656,10.216496208093497,0.5860340891483463
1970-01-01 00:00:00.000000001,-19.451982115950283,-8.536182593407922,9.387321420043737,0.9903112369492983
1970-01-01 00:00:00.000000001,-14.200602288003056,-14.09552879711345,10.862496530426618,1.0821054800080405
1970-01-01 00:00:00.000000001,-11.003704750749097,-17.44476261593083,11.74841721419918,1.1332908101782153
1970-01-01 00:00:00.000000001,-9.07070663630801,-18.745627845430693,10.762202240539644,1.2426021565781524
1970-01-01 00:00:00.000000001,-7.381576791975385,-18.97525852284614,8.04297396822311,1.4373198794697508
1970-01-01 00:00:00.000000001,-5.084800656439678,-18.870057391568924,5.364389781330125,1.589751243137083
1970-01-01 00:00:00.000000001,-2.3473848335295324,-18.444452942198065,3.617388235006251,1.616223566733251
1970-01-01 00:00:00.000000001,0.026576767436083948,-18.147676065253403,2.7875885463646064,1.5892028153726019
1970-01-01 00:00:00.000000001,1.928660239449562,-18.348794605142075,2.591508731339937,1.5446804370146787
1970-01-01 00:00:00.000000001,2.9711250555159436,-19.597313059176944,2.855612414218973,1.5980559726152852
1970-01-01 00:00:00.000000001,4.161206444893618,-21.751798576196826,3.78688586901087,1.688112014222512
1970-01-01 00:00:00.000000001,5.947114985817004,-23.967073355145224,4.37448119206641,1.7735653285706228
1970-01-01 00:00:00.000000001,7.8452328502334305,-26.232286830359943,4.451001499146079,1.8834688137340292
1970-01-01 00:00:00.000000001,9.671597535695796,-28.202040068670044,4.155190280781039,1.9911454123372123
1970-01-01 00:00:00.000000001,11.26099474025352,-29.347943211308696,3.6139878943641506,2.060730905979028
1970-01-01 00:00:00.000000001,12.542302555441363,-29.836504907181897,3.0284045965334663,2.062932552764801
1970-01-01 00:00:00.000000001,12.898926923411535,-29.48348602517245,2.6571394694695014,1.951073050286549
1970-01-01 00:00:00.000000001,11.14576947136002,-26.954871264662515,2.9771075869550643,1.6872080869701342
1970-01-01 00:00:00.000000001,7.219642821522917,-22.14941576176712,3.498387737265497,1.435589431041301
1970-01-01 00:00:00.000000001,4.048342101857039,-17.986240742369873,3.822474879892688,1.2252418860103909
1970-01-01 00:00:00.000000001,1.6202855870756228,-13.891251322154897,4.046266979901588,1.0421962254896857
1970-01-01 00:00:00.000000001,0.47130030588799254,-10.877513693010679,3.8767648402518895,0.9225092391987568
1970-01-01 00:00:00.000000001,0.41158728826214547,-8.937816305060228,3.490185790972522,0.7877770911357904
1970-01-01 00:00:00.000000001,-0.3131242871153668,-7.414212242774035,2.1375658168477143,0.6852082964950754
1970-01-01 00:00:00.000000001,-3.1801710846317977,-6.801994537409142,-0.5819890236546426,0.7151884008467652
1970-01-01 00:00:00.000000001,-9.373411032150274,-8.132656898635508,-4.494286086885793,1.040283669190787
1970-01-01 00:00:00.000000001,-18.04317579301263,-8.529415514720755,-7.513409111233326,1.431218652518996
1970-01-01 00:00:00.000000001,-25.72059257859704,0.8516455652484067,-7.354552352340612,0.9242492870816073
1970-01-01 00:00:00.000000001,-33.35706541374987,19.216216781926153,-7.617133396464848,-0.47569512163131344
1970-01-01 00:00:00.000000002,-49.06183293565668,25.544763700350344,-4.499493198618207,-0.40103964334941306
1970-01-01 00:00:00.000000002,-55.10441998767412,27.282673699339018,0.4210876055794286,-0.0036829028109054973
1970-01-01 00:00:00.000000002,-45.59103344646052,32.6917536428579,-1.7768139896825097,-0.28564949730465977
1970-01-01 00:00:00.000000002,-35.250570392700105,25.759826638697476,-5.2799133461338705,0.2147202306445241
1970-01-01 00:00:00.000000002,-24.889428284830814,15.523335576811725,-7.581076381094317,0.8412874737304805
1970-01-01 00:00:00.000000002,-14.779856274374422,9.474532470679305,-7.804850407952286,0.9127618697248663
1970-01-01 00:00:00.000000002,-8.473819200945725,5.215850346042869,-4.973075419104047,0.7885139975401507
1970-01-01 00:00:00.000000002,-4.546325943189572,3.314885396097842,-3.006727384237207,0.6469963616649128
1970-01-01 00:00:00.000000002,-1.9999957227904566,3.00941902097876,-0.7352002829206361,0.46217321397837063
1970-01-01 00:00:00.000000002,0.2912751624102736,2.6232288599548115,1.3401204350061482,0.3239028795631536
1970-01-01 00:00:00.000000002,2.848558843448849,2.2321803780587937,2.0828722083442734,0.2560464886703723
1970-01-01 00:00:00.000000002,5.418535761082942,1.4733335177920435,2.2251213604486875,0.22546625888220384
1970-01-01 00:00:00.000000002,7.44478707023813,0.36633174985705036,2.5639116713008585,0.20847142286568432
1970-01-01 00:00:00.000000002,8.813774117854434,-0.36775463179965023,2.9651154045266273,0.17630557252934853
1970-01-01 00:00:00.000000002,9.548189330349825,-0.7603940250265553,3.5295170343390634,0.1455135930336799
1970-01-01 00:00:00.000000002,10.161738547174405,-0.8759937682739126,4.118734798271283,0.09787348920919564
1970-01-01 00:00:00.000000002,10.644870389784288,-0.6328554489688403,4.434904788385756,0.06407465920083028
1970-01-01 00:00:00.000000002,11.376658306768848,-0.11984844211991391,4.714949399908994,0.03181899516406905
1970-01-01 00:00:00.000000002,12.762288109783986,0.5643964460787696,4.786177943504748,0.02090891876264178
1970-01-01 00:00:00.000000002,14.332569360314091,1.2513174349459344,4.404620023418616,-0.03688353963279578
1970-01-01 00:00:00.000000002,15.630006954038585,1.3934097426379783,4.060798133974441,-0.056899343431252136
1970-01-01 00:00:00.000000002,16.733684533558243,0.9975085117577581,3.863692489369585,-0.08500613729232165
1970-01-01 00:00:00.000000002,16.82384935242322,0.6630671112517984,3.3826461154346994,-0.07688962679040623
1970-01-01 00:00:00.000000002,16.008997339441876,0.5819273859335701,2.8943765212602712,-0.02676019191525525
1970-01-01 00:00:00.000000002,15.171035542560766,0.6999093855189047,2.1664570351571117,0.04293122188348075
1970-01-01 00:00:00.000000002,14.629270695077414,1.2143774519042956,0.49871485680899674,0.12228431183716998
1970-01-01 00:00:00.000000002,13.963070150895625,2.474617020438256,-2.0648206967729754,0.18271010250188113
1970-01-01 00:00:00.000000002,12.592585901807379,4.641049570687857,-3.958106198920095,0.13928562671324962
1970-01-01 00:00:00.000000002,10.263108417147446,7.196841626325625,-4.190926435877948,-0.02124824281196236
1970-01-01 00:00:00.000000002,7.0291936994912865,10.073343888082913,-3.047238021805388,-0.2756889344165455
1970-01-01 00:00:00.000000002,3.001690704556202,13.290880330479181,-1.3270631743017234,-0.6272863076284828
1970-01-01 00:00:00.000000002,-2.9066638869772996,16.716179405479743,0.40228668628379194,-0.9376573006870289
1970-01-01 00:00:00.000000002,-10.19933510725151,19.848085483628168,1.740925570117818,-1.0997092445271321
1970-01-01 00:00:00.000000002,-17.133650094769653,22.916678559909524,3.8372536143255895,-1.2323126938763527
1970-01-01 00:00:00.000000002,-21.951313347536846,27.17692049527264,7.639606878016302,-1.6104189285506778
1970-01-01 00:00:00.000000002,-25.345888613296403,29.34335264017006,10.665309919832698,-1.9781908490337756
1970-01-01 00:00:00.000000002,-30.96230172907842,22.68040987191712,13.410570040064956,-1.4262952125218065
1970-01-01 00:00:00.000000002,-31.968147361133877,17.308739905990848,14.951107166319348,-0.9631241844159979
1970-01-01 00:00:00.000000002,-29.33778250825832,11.542631698008428,12.906387558730477,-0.4033639582964057
1970-01-01 00:00:00.000000002,-25.09145659246452,3.9742197934488193,9.903260772616035,0.24183086386602726
1970-01-01 00:00:00.000000002,-20.516374813505916,-2.95805038374468,8.262300193048146,0.7510738740653082
1970-01-01 00:00:00.000000002,-15.636272115672195,-8.380480838547888,8.139943755691242,1.0358927521452022
1970-01-01 00:00:00.000000002,-10.880134691161858,-12.16544370252099,8.165669765142518,1.1551486886229867
1970-01-01 00:00:00.000000002,-7.206675966873284,-14.35601759356737,7.813621439108562,1.1712330768677086
1970-01-01 00:00:00.000000002,-5.472397394620535,-14.729609102017001,6.769531312569525,1.223196308826715
1970-01-01 00:00:00.000000002,-4.00644006021137,-14.17912345317816,5.128028707982391,1.3070016694079367
1970-01-01 00:00:00.000000002,-1.8099570507418987,-14.563037371066311,3.7309305656818648,1.3971652281550162
1970-01-01 00:00:00.000000002,0.5409160141421715,-15.972537237346923,2.907444893693203,1.5044375192834853
1970-01-01 00:00:00.000000002,2.8521336969266335,-17.83971747543555,2.3758321258999757,1.6160280546048365
1970-01-01 00:00:00.000000002,4.964512172395896,-20.133783970299017,2.0560731347202044,1.7320002844017517
1970-01-01 00:00:00.000000002,6.60224409837512,-22.346032869200883,1.8145593649824947,1.8620261779203706
1970-01-01 00:00:00.000000002,8.178714091740954,-23.63067350421266,1.5154597137196943,1.9087662136012742
1970-01-01 00:00:00.000000002,9.09528281862831,-23.761936551481668,1.0230680985084541,1.882506482614074
1970-01-01 00:00:00.000000002,8.914414362436338,-23.04925257245753,0.4997397593434365,1.8488993305541002
1970-01-01 00:00:00.000000002,8.276600477325767,-21.615334486704416,0.1724538219325722,1.77795356075527
1970-01-01 00:00:00.000000002,7.468386066318731,-19.812757302669134,-0.09146530127178432,1.6954977759711243
1970-01-01 00:00:00.000000002,6.810909909185193,-17.77993348755975,-0.09283775846844855,1.5872952885082208
1970-01-01 00:00:00.000000002,6.485155263738561,-15.982876842503716,0.09741584156439609,1.4616747329319875
1970-01-01 00:00:00.000000002,6.18337164944376,-14.578033984054468,0.40277275669304785,1.345259476881934
1970-01-01 00:00:00.000000002,5.749018970731275,-13.28813071616806,0.8633585999466133,1.2338708539195546
1970-01-01 00:00:00.000000002,5.294843126639673,-11.839724828593395,1.2696799657552889,1.1186538030764357
1970-01-01 00:00:00.000000002,4.838093995058,-10.598420663412128,1.4540194678877927,1.0434305218264224
1970-01-01 00:00:00.000000002,4.657690486122555,-9.682386247043484,1.6240925037056477,0.9768468229681133
1970-01-01 00:00:00.000000002,4.560898532055442,-8.80177540402263,1.4207107349041959,0.8932960012926543
1970-01-01 00:00:00.000000002,3.630115418345647,-8.049389591342342,1.1512574089328047,0.8459349823992178
1970-01-01 00:00:00.000000002,2.133288371742898,-6.748852760613742,0.9461301078883531,0.767469025333664
1970-01-01 00:00:00.000000002,-0.004121917600918484,-5.3833648452628,0.6805256040186022,0.6996285018161369
1970-01-01 00:00:00.000000002,-2.7385605814245824,-4.386627877506546,0.6434313845892465,0.6255004079179343
1970-01-01 00:00:00.000000002,-6.6073086147109565,-2.977210748930855,0.27049887837413245,0.5548893106917124
1970-01-01 00:00:00.000000002,-11.885672378243147,-1.5618118475147444,-0.403711172375873,0.5803911771106605
1970-01-01 00:00:00.000000002,-17.44741001728948,1.3389801499256129,-0.6400112486298213,0.6839914554295574
1970-01-01 00:00:00.000000002,-18.81126672976231,8.049579386366055,-1.7912890497695915,0.2603113105876884
1970-01-01 00:00:00.000000002,-22.114615719666702,12.79870836094593,-3.6757480161610014,-0.06891129033324761
1970-01-01 00:00:00.000000002,-29.628252175716174,13.009971770183343,-1.9594819755681903,0.16113896166449798
1970-01-01 00:00:00.000000002,-31.833714027528792,16.03967675146088,1.8388819932763338,0.026440272971579692
1970-01-01 00:00:00.000000002,-28.543431669366136,18.539496130156973,3.337491404926037,-0.18142628029445018
1970-01-01 00:00:00.000000002,-23.31356668916899,15.726266927580374,1.9729341045295088,0.062228024121641135
1970-01-01 00:00:00.000000002,-16.743662213951747,11.288827009515336,-0.5991544876271255,0.3683287268214966
1970-01-01 00:00:00.000000002,-11.084333166220919,6.961357724039161,-1.7608098757564663,0.5595726950047648
1970-01-01 00:00:00.000000002,-7.004299899517697,3.7355047453986634,-0.8750389519407598,0.5954369444044265
1970-01-01 00:00:00.000000002,-3.9918432263621493,2.1188138154222456,0.6063015870534353,0.5263979178527807
1970-01-01 00:00:00.000000002,-1.5738693956437035,1.5016684298589469,1.7743819612405032,0.4341366967181946
1970-01-01 00:00:00.000000002,0.4954673468986568,1.3539882557906884,1.7297658314614748,0.41067705880033345
1970-01-01 00:00:00.000000002,2.5673779357030098,1.0388600248912736,0.9121410366209612,0.4246191395329717
1970-01-01 00:00:00.000000002,4.131797000140701,0.5442233048908316,0.7470330459216223,0.4406602974475854
1970-01-01 00:00:00.000000002,5.662365955098262,0.10745783620985666,0.21003983231150364,0.46312722084102
1970-01-01 00:00:00.000000002,6.8568218616987044,-0.2506025815097021,-0.43369842779603124,0.49366351121550517
1970-01-01 00:00:00.000000002,7.7370076370980465,-0.5104584914020196,-0.8066283372345681,0.5166863277879474
1970-01-01 00:00:00.000000002,8.536259483259302,-0.5040149669892025,-1.06750495818168,0.5222587586552587
1970-01-01 00:00:00.000000002,9.399570632360307,-0.23807033413528145,-1.1561302504996258,0.4818051393157579
1970-01-01 00:00:00.000000002,9.963893631291624,0.22802604598584872,-0.9961017046590055,0.42601980375999116
1970-01-01 00:00:00.000000002,10.427537774798598,1.2156139677976188,-1.1677753832490236,0.3791996544890444
1970-01-01 00:00:00.000000002,11.173328076595798,1.6313296051208,-1.9960551224937255,0.3877790882556885
1970-01-01 00:00:00.000000002,11.808691099007115,1.130730279348453,-2.4252680151970933,0.42891033753950325
1970-01-01 00:00:00.000000002,12.26014991182277,0.387786744528537,-2.4967824805867203,0.4698285327925177
1970-01-01 00:00:00.000000002,12.631773276277912,0.0012590620679136938,-2.3261117214985325,0.45583698724485655
1970-01-01 00:00:00.000000002,12.519277667944563,-0.03619224596683375,-2.240634177145611,0.4429996457872151
1970-01-01 00:00:00.000000002,12.143421806071915,0.20416898178584236,-2.7383923764747347,0.47540183420877624
1970-01-01 00:00:00.000000002,11.957586462703532,0.649950505172463,-3.844764236684333,0.5316753290781948
1970-01-01 00:00:00.000000002,11.99708255192278,1.4716139053307136,-4.693122766542213,0.5445809986030936
1970-01-01 00:00:00.000000003,12.282520570549751,2.3741798312381794,-5.0789955674740295,0.5001962259272617
1970-01-01 00:00:00.000000003,12.46874172763513,3.28488287678851,-5.036116216568199,0.40198814036191666
1970-01-01 00:00:00.000000003,12.057791960468204,4.645755983677298,-4.56804413824157,0.21921140571077918
1970-01-01 00:00:00.000000003,10.298033506370002,6.560195145322331,-3.3914090531305274,-0.03598402310664661
1970-01-01 00:00:00.000000003,6.961324296110595,8.799439948328752,-1.430073287979586,-0.33322332104664854
1970-01-01 00:00:00.000000003,2.1678296721844865,11.042225338803194,1.0469721569312276,-0.6558740656626775
1970-01-01 00:00:00.000000003,-4.433919710389515,13.748951493117197,3.6066288188829727,-0.929439457845032
1970-01-01 00:00:00.000000003,-11.523441862710682,19.451762336923263,6.854303314470721,-1.3790642343511827
1970-01-01 00:00:00.000000003,-17.959637105882297,27.140780652908514,10.15170972092454,-2.0755161202980386
1970-01-01 00:00:00.000000003,-26.574035991421354,28.27527399446946,14.167817853355217,-1.946282610592252
1970-01-01 00:00:00.000000003,-28.635741675896135,20.360213619364508,14.697968741264027,-0.9928882438543326
1970-01-01 00:00:00.000000003,-21.76273037359754,6.151484093768764,11.878328526170554,0.1269200921625515
1970-01-01 00:00:00.000000003,-12.562899152385857,-6.2826291117345985,8.129415441214336,0.8198744083571952
1970-01-01 00:00:00.000000003,-8.08896696717417,-10.233063390772445,4.915295106447264,1.0967253535530035
1970-01-01 00:00:00.000000003,-6.84610316561031,-10.468698201852751,3.3749366701302788,1.8707240750830727
1970-01-01 00:00:00.000000003,-5.925393368934454,-9.931950030613535,2.6978330157087083,1.903060054812085
1970-01-01 00:00:00.000000003,-4.749432146576011,-9.819541676313559,2.5909657024042154,1.8867057057265915
1970-01-01 00:00:00.000000003,-3.5708037382537396,-10.306364372379727,2.39755180667796,1.927702209762643
1970-01-01 00:00:00.000000003,-2.0408012465516885,-10.8947546802759,2.450474775563737,1.9691930080117652
1970-01-01 00:00:00.000000003,0.13654138885935163,-12.851166224688622,3.2661129039239025,1.9917521294196723
1970-01-01 00:00:00.000000003,1.908510865755075,-16.057390991294888,4.38891602540385,2.087854233825447
1970-01-01 00:00:00.000000003,3.40990504613824,-18.81986699064926,4.36314333160404,2.2592330859752523
1970-01-01 00:00:00.000000003,5.138975997457596,-21.275546942893815,3.2194247412463195,2.4653072533310736
1970-01-01 00:00:00.000000003,6.7858420754385875,-23.26822882949826,1.6629963200316313,2.656131744432802
1970-01-01 00:00:00.000000003,8.07017083379173,-24.915393238862393,0.4827141143044835,2.80188541353532
1970-01-01 00:00:00.000000003,8.945967192571857,-26.08386784138559,0.2338055445898164,2.8586925519043658
1970-01-01 00:00:00.000000003,9.335806096846257,-26.880215654231392,0.798858413938337,2.852033664684291
1970-01-01 00:00:00.000000003,9.379885385737154,-27.499077200159338,1.7682492544484942,2.8294913697584216
1970-01-01 00:00:00.000000003,9.463056775968123,-27.60436092356221,2.6843792826789494,2.7851384977849802
1970-01-01 00:00:00.000000003,9.792359546873069,-27.491641280570178,3.5370178333335844,2.696671878370336
1970-01-01 00:00:00.000000003,9.674369885430634,-27.015321337906393,2.9697345312536756,2.680031884623686
1970-01-01 00:00:00.000000003,9.047207115147154,-25.83205487323854,0.23579448017886873,2.754566328616165
1970-01-01 00:00:00.000000003,7.715058327848909,-23.60648901858644,-3.0096123454762203,2.7873275614446498
1970-01-01 00:00:00.000000003,5.301844041177684,-20.134328338819987,-5.086507518261186,2.6624954726487267
1970-01-01 00:00:00.000000003,1.43290838239128,-15.978281038217643,-5.033995556240102,2.3925426438905673
1970-01-01 00:00:00.000000003,-3.5514282124170338,-11.677410684605999,-3.4795234917713866,2.038402273330596
1970-01-01 00:00:00.000000003,-9.521634835420762,-7.773772118767607,-1.3751033942106767,1.6827514158956776
1970-01-01 00:00:00.000000003,-16.59804096815699,-4.007865356498961,0.8083030137035745,1.3528544739569641
1970-01-01 00:00:00.000000003,-24.748714482720683,1.3283409562386552,2.7162182271501614,1.111650196369074
1970-01-01 00:00:00.000000003,-30.548338430948167,9.603559874656872,4.760077819064973,0.6425868802060158
1970-01-01 00:00:00.000000003,-33.87864626734051,17.699241340688786,5.7873485687959825,-0.02994139713083155
1970-01-01 00:00:00.000000003,-40.44888555245611,17.27736925872823,7.249746473214595,0.30080568453291245
1970-01-01 00:00:00.000000003,-40.29470932616824,17.733904946068577,11.14998250909328,0.34626853309853534
1970-01-01 00:00:00.000000003,-33.45275107071691,19.001371344891485,11.263088332071758,0.2621491213791516
1970-01-01 00:00:00.000000003,-24.37992156841285,17.986075591219258,6.636356682062321,0.4151093218406967
1970-01-01 00:00:00.000000003,-16.606621202850288,15.576407142018821,2.1222796076011807,0.6499374447938018
1970-01-01 00:00:00.000000003,-10.641367793955872,12.73099685900922,0.3192723388900568,0.7876786557959569
1970-01-01 00:00:00.000000003,-6.161115810205599,9.922255340286156,-0.24017916851371046,0.8795309032367278
1970-01-01 00:00:00.000000003,-2.8421048349970386,7.645813348926868,-0.578193868550357,0.9359691042893625
1970-01-01 00:00:00.000000003,-0.7554493766197168,6.560890305010209,-0.5748700580751352,0.9382174893305345
1970-01-01 00:00:00.000000003,0.5823751100065608,7.311928414363542,-1.629594171463489,0.9600039881335791
1970-01-01 00:00:00.000000003,2.3210021401750063,7.4923309701404746,-5.043018484104012,1.113441630094877
1970-01-01 00:00:00.000000003,3.5337952930335286,6.823950639645078,-5.688962039129045,1.1962602371276791
1970-01-01 00:00:00.000000003,5.060398043917997,6.016311622044865,-5.296981250612002,1.1979574466044238
1970-01-01 00:00:00.000000003,6.527770752526513,4.661672289860632,-4.534322593100665,1.1941973079698422
1970-01-01 00:00:00.000000003,7.629253377873532,3.4845127983983626,-3.494056168899799,1.1814398152712575
1970-01-01 00:00:00.000000003,8.696671204684458,2.5862353483427403,-1.889131885746372,1.1211371382853845
1970-01-01 00:00:00.000000003,9.858869841038437,2.033533668951427,-0.07281268415643971,1.0293523330136367
1970-01-01 00:00:00.000000003,11.250772315014052,1.8400121121026052,1.1940278122794488,0.9426116043233994
1970-01-01 00:00:00.000000003,12.807022549395493,1.6083160252036732,1.7730862830861531,0.8830810035865164
1970-01-01 00:00:00.000000003,14.178573675348174,1.5232963352744577,1.8680775979249402,0.8397486118743959
1970-01-01 00:00:00.000000003,15.180755060043959,1.7722134351379024,1.6665372688185496,0.7920572774372132
1970-01-01 00:00:00.000000003,15.601281041988607,1.8159139524578358,1.1178761991846113,0.7856427704228175
1970-01-01 00:00:00.000000003,15.360198629005518,1.9068299310888215,0.4154867590312623,0.8200615263277962
1970-01-01 00:00:00.000000003,14.89956912503266,2.2141666884744917,-0.604061203806455,0.902088294445554
1970-01-01 00:00:00.000000003,15.018109074471644,2.800513883314065,-1.8002960362139844,0.9615630017773809
1970-01-01 00:00:00.000000003,15.590915111029984,3.5296318715360155,-2.124008063440346,0.9404338165582455
1970-01-01 00:00:00.000000003,16.480843897680916,4.407332412654832,-2.140135912178959,0.8383331622754253
1970-01-01 00:00:00.000000003,16.720277500067578,5.521515789262337,-2.6064890462735786,0.7481314364798319
1970-01-01 00:00:00.000000003,16.12137208233975,6.71348946223321,-3.195172772402977,0.6515085399687283
1970-01-01 00:00:00.000000003,14.215187747364334,7.92306900249162,-3.7328064971495785,0.5233658066166692
1970-01-01 00:00:00.000000003,10.011618070052924,8.826835575543976,-3.2231406801322535,0.34722756166857716
1970-01-01 00:00:00.000000003,2.7036462490813937,8.734687793292698,-1.458795610324942,0.1853719670152838
1970-01-01 00:00:00.000000003,-8.262354688456563,8.372152833846286,0.19807719184640127,0.27063089071573243
1970-01-01 00:00:00.000000003,-19.322203420615875,11.266731127385293,2.5101721970061504,0.3253518416219622
1970-01-01 00:00:00.000000003,-25.756138482079532,20.48270607459485,6.729690596357809,-0.08261534540068904
1970-01-01 00:00:00.000000003,-24.374663369943764,29.675507459688916,10.600648477667837,-1.14639424194387
1970-01-01 00:00:00.000000003,-27.99661555767784,20.339423098648325,12.571246062315975,-0.5362040729571982
1970-01-01 00:00:00.000000003,-29.13766496866291,11.688851222571476,17.522930223618875,-0.13078335666078855
1970-01-01 00:00:00.000000003,-27.442059574007565,8.959943982579132,19.24825404719129,-0.044165132603102064
1970-01-01 00:00:00.000000003,-25.44127474802845,3.147189786007334,16.597482529487536,0.606275607802282
1970-01-01 00:00:00.000000003,-20.577615825640045,-1.0444443391920752,11.825149670160702,1.1053793169374433
1970-01-01 00:00:00.000000003,-16.08642279667741,-2.9057672972479307,6.872978211796877,1.4307829489378574
1970-01-01 00:00:00.000000003,-12.53775198888119,-2.82041477159759,5.836119963259408,1.3670155717728545
1970-01-01 00:00:00.000000003,-10.487300278135665,-2.0980363601155827,7.849655971978507,1.1264300171843586
1970-01-01 00:00:00.000000003,-9.115336348272383,-2.593399226622046,10.087759005061324,1.030159969589636
1970-01-01 00:00:00.000000003,-6.875752194920468,-4.01533149839259,10.42824842496422,1.096697774506696
1970-01-01 00:00:00.000000003,-3.9797450211903045,-6.093333025351663,8.702166673598898,1.3082954992012115
1970-01-01 00:00:00.000000003,-0.8843949192073326,-8.181222292066352,6.103689656242017,1.5511159504457397
1970-01-01 00:00:00.000000003,1.9031708382464203,-9.889374549816221,3.7577483555592632,1.732526825941164
1970-01-01 00:00:00.000000003,3.8293284481538117,-11.206359183888521,2.2310473129413384,1.853037071532627
1970-01-01 00:00:00.000000003,5.023790063840963,-12.092130516315024,1.8207219927156526,1.8900643567823143
1970-01-01 00:00:00.000000003,5.589506169048273,-12.815847343818511,2.1437639031797646,1.8944153268721666
1970-01-01 00:00:00.000000003,5.850427813968093,-14.015693967894912,2.730957192027866,1.9296006201398397
1970-01-01 00:00:00.000000004,6.0275043591013135,-15.994628448544677,2.9553416223720155,2.0684601101866926
1970-01-01 00:00:00.000000004,6.7292643824772185,-18.254520520025615,2.6480202348019857,2.2539733301701266
1970-01-01 00:00:00.000000004,7.962333610701226,-20.467744977989234,1.7008853314392245,2.4488977710479776
1970-01-01 00:00:00.000000004,9.227757982784158,-23.027666017398456,0.12281158234294898,2.713591708894943
1970-01-01 00:00:00.000000004,10.744405286352546,-24.906603447813428,-2.0123385642244997,2.9411097655545637
1970-01-01 00:00:00.000000004,11.935761616282985,-26.258222764952603,-4.263548507792695,3.1391736221740234
1970-01-01 00:00:00.000000004,12.710179487220294,-27.392443877336543,-5.430503817607392,3.239942714198577
1970-01-01 00:00:00.000000004,12.738939455759306,-27.768042370222975,-4.540335014695837,3.1593965665828967
1970-01-01 00:00:00.000000004,11.801247610695528,-27.68512146954568,-1.998962930042144,2.9737405851608285
1970-01-01 00:00:00.000000004,10.271794516768969,-26.820035023937645,0.22853818713043195,2.792198868815428
1970-01-01 00:00:00.000000004,8.747770387498774,-25.016937310374917,1.3583808489598193,2.6049130917351278
1970-01-01 00:00:00.000000004,6.860996336959611,-22.720916433688057,1.1141006572814258,2.4572078830136608
1970-01-01 00:00:00.000000004,4.129341487184681,-19.587007456615336,-0.1668641597739151,2.350896044704791
1970-01-01 00:00:00.000000004,0.9097516813610379,-15.721310714360364,-0.712458790611288,2.174356857064956
1970-01-01 00:00:00.000000004,-2.464416134142258,-11.843077609790726,-0.2742189654072269,1.9024406698564815
1970-01-01 00:00:00.000000004,-6.692833557303561,-8.370076297748207,0.48025517685724795,1.6136470337847797
1970-01-01 00:00:00.000000004,-12.552989224342356,-5.639368375197495,1.250722794766274,1.4260406490297797
1970-01-01 00:00:00.000000004,-19.491806343749357,-2.9077702661766995,1.524359848239611,1.374947408910461
1970-01-01 00:00:00.000000004,-25.57683653541904,4.8587114442577555,3.386133363534423,1.1770769998676895
1970-01-01 00:00:00.000000004,-30.871233113005125,16.189092198967966,4.747353905021416,0.2217988102152515
1970-01-01 00:00:00.000000004,-41.164917935579595,21.483627077920556,7.27927122208707,0.017894310853283635
1970-01-01 00:00:00.000000004,-48.12128599203028,25.63070354759288,12.804833734035329,-0.007233489604693721
1970-01-01 00:00:00.000000004,-44.723487268903035,29.590564686063352,15.996435575843329,-0.19844826633779444
1970-01-01 00:00:00.000000004,-34.945696618972704,25.626040151450006,13.660423989065896,0.1801817586826875
1970-01-01 00:00:00.000000004,-22.443653418057597,18.29254385857812,7.5650365844272365,0.7629344911283855
1970-01-01 00:00:00.000000004,-11.80814867708945,11.62063758212726,1.6935573424375934,1.2365973386182942
1970-01-01 00:00:00.000000004,-4.795128167675205,6.828088119771259,-0.9755710776988544,1.4581651973454401
1970-01-01 00:00:00.000000004,-0.9896268065354128,4.839208817489509,-1.1825092745138488,1.4548844403679095
1970-01-01 00:00:00.000000004,0.976488480596404,4.434434010080764,-0.5982952765398333,1.3971530350898977
1970-01-01 00:00:00.000000004,2.6316088322958247,4.279728896981524,-0.3322437497712382,1.3770212342162331
1970-01-01 00:00:00.000000004,4.588221521615908,4.024297373066011,-0.9662348026378189,1.4080257382606973
1970-01-01 00:00:00.000000004,6.6425685519998385,3.252415634517635,-2.1299804627331,1.4853434424057657
1970-01-01 00:00:00.000000004,8.352237612260494,1.9767964149529123,-3.1073660351131953,1.6016731476041453
1970-01-01 00:00:00.000000004,9.97070379050567,0.8684675779279116,-4.521522476606223,1.7267658364895897
1970-01-01 00:00:00.000000004,11.276995237829883,0.0664335968634531,-6.12913542549208,1.8351641302440387
1970-01-01 00:00:00.000000004,11.999342352272576,-0.23834393544476806,-6.878717484510048,1.8786364921358274
1970-01-01 00:00:00.000000004,12.444059721850202,0.21934350229755545,-6.6251733001094015,1.8286387984596026
1970-01-01 00:00:00.000000004,12.957590476327544,0.6820716746841935,-5.729508441238354,1.735618528345376
1970-01-01 00:00:00.000000004,13.567557325328446,0.8494266784766317,-4.668719649025215,1.655450716033021
1970-01-01 00:00:00.000000004,14.414010676166775,0.6818171437516263,-4.146553582875649,1.6104735889794788
1970-01-01 00:00:00.000000004,15.144296497285033,0.08877900529939578,-3.759084286135231,1.5760332737615161
1970-01-01 00:00:00.000000004,15.195643575305947,-0.44272734905630207,-2.7566654911639534,1.5040357390595782
1970-01-01 00:00:00.000000004,14.440531482145666,-0.12787915330803185,-1.7563456987799242,1.4170242422251071
1970-01-01 00:00:00.000000004,13.407063665475293,0.641285231727277,-1.513373353906132,1.3764681078726686
1970-01-01 00:00:00.000000004,12.575006389244097,1.5984342807848537,-1.9488809858453764,1.3730228260437882
1970-01-01 00:00:00.000000004,12.11643949256145,2.472787003076795,-2.6500666103058768,1.3710491337891477
1970-01-01 00:00:00.000000004,11.729686173665325,3.374984398060485,-3.144747896641373,1.32302766690163
1970-01-01 00:00:00.000000004,10.820562459789626,4.780153610550207,-3.3797647330171885,1.198614023415324
1970-01-01 00:00:00.000000004,8.691732652228389,6.918185145223016,-2.879877836395116,0.9881273086063102
1970-01-01 00:00:00.000000004,5.153013147993456,10.02265554640712,-1.8651266137153824,0.7121878297570701
1970-01-01 00:00:00.000000004,0.4110563688500928,13.612484305695238,-0.5595710359945449,0.3794680776264363
1970-01-01 00:00:00.000000004,-6.129725434671087,17.132712899127455,1.3750008336256536,0.12129674278618752
1970-01-01 00:00:00.000000004,-12.831263076204829,18.658935894408458,4.122765467549319,0.053270186128836716
1970-01-01 00:00:00.000000004,-17.43624864130872,18.284075711348613,6.3151862516535395,0.1620720290062012
1970-01-01 00:00:00.000000004,-18.331341142830283,20.51945702887398,10.1456120439666,-0.44942240122498056
1970-01-01 00:00:00.000000004,-24.841156291947062,17.179740291875262,14.429815159071879,-0.13844635358777047
1970-01-01 00:00:00.000000004,-25.35909973832268,14.016530394038668,16.142396793254708,0.11392468150218416
1970-01-01 00:00:00.000000004,-23.22024002857389,7.994544008515573,14.89286192015279,0.6619307003603814
1970-01-01 00:00:00.000000004,-18.995086873802748,0.9021876538235732,13.780904868812602,1.29378833103622
1970-01-01 00:00:00.000000004,-11.551733775595945,-8.071870126202054,12.005176766864507,1.803515751561095
1970-01-01 00:00:00.000000004,-5.689885014564305,-13.67029202000189,9.906256877806154,2.0430802872569065
1970-01-01 00:00:00.000000004,-3.5174846697338182,-15.387329731893317,8.102443615857439,2.2178909711976615
1970-01-01 00:00:00.000000004,-1.8308927668561856,-15.271620456980271,5.625711034482261,2.325520504084055
1970-01-01 00:00:00.000000004,-0.5961219972645028,-14.48077984044979,3.6323970812879205,2.3813596900625766
1970-01-01 00:00:00.000000004,0.5392884963315,-13.98296540252123,2.425479992934529,2.417215245114976
1970-01-01 00:00:00.000000004,1.8320315363482123,-13.735289796412344,1.6795589591559317,2.427002444119781
1970-01-01 00:00:00.000000004,3.0907397757792854,-13.78737870616914,1.2550922987186104,2.413885425428608
1970-01-01 00:00:00.000000004,3.8594609380764315,-14.089249927155281,1.1426184492456697,2.4021436703183423
1970-01-01 00:00:00.000000004,4.099295422726313,-14.393087364572333,1.3248877933655434,2.392829920484401
1970-01-01 00:00:00.000000004,4.078526385394586,-14.321019707389576,1.5824411805323253,2.376907676535246
1970-01-01 00:00:00.000000004,4.146181141383644,-14.38524514142582,1.790223674527557,2.3924312243542243
1970-01-01 00:00:00.000000004,4.723298880605485,-15.057577685544047,1.7766194572748808,2.4613110914584952
1970-01-01 00:00:00.000000004,5.93809846737329,-16.347319392128895,1.0005346480289308,2.6045555060264
1970-01-01 00:00:00.000000004,7.701876217965606,-17.886364225716044,-0.3285022842736349,2.7649235323409007
1970-01-01 00:00:00.000000004,9.46143578828302,-19.458255347137253,-1.7438369683499633,2.8941935071117495
1970-01-01 00:00:00.000000004,10.42256332196116,-20.874723740397847,-2.393289454583188,2.959661851135171
1970-01-01 00:00:00.000000004,10.305578748728653,-21.50984452268713,-1.475537184478221,2.8856718793223575
1970-01-01 00:00:00.000000004,9.013405419282224,-20.84386782013795,0.3509960256882412,2.7202437274516855
1970-01-01 00:00:00.000000004,7.2550476187454045,-19.507949196471095,1.9690673026271246,2.5471004713061305
1970-01-01 00:00:00.000000004,5.378786316321161,-17.748913796201332,2.935667833624308,2.3928699710605104
1970-01-01 00:00:00.000000004,3.3999421329535173,-15.686832097485308,2.8198554087086705,2.3058342356737405
1970-01-01 00:00:00.000000004,1.6496336166571126,-13.387461285508778,2.108519751902908,2.2423002273903103
1970-01-01 00:00:00.000000004,0.15552709127028086,-11.268918404310671,1.115882099610718,2.2115303956719963
1970-01-01 00:00:00.000000004,-0.9715410848448006,-10.323690009278819,0.31994255918706893,2.238220362220636
1970-01-01 00:00:00.000000004,-1.7017481552729885,-10.40235026061977,0.0909285840379136,2.2583352547493973
1970-01-01 00:00:00.000000004,-2.663923655370846,-10.511519046137163,-0.5866228088456635,2.234633782197287
1970-01-01 00:00:00.000000004,-5.52704488239779,-9.728770431829158,-2.2498508696163757,2.2262247026982216
1970-01-01 00:00:00.000000004,-10.606507520220248,-6.421451357410307,-2.915519414957032,2.0868187313606414
1970-01-01 00:00:00.000000004,-16.51172440967663,1.1276568675719,-2.9411002484025017,1.615508414726606
1970-01-01 00:00:00.000000004,-23.98060289663232,10.225614855242842,-3.1367592185192557,1.1088908245154823
1970-01-01 00:00:00.000000004,-32.415670564134864,16.800444657830035,-1.16489821777206,0.8805985659032242
1970-01-01 00:00:00.000000004,-36.71405045212229,19.527577836924227,4.075694269430005,0.7780116704946766
1970-01-01 00:00:00.000000004,-33.68406030073616,20.436757039497877,8.201243592755542,0.5878709226928696
1970-01-01 00:00:00.000000004,-26.85452955740182,19.761066860699856,7.854087366151305,0.5602621582609051
1970-01-01 00:00:00.000000004,-19.65808571703093,17.10097960130667,5.098046695238261,0.7476930371263769
1970-01-01 00:00:00.000000005,-13.397276341788379,13.347040539155438,2.9248315698570497,0.9786622935929397
1970-01-01 00:00:00.000000005,-8.2465392893086,9.75865699986173,1.8619477348736404,1.1352852187211764
1970-01-01 00:00:00.000000005,-4.449668359680973,7.714289933454537,1.175348748074824,1.2211843730888716
1970-01-01 00:00:00.000000005,-1.3474831484253063,6.765998437204498,-0.6387043030597495,1.2950743733387258
1970-01-01 00:00:00.000000005,0.5958945321535173,5.594353705883991,-1.2936790958711288,1.3420638267402238
1970-01-01 00:00:00.000000005,1.7274160584456442,5.43526825816558,-0.886914648958518,1.3139198700161805
1970-01-01 00:00:00.000000005,2.9427463325865304,5.8616466738837385,-1.1992590167116417,1.307084357860269
1970-01-01 00:00:00.000000005,4.557326238905797,5.246252110241608,-1.5760186287096638,1.363972250623716
1970-01-01 00:00:00.000000005,6.5536177403310125,3.7487744813652633,-1.6416297797237247,1.4513348725720072
1970-01-01 00:00:00.000000005,8.923932182020222,2.439715458637491,-1.7789288518137276,1.510680165704139
1970-01-01 00:00:00.000000005,11.308962445273036,0.9125495205437218,-2.1004426005502,1.595590505002993
1970-01-01 00:00:00.000000005,13.776686918850933,-0.45396158678132237,-2.0861045458659944,1.6367345714188437
1970-01-01 00:00:00.000000005,16.131497092902467,-0.9002643967330817,-1.955132170925262,1.5850451750786665
1970-01-01 00:00:00.000000005,17.808431427913618,-0.7577597010853021,-1.8570466451894911,1.4744568644982454
1970-01-01 00:00:00.000000005,18.132276173450972,0.35168504763026415,-2.0241946689906802,1.3557770314407924
1970-01-01 00:00:00.000000005,17.43167949223982,1.9174912365949344,-2.381974168066382,1.2653125187621572
1970-01-01 00:00:00.000000005,16.309875514851523,2.8391778501055702,-2.12050835912913,1.1958147696765264
1970-01-01 00:00:00.000000005,15.011866089446185,3.1350023388858776,-1.477059905789872,1.135932170000791
1970-01-01 00:00:00.000000005,13.714256153901493,3.1878930241714065,-0.8781013728390157,0.5759158295696557
1970-01-01 00:00:00.000000005,12.524871979475808,3.4965690507013236,-0.6732174239045062,0.5613111420619302
1970-01-01 00:00:00.000000005,11.742907573084125,4.334862778957202,-0.9333776383894363,0.5339326170187547
1970-01-01 00:00:00.000000005,10.94431711310157,5.315263971249511,-1.2574408225041762,0.46446368427364204
1970-01-01 00:00:00.000000005,9.390309793693525,6.65108151039001,-1.0437075036127053,0.3194601007031712
1970-01-01 00:00:00.000000005,6.490387175125898,9.108006522530507,-0.3285920617894148,0.09408492468476515
1970-01-01 00:00:00.000000005,2.3046306310399256,12.306712863174116,0.46334010053863994,-0.14849269225132922
1970-01-01 00:00:00.000000005,-2.8624778395401274,15.107215357465934,1.5227493506279022,-0.3303568644523902
1970-01-01 00:00:00.000000005,-8.220759841407167,17.27990686182978,3.3426974398388554,-0.49028139781608626
1970-01-01 00:00:00.000000005,-13.11389246449574,19.96044076866221,6.99025238174531,-0.8080138431350035
1970-01-01 00:00:00.000000005,-17.525351904073023,24.08768875542704,11.829811730661808,-1.3013413267292264
1970-01-01 00:00:00.000000005,-21.544913402049385,25.78909474902891,15.546603467285593,-1.607206680670107
1970-01-01 00:00:00.000000005,-26.198409635146984,21.05594681566685,17.26655923336216,-1.1661055273274852
1970-01-01 00:00:00.000000005,-27.094551897846298,17.515953942199737,16.194980501716444,-0.7441017122257331
1970-01-01 00:00:00.000000005,-26.16717732487052,13.528822629837695,12.65192731909304,-0.18157151993346465
1970-01-01 00:00:00.000000005,-23.69266703689577,6.984130864166358,10.878930914543691,0.40260065149331614
1970-01-01 00:00:00.000000005,-19.793320994189692,0.07675184385361034,9.363248514786445,0.9248864281758096
1970-01-01 00:00:00.000000005,-15.3274568254944,-5.313592615864062,8.027017448945214,1.2566275502314646
1970-01-01 00:00:00.000000005,-11.778519445897173,-9.174263876441664,7.235711202475985,1.4626022005384423
1970-01-01 00:00:00.000000005,-9.171760067402127,-11.631340067307361,6.847376998660078,1.5828800217831298
1970-01-01 00:00:00.000000005,-7.10933997482107,-12.840516296582948,6.424869405620274,1.6456162086033665
1970-01-01 00:00:00.000000005,-5.30543986981257,-13.562869937270428,6.123826956249038,1.6875437903926387
1970-01-01 00:00:00.000000005,-3.464569193381026,-14.346853234035265,5.4285771887866865,1.7672410844040893
1970-01-01 00:00:00.000000005,-1.3741564201062915,-15.051730527723945,4.198193994949108,1.8674585191985915
1970-01-01 00:00:00.000000005,0.8390793350422988,-15.808295966547538,2.4142357228030136,1.9847701586446083
1970-01-01 00:00:00.000000005,2.7584179588874167,-16.73234110461276,0.776089985179335,2.1003114053762237
1970-01-01 00:00:00.000000005,4.239316221962014,-17.60939597515639,-0.10428824012024784,2.168211846077319
1970-01-01 00:00:00.000000005,5.2349926020170585,-18.326359258842018,-0.19688150265846738,2.175455581202157
1970-01-01 00:00:00.000000005,5.619122266208413,-18.724696648177414,0.5160950337426378,2.135752388504885
1970-01-01 00:00:00.000000005,5.740962811296244,-18.740895991008387,1.3810016646497196,2.078469336092842
1970-01-01 00:00:00.000000005,5.872584687587502,-18.563928018466942,1.9865170023823862,2.0375429533073284
1970-01-01 00:00:00.000000005,6.25871183489249,-18.71699096366032,2.273126943613078,2.0424161238664795
1970-01-01 00:00:00.000000005,7.050384490045265,-18.89495199495113,1.5377864805814077,2.0966245732214146
1970-01-01 00:00:00.000000005,7.988997891347177,-18.92686021303499,0.01696071906993013,2.1753562168198233
1970-01-01 00:00:00.000000005,8.758114045810991,-19.104786386199628,-1.554359694899485,2.2525368284309604
1970-01-01 00:00:00.000000005,9.012419883041996,-19.091910175935972,-2.674210442937512,2.29265636595773
1970-01-01 00:00:00.000000005,8.722730027825273,-18.63921603031413,-2.6617499306559442,2.2258135629085225
1970-01-01 00:00:00.000000005,7.606568385195042,-17.737116495088014,-1.5132315373156515,2.073172156752867
1970-01-01 00:00:00.000000005,5.735136257027114,-15.917248488103779,-0.34982072790826024,1.934571695100547
1970-01-01 00:00:00.000000005,4.463550441073576,-14.227191553074567,0.11947301443246683,1.8007209183247013
1970-01-01 00:00:00.000000005,2.964390858475388,-13.549079281528867,0.9934362809658155,1.6917934397704297
1970-01-01 00:00:00.000000005,0.8467459026004288,-12.940888295008797,1.360367324840641,1.623818885396033
1970-01-01 00:00:00.000000005,-2.069359258038435,-11.964191630862684,0.12719454257758123,1.6310856954915667
1970-01-01 00:00:00.000000005,-6.273581437005439,-11.50622586258014,-2.840054799542222,1.8406109453031223
1970-01-01 00:00:00.000000005,-11.12960873530051,-11.553045079999409,-7.657812551415704,2.3053275832175784
1970-01-01 00:00:00.000000005,-14.620219696263408,-10.490850098747098,-12.485742890024635,2.677431176951231
1970-01-01 00:00:00.000000005,-16.278855094182305,-6.171869596040212,-10.929207489116688,2.1024083613211078
1970-01-01 00:00:00.000000005,-22.499276045758325,-1.2294670616509484,-3.432697383438681,1.096812688129334
1970-01-01 00:00:00.000000005,-34.98126397171127,2.511428411215905,6.781547616023618,0.6357598746452877
1970-01-01 00:00:00.000000005,-41.65669986118314,11.595857984950175,14.592306836546232,-0.03441607551367598
1970-01-01 00:00:00.000000005,-41.65184994481899,21.303212037275113,15.187211825560645,-0.4994628819555331
1970-01-01 00:00:00.000000005,-37.53546823730755,23.49809637382058,11.119641805933322,-0.2047962082203887
1970-01-01 00:00:00.000000005,-28.108716756581675,20.47579661958594,6.873523498344398,0.13942800043333559
1970-01-01 00:00:00.000000005,-18.271744174020302,14.487455952633983,3.8545362469992908,0.44745199427737303
1970-01-01 00:00:00.000000005,-10.851476052148666,8.669428225116112,4.682869294220847,0.5147461453633474
1970-01-01 00:00:00.000000005,-6.2703316546843695,5.9197663520988595,7.165594923561336,0.37241033385386246
1970-01-01 00:00:00.000000005,-3.4643297031316154,6.237037082736034,8.11096744311835,0.20216284659713035
1970-01-01 00:00:00.000000005,-1.5087900780411643,7.6918186627745095,6.792109821634351,0.13662648199175653
1970-01-01 00:00:00.000000005,-0.010304845181260958,9.037726681336403,4.62165761017004,0.17146821306415871
1970-01-01 00:00:00.000000005,1.6811737795324846,9.928798438759657,3.094642358407436,0.18406815291449052
1970-01-01 00:00:00.000000005,3.3208610064974615,9.8639258689208,2.257780770577212,0.2115227960963687
1970-01-01 00:00:00.000000005,4.868859237204361,9.521893223045655,1.7401316481210738,0.24079671935418578
1970-01-01 00:00:00.000000005,6.369187612105965,8.88041179972955,1.378994375109197,0.2822654496071749
1970-01-01 00:00:00.000000005,7.872373880077878,8.106262322724914,1.0997534328995844,0.32646354983502623
1970-01-01 00:00:00.000000005,9.36236681287783,7.2359522458586465,0.8116296451956194,0.36858790467741265
1970-01-01 00:00:00.000000005,10.666830393054948,6.684404265544243,0.7342029374677953,0.3844220032640703
1970-01-01 00:00:00.000000005,11.903339589875873,6.498009288926229,1.0168960315249627,0.35490872526562267
1970-01-01 00:00:00.000000005,13.071134452423209,6.544780868703869,1.254924246946215,0.3201040888709541
1970-01-01 00:00:00.000000005,14.312483102669722,6.629178059448552,1.034162529393122,0.29506174434342736
1970-01-01 00:00:00.000000005,15.293760185848646,6.737451252245886,0.4618885625069209,0.28004370096360176
1970-01-01 00:00:00.000000005,15.64289983393182,6.5115263741831715,-0.5836507187136928,0.33469498138949594
1970-01-01 00:00:00.000000005,15.526222126889389,6.149224695712067,-1.8949941227641445,0.42124081828821713
1970-01-01 00:00:00.000000005,14.829567403560626,5.212995821518533,-3.1357351844423405,0.5733187005914369
1970-01-01 00:00:00.000000005,14.10413319265547,4.125220656304274,-3.1212976861633286,0.670978445419268
1970-01-01 00:00:00.000000005,13.715687884213578,3.9029674893104955,-2.6542967513538427,0.6171610930655096
1970-01-01 00:00:00.000000005,12.467847745985686,5.80813888399857,-2.241477271470809,0.3846645729919378
1970-01-01 00:00:00.000000005,9.170222401826448,8.773977843427772,-0.7583941135812968,0.0900340192163337
1970-01-01 00:00:00.000000005,4.829805955427142,11.18308788599308,-0.14133879778239322,-0.2708648799860516
1970-01-01 00:00:00.000000005,-4.313864360211094,14.512915094227331,1.0357665892984154,-0.47080958627481495
1970-01-01 00:00:00.000000006,-14.427118652894254,19.12303920110927,4.68945625180481,-0.6445182297460634
1970-01-01 00:00:00.000000006,-20.185016142265905,24.59974290461679,9.12015177832486,-1.0515268712522865
1970-01-01 00:00:00.000000006,-22.80313748856851,29.352726246533127,12.337348785956124,-1.6249440943531888
1970-01-01 00:00:00.000000006,-28.019540292245296,23.296751832611108,14.11115152332308,-1.1100214187280963
1970-01-01 00:00:00.000000006,-29.654322068866986,16.067526001877834,15.821695111677892,-0.5986252666718651
1970-01-01 00:00:00.000000006,-29.0222678658772,10.390834017021003,14.689000290910561,-0.09942080575846024
1970-01-01 00:00:00.000000006,-27.434925735693326,3.2583491131622244,13.55466939838035,0.5266763433896369
1970-01-01 00:00:00.000000006,-23.707638335922535,-3.777833604521636,12.924647822478407,1.046312611121156
1970-01-01 00:00:00.000000006,-18.579023871286314,-9.399883628847155,11.520794614935882,1.4227931400038631
1970-01-01 00:00:00.000000006,-13.587319022960196,-12.838594342926745,9.317236812215267,1.6385883771309406
1970-01-01 00:00:00.000000006,-10.200579287369372,-14.88560199439676,7.651160950654354,1.7647108550326398
1970-01-01 00:00:00.000000006,-8.128986838511779,-15.104395053746568,5.982373307491349,1.8159253375125113
1970-01-01 00:00:00.000000006,-6.9709901762531965,-14.0947186707396,3.46126413763328,1.942675220549312
1970-01-01 00:00:00.000000006,-4.819941247565619,-13.407116695327266,1.517650769502768,2.021254154937677
1970-01-01 00:00:00.000000006,-2.0368693616353077,-13.832818781059183,0.8299199609790003,2.0348564615284737
1970-01-01 00:00:00.000000006,0.4473114215526637,-15.068537756838634,1.1506408133625927,2.019379119486631
1970-01-01 00:00:00.000000006,2.2187785469561536,-16.58856851564884,2.166514137746164,2.0065680792688907
1970-01-01 00:00:00.000000006,3.5093191215844803,-18.368164969837647,3.0498881016266823,2.2016623933391424
1970-01-01 00:00:00.000000006,4.576905898152094,-19.768896483584026,3.2634537925579616,2.2545783987396013
1970-01-01 00:00:00.000000006,5.3948259912424685,-20.275851390557765,2.9295529938117846,2.271415740471846
1970-01-01 00:00:00.000000006,5.65159881133058,-20.66822599385915,2.595342107976144,2.317784333084318
1970-01-01 00:00:00.000000006,5.966787548020961,-20.939657034922504,2.2212773302602846,2.3686273329891385
1970-01-01 00:00:00.000000006,6.533610364872582,-21.138704761478404,1.4429549966218052,2.4322355166605587
1970-01-01 00:00:00.000000006,7.2704740955759135,-21.35374235901429,0.44013674450879026,2.486633454294038
1970-01-01 00:00:00.000000006,7.722712935687186,-21.584443637041034,-0.23136760001855006,2.5180357156126423
1970-01-01 00:00:00.000000006,7.780511121460458,-21.428652033818416,-0.1894781377342427,2.4811873459906293
1970-01-01 00:00:00.000000006,7.375839965612468,-20.805663438054086,0.2989557191954416,2.3907931356044525
1970-01-01 00:00:00.000000006,6.476482549049674,-19.826108981791233,0.7594343678617652,2.3016517986484164
1970-01-01 00:00:00.000000006,5.434205913470143,-18.29124344667497,0.9138078367070899,2.1951137230058624
1970-01-01 00:00:00.000000006,4.142142665489876,-16.374687245769145,0.3261540558936873,2.112468226642086
1970-01-01 00:00:00.000000006,2.538383961116467,-14.344132718944838,-0.6264688574308165,2.0559805379455236
1970-01-01 00:00:00.000000006,0.7237393358634757,-12.5494208340345,-1.3733378748185874,1.9997543010621661
1970-01-01 00:00:00.000000006,-1.4238103790537835,-11.222931359271062,-1.6863553219554452,1.9379567029166163
1970-01-01 00:00:00.000000006,-4.133058903119469,-10.219890327075321,-1.658420278769463,1.808184888363337
1970-01-01 00:00:00.000000006,-9.045847742776095,-8.877587966322078,-2.004472699379377,1.7028274598021385
1970-01-01 00:00:00.000000006,-16.346798555440095,-4.580707432636366,-1.5680652734893257,1.5457065287468092
1970-01-01 00:00:00.000000006,-22.55934037332506,5.273756517727843,0.24197954775566344,0.8397907204177308
1970-01-01 00:00:00.000000006,-29.70726011102497,15.669306723455852,1.0486863750597217,0.05908890616752682
1970-01-01 00:00:00.000000006,-40.57384799582009,19.455498290382796,3.7305258536583374,0.14685569237523288
1970-01-01 00:00:00.000000006,-43.87309675085486,25.208648688247454,7.755013245083261,-0.031210969200396788
1970-01-01 00:00:00.000000006,-38.96516514842759,29.506823473758097,7.733638945049098,-0.17747200785872663
1970-01-01 00:00:00.000000006,-29.895807899128584,25.647476658624385,5.475129826645873,0.14463098388639772
1970-01-01 00:00:00.000000006,-19.21828115673881,17.965062143017853,2.8348822083073646,0.5557970781770964
1970-01-01 00:00:00.000000006,-10.379791596218714,9.923723219931695,1.5812118147270224,0.8596848154376188
1970-01-01 00:00:00.000000006,-4.788151100653572,5.716575169210335,2.0989471633946732,0.8800759841790868
1970-01-01 00:00:00.000000006,-1.958197819700593,5.327570401451734,2.4941256496336104,0.7894034815701056
1970-01-01 00:00:00.000000006,-0.14016511843020252,6.531211528502046,0.6458312352283527,0.8204765481973005
1970-01-01 00:00:00.000000006,2.099193572079378,6.581580987090366,-1.7402421794815284,0.9131761102116622
1970-01-01 00:00:00.000000006,3.8526081361390085,4.879869747866304,-1.6739754563009408,1.0269457239141693
1970-01-01 00:00:00.000000006,6.283805840729245,3.7896289441594995,-3.0923684017840425,1.1623578457987294
1970-01-01 00:00:00.000000006,8.89707190533654,2.9044821535597256,-5.105600982748713,1.3043591932390193
1970-01-01 00:00:00.000000006,11.40232758700705,1.978593130480557,-6.411654203903776,1.3858169716502784
1970-01-01 00:00:00.000000006,13.4280206609746,0.7861624043877787,-5.990432487680761,1.3646017477590369
1970-01-01 00:00:00.000000006,14.666045878159533,-0.6758175927027773,-3.7536323441690396,1.2680935086194667
1970-01-01 00:00:00.000000006,15.397771369320157,-1.7415766132174337,-1.3159800107379778,1.1488564505799062
1970-01-01 00:00:00.000000006,15.788379324445538,-2.259970346133672,0.30895267227790557,1.0710839465402997
1970-01-01 00:00:00.000000006,16.196517824274242,-2.6854123195804576,0.24991257505259687,1.0958931902873974
1970-01-01 00:00:00.000000006,16.65540156243477,-2.8620425387578203,-0.6771934020769298,1.135424606468312
1970-01-01 00:00:00.000000006,16.589339116152942,-2.705705900853933,-1.650104105102889,1.177874181851858
1970-01-01 00:00:00.000000006,16.278450178592944,-2.402153495437816,-2.08575414684056,1.1903142638603879
1970-01-01 00:00:00.000000006,15.920015221474278,-2.406230002897747,-1.9190493865228748,1.1900920869159868
1970-01-01 00:00:00.000000006,15.66315740445366,-2.577941277720967,-1.4904639841966563,1.1635600594196687
1970-01-01 00:00:00.000000006,15.131426288736906,-2.2946585289072763,-1.1699522201257904,1.1128281555441526
1970-01-01 00:00:00.000000006,14.198541250948736,-1.6848640186332768,-1.4052709750574157,1.0590477958826754
1970-01-01 00:00:00.000000006,12.420394303529214,0.029923467488700783,-1.7957706647444969,0.9413284464360514
1970-01-01 00:00:00.000000006,9.483370084937107,3.380209656646507,-2.193124957225507,0.7275049451773178
1970-01-01 00:00:00.000000006,5.231572709612125,7.969240141629444,-1.9351003006818877,0.41808062448186467
1970-01-01 00:00:00.000000006,-0.18732101218162,13.054085663491998,-0.7897716650418929,0.058756083444651885
1970-01-01 00:00:00.000000006,-6.310478177836655,17.780449715120103,1.1506422870159936,-0.30901675754298474
1970-01-01 00:00:00.000000006,-13.015416787696534,21.36563390610968,3.454690675832232,-0.5713586042785257
1970-01-01 00:00:00.000000006,-19.169457010949372,26.753475045090806,6.787815255703232,-0.9725835912600513
1970-01-01 00:00:00.000000006,-23.57946208299297,34.69928703656968,10.037415953383519,-1.734030963046678
1970-01-01 00:00:00.000000006,-30.64854870970832,34.662903141000456,12.508043684360816,-1.5773515408229875
1970-01-01 00:00:00.000000006,-33.20543802550194,31.60965752126477,14.090323275182765,-1.210628216882092
1970-01-01 00:00:00.000000006,-31.384633774552185,24.93190701525301,11.564741827677485,-0.49228056142191146
1970-01-01 00:00:00.000000006,-26.712970462274807,14.685067009214965,9.29094119075764,0.28556084860662745
1970-01-01 00:00:00.000000006,-21.5433722408625,4.797618920032502,8.023387009260247,0.9184128317504417
1970-01-01 00:00:00.000000006,-16.871138478725264,-2.3092304371601187,7.180633790446182,1.334984011300552
1970-01-01 00:00:00.000000006,-12.948123150271298,-6.463052555543029,6.537513500599307,1.5432163126451526
1970-01-01 00:00:00.000000006,-10.049200083647218,-9.344389079031664,6.431030209205187,1.6639285850567016
1970-01-01 00:00:00.000000006,-7.758544246768105,-11.50141014606238,6.934344580190201,1.7001705876033066
1970-01-01 00:00:00.000000006,-6.285761703591363,-13.374026676108393,7.1159316444744105,1.7936081402449036
1970-01-01 00:00:00.000000006,-4.67135776745991,-14.667187415872286,6.875932513610922,1.890644563469122
1970-01-01 00:00:00.000000006,-2.648732234060868,-16.35179392965779,6.072485845806069,2.025307367675063
1970-01-01 00:00:00.000000006,-0.5949682134184701,-18.642182560082023,4.520251447959479,2.214993160032166
1970-01-01 00:00:00.000000006,0.8704780711461018,-20.38951938115023,3.3219190605064606,2.3603964360681564
1970-01-01 00:00:00.000000006,1.8737906067882646,-21.273465227728593,3.5229386889602483,2.350358788521314
1970-01-01 00:00:00.000000006,2.01129845480128,-21.518906893429754,4.27256041551224,2.3076983995671174
1970-01-01 00:00:00.000000006,2.0011308649127026,-21.170884240964913,4.9023291837803376,2.2569073251693945
1970-01-01 00:00:00.000000006,2.2481230890466417,-20.71112316730988,4.974171991870315,2.2459164967882206
1970-01-01 00:00:00.000000006,3.048068079362648,-20.83783844131969,4.591917431800442,2.3077135946628626
1970-01-01 00:00:00.000000006,4.653932908941529,-21.988053082790596,3.4300603322727734,2.468084896108106
1970-01-01 00:00:00.000000006,6.926475623588368,-24.196518979777522,1.4127873538133828,2.7069270859727648
1970-01-01 00:00:00.000000006,9.152138762222306,-26.74300939695863,-0.7098518050676446,2.9271690708683717
1970-01-01 00:00:00.000000006,10.395768774712758,-28.206131160042105,-1.4201825125759522,2.9685140770052243
1970-01-01 00:00:00.000000006,9.999060178911126,-27.97985511838944,-0.042399228693087876,2.798660485530497
1970-01-01 00:00:00.000000006,8.12973930075608,-26.28438591162042,2.2409744627142536,2.5441628286380773
1970-01-01 00:00:00.000000006,5.775378054454226,-23.73927239698359,3.5080018203555294,2.3363006575435428
1970-01-01 00:00:00.000000006,3.573334520302332,-20.515527707011035,3.385515786810857,2.1796686964313423
1970-01-01 00:00:00.000000007,1.639214961755723,-17.340149574417865,2.490750541434611,2.087852935467592
1970-01-01 00:00:00.000000007,0.27843031537881824,-14.795704520126467,1.2375551140683505,2.04843951480642
1970-01-01 00:00:00.000000007,-0.5924226541734342,-13.299119570689825,-0.2320095632821776,2.048039534080787
1970-01-01 00:00:00.000000007,-1.7216831882149872,-12.689703561352744,-1.1609929955409006,2.0727209039890617
1970-01-01 00:00:00.000000007,-3.0563759754711763,-12.503475274633754,-1.045400005121807,1.9680988562923512
1970-01-01 00:00:00.000000007,-6.477406213900606,-10.542625336240842,-0.7033036252301494,1.6607244048902299
1970-01-01 00:00:00.000000007,-14.295687086255816,-5.8646015334225465,-0.6609906056458626,1.387540017658131
1970-01-01 00:00:00.000000007,-23.934624464391245,1.3448244007098,0.5029977396696953,1.1825692102251777
1970-01-01 00:00:00.000000007,-29.330307285077808,13.162682426818451,-0.02024834904113193,0.5129234041209412
1970-01-01 00:00:00.000000007,-35.22900370649769,23.60111029766739,-2.7461939895013003,-0.046855453212953035
1970-01-01 00:00:00.000000007,-44.45558738062349,27.499856862647057,3.8055718849514855,0.13781328304245033
1970-01-01 00:00:00.000000007,-38.24013688651001,28.650499291095453,9.377109180483302,-0.11843893588124588
1970-01-01 00:00:00.000000007,-26.946769735880867,23.356442969999993,5.169194961167776,0.44042709270249614
1970-01-01 00:00:00.000000007,-12.706372206401642,13.145616675013427,0.3633105471555003,0.9153988864253942
1970-01-01 00:00:00.000000007,-3.995964864844681,5.5239434889817405,0.9639260456497745,0.9573517458702046
1970-01-01 00:00:00.000000007,-1.1150953275743116,3.9498766407954164,2.361711798690293,0.8653900368400322
1970-01-01 00:00:00.000000007,0.5847510356798404,3.990971287405913,2.920537993899576,0.759697395190057
1970-01-01 00:00:00.000000007,2.1792240900715787,4.232358515922041,1.9188244333559203,0.7963425922048513
1970-01-01 00:00:00.000000007,4.103021018849915,3.9448734167717094,0.049886480992569926,0.8776099307787734
1970-01-01 00:00:00.000000007,5.466602016884712,3.0904796250201882,-0.7606335584507126,0.9342739890835505
1970-01-01 00:00:00.000000007,6.1869475025197564,2.6532404850121303,-0.9318285329230122,0.9768443628714907
1970-01-01 00:00:00.000000007,7.182364657623369,2.3950717623306366,-1.0506785384474213,1.012474662625541
1970-01-01 00:00:00.000000007,8.748223364182005,1.8130834450051314,-0.5121056580672937,1.0082504372638474
1970-01-01 00:00:00.000000007,10.661418994980107,1.3973533105691704,0.06299782839175236,1.023351763415288
1970-01-01 00:00:00.000000007,13.801954539742912,0.5476115914724882,0.345202675754535,0.978295388214542
1970-01-01 00:00:00.000000007,16.33775266183157,-0.3338528566874713,0.28546190110510083,0.8925037646573697
1970-01-01 00:00:00.000000007,16.713690986877772,-0.8242015851930788,0.5997057909244146,0.8306359565313821
1970-01-01 00:00:00.000000007,15.780936503707599,0.06689065099156655,1.3930750483714283,0.7450402183628786
1970-01-01 00:00:00.000000007,15.043758254604459,2.0533708571852785,1.0614422103241243,0.6824641966419361
1970-01-01 00:00:00.000000007,15.027321018000372,3.857194540103629,-0.001063322527730337,0.6384577002174997
1970-01-01 00:00:00.000000007,15.139501291683828,5.648079636489493,-1.5329540076960169,0.5869841822630041
1970-01-01 00:00:00.000000007,14.638836661425108,7.6945810369109795,-2.835069493466406,0.48763317483765467
1970-01-01 00:00:00.000000007,13.008540825808874,10.105262516912852,-3.014268159090658,0.3026582573156762
1970-01-01 00:00:00.000000007,10.150615948480565,13.478466490974476,-1.4692112307424274,-0.011008093919921524
1970-01-01 00:00:00.000000007,6.629009017940079,17.758517397411236,1.0407495870576233,-0.4307995729854588
1970-01-01 00:00:00.000000007,2.504814562664711,22.100911183307637,3.1688580254762844,-0.7972798703539388
1970-01-01 00:00:00.000000007,-1.7741909178976445,24.864798195512808,3.917130744419169,-0.9731507207978327
1970-01-01 00:00:00.000000007,-6.326283754721957,24.556625165154855,3.901657143458864,-0.9459119594148078
1970-01-01 00:00:00.000000007,-12.150120829263038,23.812211282356053,5.325742147656355,-0.9444496025602609
1970-01-01 00:00:00.000000007,-18.799009511421822,26.93869244147538,9.708993826279588,-1.2647217645395743
1970-01-01 00:00:00.000000007,-24.39299169418169,29.322369516609882,14.60697604102371,-1.4392605987214517
1970-01-01 00:00:00.000000007,-26.031266454297047,23.22366240818633,15.88773718255523,-0.9130439375890231
1970-01-01 00:00:00.000000007,-23.823856313231765,13.299293385702292,13.694705769249069,-0.15625527274494488
1970-01-01 00:00:00.000000007,-21.6740582701368,5.844697754557207,10.606757335951851,0.4054828844130045
1970-01-01 00:00:00.000000007,-21.796525185163485,-0.17504130114045136,9.755155012968434,0.8955984255690894
1970-01-01 00:00:00.000000007,-21.33354447558439,-3.8213550553146853,9.781885844230466,1.2490249981426604
1970-01-01 00:00:00.000000007,-18.561204376416857,-6.7616300476491284,8.595677925961057,1.5418842311453056
1970-01-01 00:00:00.000000007,-14.511210143844478,-8.842897468722368,6.201176919207529,1.755500567425693
1970-01-01 00:00:00.000000007,-10.714632237323823,-9.56997081611517,4.51272968438192,1.757154443243624
1970-01-01 00:00:00.000000007,-8.863609855899163,-9.615232353104108,5.323606772387351,1.5926441755909067
1970-01-01 00:00:00.000000007,-8.7275610884864,-9.132460786279776,8.383495101492572,1.3769727912825391
1970-01-01 00:00:00.000000007,-8.185389541698456,-8.801108397666393,11.190861446695473,1.219614229976654
1970-01-01 00:00:00.000000007,-6.478292485782515,-9.789577337701903,12.227652572296185,1.234392593253697
1970-01-01 00:00:00.000000007,-3.799211457999255,-11.718737657087738,11.25450006849878,1.3816204132260332
1970-01-01 00:00:00.000000007,-1.0809654263647124,-13.849707872810852,9.660480808026978,1.5598826568609288
1970-01-01 00:00:00.000000007,1.183072268036664,-15.733068452754768,8.318788204280056,1.6994103402251692
1970-01-01 00:00:00.000000007,2.673338132296126,-17.42888268556558,7.711058373536766,1.812346757376401
1970-01-01 00:00:00.000000007,3.858209238344912,-18.681108818327516,7.545443120400845,1.873499910281437
1970-01-01 00:00:00.000000007,4.743200164628666,-19.541271033439827,7.435690253123413,1.9158277582155567
1970-01-01 00:00:00.000000007,5.4244186036720015,-20.503611205749387,7.1477915927296705,2.0073400024925374
1970-01-01 00:00:00.000000007,6.475797231368294,-21.895438586388522,6.465475685982705,2.1670378066434095
1970-01-01 00:00:00.000000007,8.28326487509971,-24.238663923771508,5.1046186317727,2.4111400420041953
1970-01-01 00:00:00.000000007,10.654113955398353,-27.515530637462028,3.392184089860071,2.690592607605776
1970-01-01 00:00:00.000000007,12.817647877464317,-30.505952421868045,1.9090626602845133,2.883463791341942
1970-01-01 00:00:00.000000007,13.623683461452844,-32.35916733714178,1.93852515365471,2.9228397366148506
1970-01-01 00:00:00.000000007,13.091750449636201,-32.201748447881116,3.6709337214714988,2.7469188924936176
1970-01-01 00:00:00.000000007,11.307826312600227,-29.83000944442989,4.934716637294734,2.4758942340873684
1970-01-01 00:00:00.000000007,8.232374357534168,-26.483313442687052,4.791608594525281,2.301311099059899
1970-01-01 00:00:00.000000007,4.940293916727895,-22.412817074307515,3.745351848700801,2.190034436498314
1970-01-01 00:00:00.000000007,2.357580423476045,-18.574309501353696,1.6713293826581153,2.1419493108120973
1970-01-01 00:00:00.000000007,0.34414035956640643,-15.362981641320552,-0.6389006960105079,2.097047338505381
1970-01-01 00:00:00.000000007,-2.093404295793238,-13.808000641706954,-2.5034540023475547,2.1204155635828785
1970-01-01 00:00:00.000000007,-5.24227470524815,-13.21065040237116,-4.211972084977614,2.120450722783861
1970-01-01 00:00:00.000000007,-10.931342997964624,-12.419339387052606,-6.2595714567859115,2.065867348999056
1970-01-01 00:00:00.000000007,-21.215724666556763,-8.198568685377644,-4.883512885570252,1.7948046250180851
1970-01-01 00:00:00.000000007,-32.34439536340992,6.477295611516537,1.32403427604941,0.5370608183052576
1970-01-01 00:00:00.000000007,-45.328912699301206,21.700344615192897,4.747232757773476,-0.4554755497514369
1970-01-01 00:00:00.000000007,-58.44885288062932,25.289500841538725,8.458742026681454,-0.003516256591614475
1970-01-01 00:00:00.000000007,-55.67761004428984,30.85392872214713,11.126552578419634,-0.1778202002727638
1970-01-01 00:00:00.000000007,-45.06914234463687,29.50395281396485,10.44555574817923,-0.08635843108671515
1970-01-01 00:00:00.000000007,-31.73031306548707,21.942928167191923,8.093583534708003,0.26016603537504834
1970-01-01 00:00:00.000000007,-20.009722010967113,14.71153776373721,4.587629752456788,0.5911640118884578
1970-01-01 00:00:00.000000007,-11.964037327211068,9.848728210535656,2.6025565384481366,0.7552916045917949
1970-01-01 00:00:00.000000007,-7.0242203852348455,8.858980918438114,2.0862537833556347,0.6804588719582236
1970-01-01 00:00:00.000000007,-4.1162173568627125,9.389844588867362,1.272383613728091,0.6370785020098589
1970-01-01 00:00:00.000000007,-1.508979064181871,9.859468835764355,-0.539250357913619,0.6871990992470747
1970-01-01 00:00:00.000000007,1.2437809994199998,9.682446584787613,-2.4655106693785727,0.7578223478339629
1970-01-01 00:00:00.000000007,3.557477734795824,8.875462919894481,-3.4706637489145686,0.8067708208188864
1970-01-01 00:00:00.000000007,5.183391041911677,8.07353177996311,-4.123931023715062,0.8673619040313518
1970-01-01 00:00:00.000000007,6.638529839628547,7.942910663571088,-4.542458366930417,0.9189086746448378
1970-01-01 00:00:00.000000007,8.872204423187254,7.444665297301864,-4.462835722560802,0.9766740343803593
1970-01-01 00:00:00.000000007,12.533181586304412,6.831266812270803,-3.4358916935198014,0.9433972644719997
1970-01-01 00:00:00.000000007,17.336785758044098,6.0939652825853585,-1.9618133538981002,0.8133713170948759
1970-01-01 00:00:00.000000007,22.149799522860032,4.826192816462036,-0.16267186280081203,0.6119178581733682
1970-01-01 00:00:00.000000008,25.23107224770295,3.45105866751716,1.0574909639035606,0.4201213213690298
1970-01-01 00:00:00.000000008,25.33101348760652,3.8742548368557936,1.736791518551451,0.22711401130088227
1970-01-01 00:00:00.000000008,23.09159711144437,7.244433361624416,1.4264914710205998,0.026460979945396756
1970-01-01 00:00:00.000000008,20.13592761401293,11.894621571260414,0.6976538432621806,-0.11959934636246206
1970-01-01 00:00:00.000000008,18.492102840696386,16.008152044938054,-0.7420347204100641,-0.18394778704471304
1970-01-01 00:00:00.000000008,18.602572106340617,17.761916805792584,-2.5461581306085663,-0.18666517796373272
1970-01-01 00:00:00.000000008,18.7370703643239,18.172883627855406,-3.394952889627354,-0.2728375394269933
1970-01-01 00:00:00.000000008,16.663725637885786,19.5952378968502,-2.9282731387836307,-0.5167590738633667
1970-01-01 00:00:00.000000008,11.515088188935646,23.47244151902877,-1.5945199256018803,-0.8818629607993469
1970-01-01 00:00:00.000000008,4.1816258544327205,28.27486028960338,-0.2595876797897789,-1.2054711328868393
1970-01-01 00:00:00.000000008,-4.018572675100258,31.326922581912342,0.9637888529262435,-1.3138287833408846
1970-01-01 00:00:00.000000008,-11.416088901627427,31.09726524277702,3.5771025295459244,-1.2487976344145857
1970-01-01 00:00:00.000000008,-16.879728061096756,25.521099036968277,7.339839508715514,-0.9579547197950675
1970-01-01 00:00:00.000000008,-20.781544385642956,18.36205696268703,9.988212413092363,-0.5024390305771236
1970-01-01 00:00:00.000000008,-22.749248896978436,14.722147047167944,11.059603736364153,-0.16629845204579707
1970-01-01 00:00:00.000000008,-21.849422331414416,15.84291759138713,11.328092749279667,-0.30672233196421694
1970-01-01 00:00:00.000000008,-22.115916440603208,13.215448351928604,11.97772092583034,-0.21249151718888837
1970-01-01 00:00:00.000000008,-23.180285276542158,7.213406915516574,15.059591252970849,0.03256293485118977
1970-01-01 00:00:00.000000008,-23.56479536879065,2.5758613650584943,16.660565902422235,0.3449063183664083
1970-01-01 00:00:00.000000008,-22.128214984506734,-2.403555242907631,17.03728292845903,1.0153950392267261
1970-01-01 00:00:00.000000008,-18.18982783721483,-8.230448329009377,16.087477760526962,1.4449782656764505
1970-01-01 00:00:00.000000008,-13.594483174128136,-13.822078607925603,13.571087638188873,1.8783030968232297
1970-01-01 00:00:00.000000008,-9.552256302084594,-17.178487729728783,10.119074825825955,2.1892056341699
1970-01-01 00:00:00.000000008,-6.896446291686743,-17.68749239829296,8.453530355570573,2.17266065258877
1970-01-01 00:00:00.000000008,-6.762499835932646,-16.66804046361528,8.092011335145571,2.071212476658765
1970-01-01 00:00:00.000000008,-7.805576315892473,-16.243215080784097,8.887160731895223,1.9892751860993134
1970-01-01 00:00:00.000000008,-9.203788459541197,-17.746462095081622,12.263633048499194,1.9243361008623867
1970-01-01 00:00:00.000000008,-9.944482771316425,-21.778089768357056,16.61410329564568,1.9837851856137187
1970-01-01 00:00:00.000000008,-9.35525291264662,-26.820791150719412,19.008326433773565,2.2118483409133196
1970-01-01 00:00:00.000000008,-7.481734782157963,-30.248092086513793,17.745889630794167,2.504113163965549
1970-01-01 00:00:00.000000008,-5.335824467070323,-32.15977351293567,14.848615269886295,2.749942688739405
1970-01-01 00:00:00.000000008,-3.9704455224225352,-32.7763924923232,12.70612292656231,2.9165536327909436
1970-01-01 00:00:00.000000008,-2.4533595859561204,-32.50498277816313,12.764544748923232,2.927660328609404
1970-01-01 00:00:00.000000008,0.10546687941906763,-32.90021745470983,12.394510357736253,2.9710142334003464
1970-01-01 00:00:00.000000008,3.3427115016313222,-34.130671925097445,10.307451483860616,3.092754477470516
1970-01-01 00:00:00.000000008,5.788095346071488,-34.662602792685384,7.6220014367360545,3.1314923189054413
1970-01-01 00:00:00.000000008,5.568555918231268,-33.56864461500789,5.927546170413076,3.0313109257425994
1970-01-01 00:00:00.000000008,2.4892028650957188,-30.025185225989713,5.3373617509548765,2.7623331930488852
1970-01-01 00:00:00.000000008,-3.1327876346623627,-23.866656534613696,3.925921057469452,2.4291991690440033
1970-01-01 00:00:00.000000008,-11.010426696698694,-15.2378940879205,1.299153921380039,2.0955054221644756
1970-01-01 00:00:00.000000008,-20.27309215863124,-5.2213080959933205,-2.5135894369618272,1.8674369030092934
1970-01-01 00:00:00.000000008,-28.869030643712463,6.214130472288667,-5.714513743161547,1.6596598656401078
1970-01-01 00:00:00.000000008,-33.425099201196176,16.790765820185875,-7.240346656001337,1.364128372038134
1970-01-01 00:00:00.000000008,-33.34461270709564,21.11891341556123,-6.792479226043345,1.0369868525865897
1970-01-01 00:00:00.000000008,-33.45101536459438,20.19112709107922,-4.385361756057374,0.788561269277311
1970-01-01 00:00:00.000000008,-36.29817955781755,22.153502053237453,7.74969582215382,0.24896535792640484
1970-01-01 00:00:00.000000008,-32.39905215039626,26.599742177212242,13.773462785090683,-0.037368844017965364
1970-01-01 00:00:00.000000008,-19.28167497801346,19.92252506714298,8.016787710945216,0.5078781196047627
1970-01-01 00:00:00.000000008,-6.605135158473331,12.025934123676857,3.7723048984583225,0.7253914917408602
1970-01-01 00:00:00.000000008,-1.6304943107879342,10.053001893248489,3.3607501685456045,0.7358117088805609
1970-01-01 00:00:00.000000008,1.9173976605573748,9.849574568279186,2.662407226520043,0.7187961526468484
1970-01-01 00:00:00.000000008,5.076093179145057,10.322384463480581,0.9611179606863199,0.7413713561411102
1970-01-01 00:00:00.000000008,8.142519740137923,10.941466238296012,-1.1255619953906484,0.767704686127967
1970-01-01 00:00:00.000000008,10.77553550348367,11.8256447094291,-3.3728510973163868,0.8479098385972523
1970-01-01 00:00:00.000000008,14.099043911389838,13.05046165538101,-5.741896893060609,0.9581956254549043
1970-01-01 00:00:00.000000008,19.574763666546616,14.26074295863281,-4.434442042545515,0.6301089518255354
1970-01-01 00:00:00.000000008,23.459330653867912,14.29032319198225,-1.1873132913908,0.23828496847793734
1970-01-01 00:00:00.000000008,25.244305462857508,13.659924705852776,3.958924655958051,-0.23165939159070348
1970-01-01 00:00:00.000000008,24.36282929182275,15.52869188613994,9.079327022355972,-0.8592265909635306
1970-01-01 00:00:00.000000008,19.79046065820948,20.85391222129294,10.672060949021082,-1.3454886326907292
1970-01-01 00:00:00.000000008,13.16384703649299,27.997026811057477,8.786407323501555,-1.6160638390325843
1970-01-01 00:00:00.000000008,5.905154002590164,34.071376811895135,6.816501920156052,-1.64985595618833
1970-01-01 00:00:00.000000008,1.0503264077260792,36.4627067399541,6.291704150555898,-1.5146734178427386
1970-01-01 00:00:00.000000008,-0.12890770810294194,35.1543295637338,5.792134541722451,-1.3808879983308406
1970-01-01 00:00:00.000000008,-1.4082440972956585,31.77061867587417,5.912355670965125,-1.3200614117095812
1970-01-01 00:00:00.000000008,-6.2528608860682775,28.904884815532256,8.093978704998799,-1.375446056798877
1970-01-01 00:00:00.000000008,-15.008741912674234,26.863048419941865,11.076846440446813,-1.2323911150498226
1970-01-01 00:00:00.000000008,-22.623452364833103,24.763303236186317,12.59675590035356,-0.9004194058926758
1970-01-01 00:00:00.000000008,-26.974338881494518,21.30591604581776,12.345339957828543,-0.3863418249573827
1970-01-01 00:00:00.000000008,-27.27230138601176,15.634828161878612,14.115821122001977,-0.009597776605698716
1970-01-01 00:00:00.000000008,-25.222717414637223,9.100514682427809,17.79790069374752,0.02608614449197466
1970-01-01 00:00:00.000000008,-25.94213827693249,2.930539772185952,21.028969117695045,0.19820911676899988
1970-01-01 00:00:00.000000008,-27.393492159575285,-0.6980981749686279,22.01210814245637,0.48621659707502507
1970-01-01 00:00:00.000000008,-27.14010733392488,-4.441464427051637,21.135676797913668,0.9001790039093053
1970-01-01 00:00:00.000000008,-24.651512611164694,-9.57972918385535,20.542877572782565,1.343142610411868
1970-01-01 00:00:00.000000008,-20.014186155027804,-13.823570023206354,18.909671181052037,1.635138921413533
1970-01-01 00:00:00.000000008,-16.009705291867647,-16.59388780406998,14.581017954268665,2.0011958367657448
1970-01-01 00:00:00.000000008,-12.668894712781398,-17.78611430034018,10.953099970544896,2.2052489879705
1970-01-01 00:00:00.000000008,-10.635827808033655,-19.726064398512126,10.057815157046374,2.3284746754065813
1970-01-01 00:00:00.000000008,-9.257165097992933,-22.98249769439704,11.443036034797748,2.38150794346366
1970-01-01 00:00:00.000000008,-8.910229278969295,-26.972000524105784,13.983530608594686,2.4344265545800985
1970-01-01 00:00:00.000000008,-9.303317256745501,-31.29190649537493,19.33190035834262,2.4504329216488703
1970-01-01 00:00:00.000000008,-8.104106619172956,-34.62658828871121,24.010665628962066,2.392962822611304
1970-01-01 00:00:00.000000008,-6.033605153492541,-36.64900450967815,23.683044413782323,2.5193500093718124
1970-01-01 00:00:00.000000008,-3.81609744074738,-36.668882414771325,19.659184600988393,2.7399524186212645
1970-01-01 00:00:00.000000008,-1.7857914408767517,-37.04375662805103,15.98200387400101,2.9592432848649235
1970-01-01 00:00:00.000000008,-0.14572199993755075,-38.08673129980656,13.030735239839155,3.218245445898063
1970-01-01 00:00:00.000000008,1.9353049769116106,-38.68123910560794,9.964596962773804,3.4329470458667517
1970-01-01 00:00:00.000000008,4.1437149334412045,-38.60649263918413,6.463614667478074,3.5543706352952027
1970-01-01 00:00:00.000000008,4.909681082680427,-38.74296778076018,4.254093430736675,3.618968409072995
1970-01-01 00:00:00.000000008,4.283289361420632,-37.63803825459944,5.462507149153565,3.3561895267832287
1970-01-01 00:00:00.000000008,1.1571471523234953,-33.66461407848521,6.303050611349779,2.950413759380573
1970-01-01 00:00:00.000000008,-4.90794728880076,-28.297448209941805,5.2289530118506065,2.696889561418084
1970-01-01 00:00:00.000000008,-12.219012544973634,-21.195593120537485,2.799575178022371,2.419312798679295
1970-01-01 00:00:00.000000008,-21.253481135437745,-10.94142241649484,-1.5982795771710023,2.049513561364349
1970-01-01 00:00:00.000000008,-32.898045979143916,2.054672348792969,-2.425639288023344,1.5778517621401036
1970-01-01 00:00:00.000000009,-41.58956736799046,15.195619682006848,0.6340626486426175,0.9633417948862729
1970-01-01 00:00:00.000000009,-44.12469000220768,21.555077584981042,2.623349320962835,0.6432091497440358
1970-01-01 00:00:00.000000009,-42.841644987150204,18.52899259857439,3.4338865034467343,0.773636664661221
1970-01-01 00:00:00.000000009,-40.94069401916911,16.4733390784682,6.08720277403966,0.6234112284157227
1970-01-01 00:00:00.000000009,-40.400822584788116,22.49639787160384,10.165823747161276,-0.0634842155336075
1970-01-01 00:00:00.000000009,-40.55669983125253,29.537384053577053,11.99801899805647,-0.34669051871569256
1970-01-01 00:00:00.000000009,-34.57945498525309,31.023860466603157,10.79157809199016,-0.15345696779698992
1970-01-01 00:00:00.000000009,-22.127739200833258,26.020264748100338,6.7880056890707205,0.24958252195563735
1970-01-01 00:00:00.000000009,-9.254738317801527,18.092820098081045,3.3041078788937637,0.5945313569396354
1970-01-01 00:00:00.000000009,-0.2789966359453663,12.017352057422503,2.204381198395062,0.7170522031146197
1970-01-01 00:00:00.000000009,4.4970734181973375,8.960700731803874,2.299199757250062,0.7337073369984519
1970-01-01 00:00:00.000000009,7.212562835166048,8.407770625147661,2.110215171222542,0.712062750075484
1970-01-01 00:00:00.000000009,9.380892098578386,9.137977695958247,1.2654814145338833,0.7136723941808875
1970-01-01 00:00:00.000000009,12.143982277151718,9.89765393139511,-0.6121902131377294,0.7699325888444593
1970-01-01 00:00:00.000000009,15.606669996655322,10.594855538642182,-2.0484400823200213,0.7034985219182437
1970-01-01 00:00:00.000000009,17.863981074261382,11.16141395423487,-2.197723667211804,0.6053097756049249
1970-01-01 00:00:00.000000009,19.54936173486867,12.884755955989014,-1.1686642021091125,0.39411408007022275
1970-01-01 00:00:00.000000009,21.201998466387423,14.483717624350845,0.9005109771488933,0.17530508354010488
1970-01-01 00:00:00.000000009,23.794163835324735,16.38202294579778,1.9388636294427215,0.1783401501923394
1970-01-01 00:00:00.000000009,25.101522833183374,18.733204476929117,1.1011095825440314,-0.08934027635400521
1970-01-01 00:00:00.000000009,23.35998095667636,21.99419243417028,0.8707896021274579,-0.39235492161532437
1970-01-01 00:00:00.000000009,19.12425803446741,27.393722255374684,1.9439406846046436,-0.8520334102989866
1970-01-01 00:00:00.000000009,12.782571453995692,33.12130070899625,3.6006011302504737,-1.2590767211522
1970-01-01 00:00:00.000000009,5.978883033409756,36.38373387462,5.524626819253761,-1.5222228864603944
1970-01-01 00:00:00.000000009,-1.3883106407410666,38.99002527999311,8.314834363851688,-1.7219516517740499
1970-01-01 00:00:00.000000009,-8.046204431712345,40.37274049638523,11.251692815932445,-1.826201712993835
1970-01-01 00:00:00.000000009,-13.331100691847999,38.544262951054776,12.701166494972533,-1.7467215831575833
1970-01-01 00:00:00.000000009,-19.24070240200442,35.174247726631066,13.781691092862902,-1.614914300469539
1970-01-01 00:00:00.000000009,-27.755891878982244,31.172742919117074,15.166810263457705,-1.2251690911341475
1970-01-01 00:00:00.000000009,-34.7616911053876,27.57809084191979,17.060465772886303,-0.7578932205070312
1970-01-01 00:00:00.000000009,-36.859976922102014,23.26899735097061,19.299053142725125,-0.5361821370487383
1970-01-01 00:00:00.000000009,-38.429153914510046,15.27360986242051,20.85274130882581,-0.011774064421266717
1970-01-01 00:00:00.000000009,-38.40664168754081,7.712448100735225,23.068941361924313,0.43073975128103625
1970-01-01 00:00:00.000000009,-36.84174714696454,0.6811144587590232,22.97730106445967,0.9788511375919396
1970-01-01 00:00:00.000000009,-33.32137305825746,-6.835428284468235,22.055116808260735,1.6036485807289633
1970-01-01 00:00:00.000000009,-27.33633448565948,-14.749298350747333,20.249232547234136,2.1765185179978843
1970-01-01 00:00:00.000000009,-20.862208699153484,-21.276299156828966,17.043489995941556,2.6501576213483204
1970-01-01 00:00:00.000000009,-15.785193627413333,-24.409044476795454,11.726731750027561,3.0479498525003392
1970-01-01 00:00:00.000000009,-12.140970343305357,-24.45346891248221,8.392700058969282,3.0773993875810364
1970-01-01 00:00:00.000000009,-11.380322043495422,-25.259327320563877,9.451458681803121,2.9856006391020924
1970-01-01 00:00:00.000000009,-11.910686065735389,-27.604023229832567,13.741029862624735,2.846641568339282
1970-01-01 00:00:00.000000009,-12.828969837671137,-31.079339418827725,19.77630807515211,2.712160359399678
1970-01-01 00:00:00.000000009,-13.481630790282145,-35.482170913226106,24.775258331771827,2.806136487995698
1970-01-01 00:00:00.000000009,-11.746586325079653,-39.64283181885287,23.70211030211143,3.2184464231625234
1970-01-01 00:00:00.000000009,-8.01090609027055,-41.38879855160681,16.917209469431256,3.695884768840877
1970-01-01 00:00:00.000000009,-4.654443371849038,-42.63614213293431,12.781132314130074,3.907507464392862
1970-01-01 00:00:00.000000009,-3.1306103430247836,-43.12697735716173,12.833424692538255,3.835356637477919
1970-01-01 00:00:00.000000009,-3.2228147928005084,-41.18637355957041,14.077207335265847,3.621472885628037
1970-01-01 00:00:00.000000009,-3.4683878197991262,-38.043207968729135,14.613074142149939,3.424790244243347
1970-01-01 00:00:00.000000009,-2.8521239990324716,-35.123382062954335,13.582654035945238,3.323201429358532
1970-01-01 00:00:00.000000009,-1.5428564539132126,-32.86329518852046,10.793397370888918,3.344939078208224
1970-01-01 00:00:00.000000009,-0.04483282692428858,-31.327640371312526,6.447022633841001,3.466579525302759
1970-01-01 00:00:00.000000009,0.6867625349543043,-30.24832718826975,1.2608813914658061,3.605853940868285
1970-01-01 00:00:00.000000009,-0.9545569497215984,-28.761319824152512,-3.037351176445067,3.625828953213696
1970-01-01 00:00:00.000000009,-6.402867294153832,-24.856842311178006,-4.318897402812248,3.360471735825942
1970-01-01 00:00:00.000000009,-15.552400018865118,-17.461367454875962,-3.4108235767073007,2.8874412241187266
1970-01-01 00:00:00.000000009,-26.263956745819378,-7.195131806410536,-2.8683920042229767,2.3738666666954797
1970-01-01 00:00:00.000000009,-36.315904564275606,6.079312114420841,-1.899257104683659,1.7119403965425306
1970-01-01 00:00:00.000000009,-43.91707666608561,19.265189374143986,1.517080656134911,0.8956327055774612
1970-01-01 00:00:00.000000009,-48.68459572367296,23.623561588753173,6.153195421612204,0.6313814425890174
1970-01-01 00:00:00.000000009,-47.97988953892721,24.29570489946487,10.093927104668065,0.4948758088536056
1970-01-01 00:00:00.000000009,-43.26261699724399,27.077205173635953,13.099570881263322,0.06547806054950467
1970-01-01 00:00:00.000000009,-38.176483875228755,28.304777299039575,14.860429199774092,-0.09254747643081163
1970-01-01 00:00:00.000000009,-30.558778276778394,26.68978098425665,14.420016596461728,0.0922173468966303
1970-01-01 00:00:00.000000009,-19.165232572757514,23.41376121187984,11.5744708406827,0.29534596588404893
1970-01-01 00:00:00.000000009,-8.07577172561902,18.551368197288422,7.660292562760319,0.5701983800153874
1970-01-01 00:00:00.000000009,0.6018506268808259,14.309414031675864,3.58966227061419,0.8047223985532697
1970-01-01 00:00:00.000000009,5.803667978797029,11.991261041091914,-0.30096087304514674,0.9642349513088996
1970-01-01 00:00:00.000000009,7.607446002111963,12.449900435589846,-3.7203394850491383,1.0933658318249149
1970-01-01 00:00:00.000000009,8.678329587551314,14.86658590536288,-6.4376700377523886,1.1356558807468287
1970-01-01 00:00:00.000000009,10.492330475228599,17.437066923889606,-8.357603619583578,1.1769690502750054
1970-01-01 00:00:00.000000009,14.654019118309927,18.349020654650662,-9.302828076010009,1.175786278926262
1970-01-01 00:00:00.000000009,20.25859963912469,17.55797410473768,-8.247271079627236,1.0092220210473926
1970-01-01 00:00:00.000000009,24.87441862896507,17.60366816035151,-5.4861030868407,0.5790744636918124
1970-01-01 00:00:00.000000009,26.134537456547903,20.014768090667634,-2.6038103991572745,0.01796855179965373
1970-01-01 00:00:00.000000009,23.6462336261414,26.183306805406218,-0.9285411726741208,-0.587208860115622
1970-01-01 00:00:00.000000009,18.65874336341038,35.30501327929832,-0.09630363904668249,-1.133631963670139
1970-01-01 00:00:00.000000009,14.29973226303001,41.21791687969076,0.9942080624550234,-1.4865108276832224
1970-01-01 00:00:00.000000009,10.839425826179045,41.25655982376675,3.8677386767476567,-1.70586484510812
1970-01-01 00:00:00.000000009,5.864777761524941,39.92812722559528,9.65366507331496,-1.9844329393988092
1970-01-01 00:00:00.000000009,-0.28149137215687503,39.5833839937279,15.561727029177892,-2.474837604985138
1970-01-01 00:00:00.000000009,-11.404015353935586,39.33961065970496,16.279334769133015,-2.4513341533003867
1970-01-01 00:00:00.000000009,-25.27766090736185,38.22363049878626,14.367838417893815,-1.8301796663920207
1970-01-01 00:00:00.000000009,-34.96781186864708,34.17638170802464,17.13027141450022,-1.3670697515293961
1970-01-01 00:00:00.000000009,-40.759249922361896,23.87765046276024,22.73846461849045,-0.6232505927692724
1970-01-01 00:00:00.000000009,-39.63654703384794,12.339187748459628,25.127280246698813,-0.023211104029699836
1970-01-01 00:00:00.000000009,-38.7845879194246,0.5993953550103712,25.767078651738345,0.9340055805824818
1970-01-01 00:00:00.000000009,-32.98608423837134,-9.697629070252317,26.666727443164067,1.6927240599382642
1970-01-01 00:00:00.000000009,-22.742304669247392,-18.198425121330136,18.09651744418451,2.374977355497469
1970-01-01 00:00:00.000000009,-18.290493745817706,-27.195067317226396,14.15402543825255,3.0149246141821022
1970-01-01 00:00:00.000000009,-16.613240921361935,-30.716663194611616,14.413898637805353,3.248194663844269
1970-01-01 00:00:00.000000009,-14.225295445761214,-33.43572898325831,15.740347736520963,3.2739194508958125
1970-01-01 00:00:00.000000009,-12.372285579652447,-33.97757374797888,18.145935853644215,3.0865543029804563
1970-01-01 00:00:00.000000009,-11.323420017032195,-34.19724730293045,19.96143522111352,2.943039826071349
1970-01-01 00:00:00.000000009,-10.737551067859437,-33.62386234563259,17.787056201931556,2.96824027371062
1970-01-01 00:00:00.000000010,-11.596640983339702,-32.55108163334774,14.135036626840394,3.1638801471713003
1970-01-01 00:00:00.000000010,-12.410020894286264,-32.65062867925867,10.463645798257119,3.6797149626663566
1970-01-01 00:00:00.000000010,-8.022851175662275,-36.36204306152866,6.787249571209524,4.210751677182304
1970-01-01 00:00:00.000000010,-1.0651033857121006,-41.9933031779276,6.798323428488449,4.260289312597735
1970-01-01 00:00:00.000000010,1.5134981641437872,-43.03931857049362,7.685307170001391,4.103362122233138
1970-01-01 00:00:00.000000010,1.5156113884021352,-41.83388805229412,9.189380334654237,3.8833763480562418
1970-01-01 00:00:00.000000010,0.7712886313860401,-38.511782580766116,8.641838126344059,3.580153723220591
1970-01-01 00:00:00.000000010,-2.6496652452009717,-29.826469437048836,2.7980212679781156,3.3070245574966544
1970-01-01 00:00:00.000000010,-9.020811896614156,-19.259230988129072,-3.676602659511667,3.2466487478660078
1970-01-01 00:00:00.000000010,-13.094361837332125,-13.497689555684198,-7.141215388041183,3.146047508891561
1970-01-01 00:00:00.000000010,-17.49513825471651,-10.227699408275168,-9.685525210530518,3.0157997865297146
1970-01-01 00:00:00.000000010,-24.94926850623083,-6.296846296900465,-9.01461712543798,2.752373085509314
1970-01-01 00:00:00.000000010,-33.7539735594545,0.770271515016115,-1.4017150532410871,1.9741738325294182
1970-01-01 00:00:00.000000010,-41.82685898086986,10.145364862141925,3.2194983477352084,1.2199862398453156
1970-01-01 00:00:00.000000010,-49.42046692046753,16.18648453534367,4.36007521461984,1.1158376030759547
1970-01-01 00:00:00.000000010,-51.317703185674816,22.787841964845274,7.650656819709217,0.6742316031682276
1970-01-01 00:00:00.000000010,-49.67845893910965,27.369432280208528,13.24184268225958,0.24107763445027186
1970-01-01 00:00:00.000000010,-43.18662656930538,27.230053541170932,16.9223195416846,0.746566654628182
1970-01-01 00:00:00.000000010,-30.710845137870404,24.35769178408854,14.676463395907467,0.8967998522039675
1970-01-01 00:00:00.000000010,-18.228248426332275,18.95596610320635,9.620533621804281,1.210270187876997
1970-01-01 00:00:00.000000010,-9.142685187945482,13.752859079507346,5.627410469832059,1.544860656509655
1970-01-01 00:00:00.000000010,-2.4381789326572325,10.082073813761882,3.5303938339314316,1.676711667164279
1970-01-01 00:00:00.000000010,1.4308234971064073,9.157117871846495,2.637207026099909,1.6352376957195611
1970-01-01 00:00:00.000000010,3.3135920203681346,11.443059582933332,1.707146727606119,1.472556333114125
1970-01-01 00:00:00.000000010,4.2750625321167774,14.081229338155234,0.4814930900678218,1.3644211281746397
1970-01-01 00:00:00.000000010,5.35498197970959,16.15279168066012,0.44582583762736006,1.2343726200138538
1970-01-01 00:00:00.000000010,6.964990554075922,18.157612634380317,2.419271120582285,1.0420055659217238
1970-01-01 00:00:00.000000010,10.552155683123292,19.360177251443254,4.631922221928921,0.8721048227173129
1970-01-01 00:00:00.000000010,16.568359826419652,20.544711280545332,4.6201669974561295,0.6972621324137631
1970-01-01 00:00:00.000000010,22.81211033974709,21.3162357392698,4.3317951253749385,0.38808052745378196
1970-01-01 00:00:00.000000010,25.58846664623982,21.781949573397966,5.3765972813257985,0.03410736150678506
1970-01-01 00:00:00.000000010,24.210434485581818,24.006183618308924,6.796112346254219,-0.29250153192664774
1970-01-01 00:00:00.000000010,20.76870156113851,28.198001055283164,8.681429001879916,-0.6537564301737415
1970-01-01 00:00:00.000000010,17.043774014011404,31.488414330739815,11.001040160906962,-0.995453267350674
1970-01-01 00:00:00.000000010,12.66516791307704,33.78570879819072,12.393178266106032,-1.2120595057857417
1970-01-01 00:00:00.000000010,7.413722577001423,35.68584478434504,13.324894587890626,-1.3051324659184367
1970-01-01 00:00:00.000000010,2.311952104199521,36.26506752953479,13.661942757350038,-1.2786505645907527
1970-01-01 00:00:00.000000010,-2.7260477822909994,35.78026405157747,11.856845399044094,-1.194247880538315
1970-01-01 00:00:00.000000010,-10.88208579747399,33.771723033903555,11.192544187687703,-1.0314816800862658
1970-01-01 00:00:00.000000010,-22.27286578137845,29.118716934475252,14.154306739180011,-0.6283990521255003
1970-01-01 00:00:00.000000010,-31.712526481821826,22.852142612777943,17.892246186022298,-0.05188495244245317
1970-01-01 00:00:00.000000010,-35.93742258092959,18.485205885227348,22.782412558120413,0.28847696988818194
1970-01-01 00:00:00.000000010,-33.972808255305864,14.164370794928757,27.648847389797133,0.2216170050022659
1970-01-01 00:00:00.000000010,-32.68115699039967,2.2809721451870484,30.314633533739514,0.738248091520882
1970-01-01 00:00:00.000000010,-32.50942725262544,-6.306128841508321,31.61825205454069,1.1979748584427987
1970-01-01 00:00:00.000000010,-32.92869554715907,-10.176016478143229,29.498606326627737,1.692406833214079
1970-01-01 00:00:00.000000010,-31.711139343788577,-12.345878599661209,24.194556233105963,2.312346466045171
1970-01-01 00:00:00.000000010,-27.64658874794036,-16.400437867032515,18.51667981291021,2.968114954692775
1970-01-01 00:00:00.000000010,-21.887960489243472,-18.94093909768303,13.530803428003551,3.316661382204198
1970-01-01 00:00:00.000000010,-17.30693882277661,-19.675952574274802,10.643977939320104,3.375606919965426
1970-01-01 00:00:00.000000010,-15.002119175733705,-20.49065890690844,9.925722434467406,3.3587463167009224
1970-01-01 00:00:00.000000010,-14.317758733898271,-20.312624550832773,10.109741152720103,3.28465635139023
1970-01-01 00:00:00.000000010,-14.48210258382778,-20.221842084847015,10.76565056970512,3.2702364105755004
1970-01-01 00:00:00.000000010,-13.964226874562938,-21.121835335351456,11.868100634003099,3.2819024978438365
1970-01-01 00:00:00.000000010,-12.83108747034836,-23.715560716117658,12.775217801903228,3.4081816437432053
1970-01-01 00:00:00.000000010,-10.995539991641087,-27.326100460392176,13.434983556816986,3.5761047816664693
1970-01-01 00:00:00.000000010,-9.061752103578812,-31.014082860962883,14.544407085663742,3.686615673770434
1970-01-01 00:00:00.000000010,-7.691207652280438,-33.27797311019269,15.790171431517306,3.7035814445587736
1970-01-01 00:00:00.000000010,-6.934365542780677,-33.56567460745658,16.2157380720868,3.7004991951101136
1970-01-01 00:00:00.000000010,-5.788934815153105,-33.00224162218016,16.277756183780387,3.6677958513791102
1970-01-01 00:00:00.000000010,-4.139824976901707,-32.837298115943305,15.941229965448395,3.702439226600875
1970-01-01 00:00:00.000000010,-1.5184690695421625,-33.743056598279246,14.497203793336169,3.8747135358653066
1970-01-01 00:00:00.000000010,2.340748867941697,-35.74077437163678,12.46772812058863,4.114181266733128
1970-01-01 00:00:00.000000010,6.906441523673802,-39.01782482711095,9.621482071359834,4.413106633742634
1970-01-01 00:00:00.000000010,10.894512570959897,-42.11260082016008,5.940182946326093,4.632492343527419
1970-01-01 00:00:00.000000010,11.646232390101837,-43.27235187160372,3.2635029250522325,4.629131446116008
1970-01-01 00:00:00.000000010,7.496991943971692,-40.48032069711655,2.684975046106631,4.329535076637356
1970-01-01 00:00:00.000000010,-1.271368166555153,-32.94686230315382,2.230267967217242,3.9826596294937286
1970-01-01 00:00:00.000000010,-10.511788679409829,-21.605939776740673,-0.48871821994478815,3.6461959900000793
1970-01-01 00:00:00.000000010,-18.145364454249524,-10.664667443933384,-6.676815680815445,3.428375684429791
1970-01-01 00:00:00.000000010,-26.358473549489613,-2.8989388178634674,-13.094162770474982,3.3259892402120976
1970-01-01 00:00:00.000000010,-37.48103673671311,3.2203014511356653,-13.538597032492701,3.165215249823421
1970-01-01 00:00:00.000000010,-47.30899978120079,14.767168621474044,-4.527866483880745,2.019812486978181
1970-01-01 00:00:00.000000010,-56.64319446962648,24.16883007075867,6.461780709807575,1.0101999996928948
1970-01-01 00:00:00.000000010,-62.587387871261086,25.759211706306154,16.963914065981538,0.938455281036271
1970-01-01 00:00:00.000000010,-54.642189892257015,32.321497296935554,21.05551036912186,0.2846032447251048
1970-01-01 00:00:00.000000010,-43.68033192712916,31.986922098897175,19.1005726882519,0.27643847349513173
1970-01-01 00:00:00.000000010,-32.104034230683176,26.19898376861981,14.783536609010506,0.7677192939850541
1970-01-01 00:00:00.000000010,-19.879600878837664,20.894938742649632,9.814214843844152,1.1761809119245004
1970-01-01 00:00:00.000000010,-9.10709803338899,15.52042505522873,5.256326947089543,1.5101274592950373
1970-01-01 00:00:00.000000010,-1.2535773256786604,11.291868695834147,1.741943674881353,1.697490795359726
1970-01-01 00:00:00.000000010,2.5887373821497977,8.878327304522886,0.5444498469366725,1.8053209466577238
1970-01-01 00:00:00.000000010,5.094539673497864,8.190654283835435,0.9758879499608734,1.7787598809611485
1970-01-01 00:00:00.000000010,7.476343349896066,7.5909414494298195,1.3761278924029625,1.757698288699896
1970-01-01 00:00:00.000000010,9.961438492338747,6.140726250635459,2.055526544785435,1.769954672812537
1970-01-01 00:00:00.000000010,12.622877183265512,5.87061381554397,2.7850353146202544,1.6579237340655484
1970-01-01 00:00:00.000000010,14.519374370616466,6.395827937075797,4.670408117985381,1.4888666739914627
1970-01-01 00:00:00.000000010,16.91756550826421,7.072875058006545,7.32211844348927,1.262510395218831
1970-01-01 00:00:00.000000010,20.04669871867978,8.774434726819528,7.479425953943657,1.0164494536464919
1970-01-01 00:00:00.000000010,21.731271929010862,10.8088303827808,5.844350129649629,0.8684920289071221
1970-01-01 00:00:00.000000010,21.672633049996268,13.596422578263185,4.8504645165972695,0.6801716558568236
1970-01-01 00:00:00.000000010,20.30135205170443,17.6978930123298,5.271505600481097,0.3643558202422108
1970-01-01 00:00:00.000000010,18.15528593309221,21.627637515923237,7.611135457673873,0.0032836109754996734
1970-01-01 00:00:00.000000010,16.41506711660331,24.479537059533072,9.960368898649905,-0.3295818229563574
1970-01-01 00:00:00.000000010,14.42764373025731,26.59227058814079,10.591232302544327,-0.6646859751159804
1970-01-01 00:00:00.000000010,8.752635880950585,31.902182568436107,10.143317018215464,-1.011626397995713
1970-01-01 00:00:00.000000010,0.5868230105150616,36.64696899157264,10.78363742121342,-1.1790171798176852
1970-01-01 00:00:00.000000011,-6.353615819495552,37.82682437324373,12.025737523764821,-1.3460939288529676
1970-01-01 00:00:00.000000011,-15.804757292613697,37.43587652490698,13.669863159332978,-1.442032101305447
1970-01-01 00:00:00.000000011,-28.937875429914712,34.39634476417508,15.765070743155306,-1.169370482454223
1970-01-01 00:00:00.000000011,-42.11106025155783,33.30812897106411,20.52974376910614,-0.8733747027027023
1970-01-01 00:00:00.000000011,-48.66325195006013,35.205171643505324,26.320045211660045,-0.9148129425590903
1970-01-01 00:00:00.000000011,-48.887615826790714,24.781504538216005,27.161476080351264,-0.06167625274623134
1970-01-01 00:00:00.000000011,-44.71434298671877,4.745681127290749,28.890039196788255,1.314683716384674
1970-01-01 00:00:00.000000011,-35.34317581264147,-10.810387497285584,27.45730883701159,2.110762558222689
1970-01-01 00:00:00.000000011,-30.03723371243371,-19.672903699824627,23.03553925670139,2.844044568815118
1970-01-01 00:00:00.000000011,-25.975323096240402,-23.13259088073941,18.47767261116615,3.368761676036283
1970-01-01 00:00:00.000000011,-20.82626463907874,-25.757592053583448,14.261079271340655,3.726878069731314
1970-01-01 00:00:00.000000011,-15.735844636963929,-23.89964076517525,9.744221515870251,3.6445993665585017
1970-01-01 00:00:00.000000011,-14.344696387421823,-23.125453144957348,11.11515711834723,3.4244596475495115
1970-01-01 00:00:00.000000011,-14.170611777780652,-24.47465533428557,15.127959493892666,3.2936492906763313
1970-01-01 00:00:00.000000011,-13.091380669063055,-28.006267254296144,17.773722843211427,3.4029441861787535
1970-01-01 00:00:00.000000011,-10.68720634099908,-33.69043060924326,17.76668719528308,3.804873017627758
1970-01-01 00:00:00.000000011,-7.209667083023327,-38.733843800957835,15.07834682374568,4.695042043095082
1970-01-01 00:00:00.000000011,-4.051882559239077,-40.50703358524241,11.964995477225958,4.8766598018179685
1970-01-01 00:00:00.000000011,-3.059168160083389,-39.953633252704904,11.478960809238247,4.776281578374893
1970-01-01 00:00:00.000000011,-3.721705981010759,-37.624062952847346,14.833947657150064,4.499023323750369
1970-01-01 00:00:00.000000011,-2.7743119613432423,-35.0160342826212,19.417658125366387,4.3764595789404215
1970-01-01 00:00:00.000000011,5.567470773726388,-36.07291832090348,12.678766084764025,4.575408889165681
1970-01-01 00:00:00.000000011,10.582211228840748,-38.10221752897015,2.6345690160651762,4.6842025058382
1970-01-01 00:00:00.000000011,3.4123145109682307,-34.34561015151171,-1.454057841224832,4.538482802747588
1970-01-01 00:00:00.000000011,-9.712259306482748,-23.79112929863176,-0.7060034659218053,4.342039656063864
1970-01-01 00:00:00.000000011,-16.134666901611592,-16.3440105652072,-2.6871653923250243,4.166537481818168
1970-01-01 00:00:00.000000011,-21.027306785921397,-11.300655962081377,-6.400962126972739,4.150051577410709
1970-01-01 00:00:00.000000011,-25.96994523056648,-6.386615422225829,-8.751727047174247,4.071019321538047
1970-01-01 00:00:00.000000011,-30.354105840378768,2.457197559153859,-8.3005101495623,3.411707325788723
1970-01-01 00:00:00.000000011,-37.28481423673865,12.01735169587424,-6.825644814513635,2.6305598757543462
1970-01-01 00:00:00.000000011,-48.039751384550605,14.447844180628488,-1.055353891128082,2.599034495258751
1970-01-01 00:00:00.000000011,-51.19795604884832,16.596018019025873,10.352666591986283,2.1140275586652844
1970-01-01 00:00:00.000000011,-47.14673261339896,21.061909279190246,15.744618820878253,1.4460557593267973
1970-01-01 00:00:00.000000011,-42.41026037031938,24.705202692061192,13.381711744676808,1.3582273406111056
1970-01-01 00:00:00.000000011,-35.84525176678341,26.21746961502416,9.800504493958043,1.5140678702382446
1970-01-01 00:00:00.000000011,-26.632283262981716,24.166528799941048,5.981961478539809,1.820736266673779
1970-01-01 00:00:00.000000011,-15.922018624443956,18.730312102383113,2.663959545615708,2.146394673455063
1970-01-01 00:00:00.000000011,-6.656879027846202,12.681709147059307,1.0747574357405016,2.3108103237716366
1970-01-01 00:00:00.000000011,-1.2089536527261666,8.471989941749987,1.4006462929096122,2.3407183664131983
1970-01-01 00:00:00.000000011,1.4828951327613005,7.865014758997383,2.2956879516261584,2.2406602726945692
1970-01-01 00:00:00.000000011,3.369315100144885,8.586038880662377,1.7855587304794596,2.158818550325642
1970-01-01 00:00:00.000000011,4.532284422574559,9.225896910889055,1.432259663321485,2.114381702602265
1970-01-01 00:00:00.000000011,5.696531816511158,10.496770248254103,2.619044714112398,1.9621591793493425
1970-01-01 00:00:00.000000011,7.468514092780077,12.284415656444404,4.879463482186156,1.7605112288052627
1970-01-01 00:00:00.000000011,11.21412811781628,13.611590372071921,7.555607201241046,1.5498611192221423
1970-01-01 00:00:00.000000011,17.484374742278373,15.806481662329253,8.449888224154108,1.212775487527249
1970-01-01 00:00:00.000000011,23.184049835353946,17.824482648582773,7.502442988684232,0.9052244062808708
1970-01-01 00:00:00.000000011,26.140653334804217,20.273836144143566,6.6853587650586705,0.5966490012967678
1970-01-01 00:00:00.000000011,26.068228547748404,23.683730634262943,5.116881058870186,0.36801524420378584
1970-01-01 00:00:00.000000011,23.75448571605702,26.174841386577363,3.2083802300578586,0.3767922223294917
1970-01-01 00:00:00.000000011,21.837557789696763,27.498011504322907,3.720409853688746,0.31547868419126823
1970-01-01 00:00:00.000000011,20.50464749371269,27.512783868922277,5.234000458318606,0.18152611411794828
1970-01-01 00:00:00.000000011,18.004275729419053,26.802303314225906,6.552752878559797,0.0899559791422262
1970-01-01 00:00:00.000000011,13.783962963042878,27.446699083284283,8.73762073090248,-0.15634198466938942
1970-01-01 00:00:00.000000011,6.877153931730168,29.373715171324665,10.47815009268114,-0.39696710383883405
1970-01-01 00:00:00.000000011,-2.3614960280511976,31.63995701651401,11.418778245522518,-0.5163441204428096
1970-01-01 00:00:00.000000011,-12.876115643725306,31.189522061218824,13.863260323090936,-0.460847136949162
1970-01-01 00:00:00.000000011,-23.394044449127925,25.892384770980193,15.804496612519989,0.03779678190540103
