time,ax,ay,az,speed
1970-01-01 00:00:00.000000000,-1.3749871954502326,0.6903750903874187,-2.1007598357824895,-0.8939852790531735
1970-01-01 00:00:00.000000000,-1.571283007589896,0.9584893822699879,-0.3893918523953176,-0.8438894592002184
1970-01-01 00:00:00.000000000,-2.1212096458487526,1.72155364813811,-0.1301047616552938,-0.8583147021169399
1970-01-01 00:00:00.000000000,-2.1143988095341277,1.7709848464419473,-0.12591098331462022,-0.833081768974167
1970-01-01 00:00:00.000000000,-2.835148775248873,1.7074817151646366,-0.9070472784692718,-0.772448550815331
1970-01-01 00:00:00.000000000,-2.926562238779549,1.3472963348547835,-0.8480906635041159,-0.756754231188155
1970-01-01 00:00:00.000000000,-2.9181081037457464,1.3173004235516879,-0.8436195385047385,-0.7621345936277517
1970-01-01 00:00:00.000000000,-2.7385166916670274,1.0247365970471243,-0.6247153801174015,-0.7659583007546895
1970-01-01 00:00:00.000000000,-2.7375504288385897,1.0085834923902142,-0.6156999289956776,-0.7607437310794087
1970-01-01 00:00:00.000000000,-2.8638244781811775,0.7377826227841269,-0.7184177774705232,-0.7433575130939757
1970-01-01 00:00:00.000000000,-2.847335824804325,0.7263943520153,-0.7167330334744126,-0.745062093223881
1970-01-01 00:00:00.000000000,-2.7987148096386623,0.743413472502945,-0.5148255354646034,-0.7547704130767596
1970-01-01 00:00:00.000000000,-2.825781064230153,0.9450910556568811,0.16576522602278826,-0.7844174097559503
1970-01-01 00:00:00.000000000,-2.85545285203247,0.9442499858938753,0.18569159374094865,-0.7792946946727889
1970-01-01 00:00:00.000000000,-3.004077687778803,0.7907749086285569,0.08902415013358192,-0.765423001258632
1970-01-01 00:00:00.000000000,-2.9994725204053356,0.7674983963965695,0.07878630918525006,-0.7763004899909369
1970-01-01 00:00:00.000000000,-2.6945245343715096,0.5576689548930052,0.16419335868235463,-0.8187030676825318
1970-01-01 00:00:00.000000000,-1.7215085130474754,-0.223310415811487,0.5915605737122517,-0.8415561389635354
1970-01-01 00:00:00.000000000,-1.754598878176597,-0.28646355408999236,0.6085287592616727,-0.8527260566197076
1970-01-01 00:00:00.000000000,-1.4003549436736167,-0.9468202179164904,0.9031012530547464,-0.8676620630667536
1970-01-01 00:00:00.000000000,-0.9937757632591181,-1.8331940645165261,1.719693338355238,-0.8796613810438914
1970-01-01 00:00:00.000000000,-1.0131563131965333,-1.8745137076904939,1.7535246988758637,-0.8832894087791343
1970-01-01 00:00:00.000000000,-0.9035632556355628,-1.9496740295527222,1.9544755448672615,-0.8901506424185942
1970-01-01 00:00:00.000000000,-0.9510082399454448,-1.756605712918096,1.7773943898551112,-0.890698559207999
1970-01-01 00:00:00.000000000,-0.9139552564623538,-1.4635535979146779,1.3002996025419655,-0.8935838348761829
1970-01-01 00:00:00.000000000,-0.6954521230510969,-1.175586640540571,0.6644496690156065,-0.9023101922112873
1970-01-01 00:00:00.000000000,-0.33855242717289663,-0.9747374106408739,0.19238974691921035,-0.9162430687887727
1970-01-01 00:00:00.000000000,-0.051594447033986135,-0.9810610534803099,-0.05866410891422939,-0.9249902718028777
1970-01-01 00:00:00.000000000,0.1449086637983883,-1.135312250760504,-0.14772190503642163,-0.9298954873219276
1970-01-01 00:00:00.000000000,0.31670560179382673,-1.4236850945799753,0.06885729540420549,-0.9335032634157833
1970-01-01 00:00:00.000000000,0.30530079347872097,-1.9705099702178448,0.8405442136309303,-0.9410172922232517
1970-01-01 00:00:00.000000000,0.2994870856824811,-1.996279270950839,0.9096413029819269,-0.9401587962610221
1970-01-01 00:00:00.000000000,0.20632770613441156,-2.200012317867818,1.9487889944680186,-0.9642521792373879
1970-01-01 00:00:00.000000000,0.12193711555555148,-2.291263992427454,2.8204508667073513,-0.981860724095681
1970-01-01 00:00:00.000000000,-0.08048047368131803,-2.325332685614961,2.5421671986889356,-0.9572045792875321
1970-01-01 00:00:00.000000000,-0.25592041013060884,-2.319489469201974,2.241292547868421,-0.9394338666931596
1970-01-01 00:00:00.000000000,-0.2516675985519564,-2.3261017795476118,1.9475127970491362,-0.9327286181370524
1970-01-01 00:00:00.000000000,-0.12010604030426766,-2.4183498180753107,1.658461732966517,-0.9273300624989935
1970-01-01 00:00:00.000000000,-0.006933564989497598,-2.533601061387345,1.5166962401452833,-0.919440822237332
1970-01-01 00:00:00.000000000,-0.06912391389206446,-2.7512819617439592,1.5299336285951883,-0.9099752602699313
1970-01-01 00:00:00.000000000,-0.059051523026721384,-2.760510936037056,1.53201270158733,-0.909390235388274
1970-01-01 00:00:00.000000000,-0.06727290112972881,-2.7967262052509887,1.5701964202682528,-0.9077739892079277
1970-01-01 00:00:00.000000000,-0.10238790244194824,-2.8050611835020294,1.5593260678931646,-0.9044720509880908
1970-01-01 00:00:00.000000000,-0.13374279214999993,-2.826263610492775,1.3952695516582638,-0.8993092486594503
1970-01-01 00:00:00.000000000,-0.05604623541715867,-2.7741486348640123,1.0928594918188725,-0.8969699978781898
1970-01-01 00:00:00.000000000,0.05555359683064294,-2.654501310345444,0.7831849479414464,-0.8976324735615078
1970-01-01 00:00:00.000000000,0.1533070978787258,-2.4574748857190998,0.4930459613440485,-0.8991949295386473
1970-01-01 00:00:00.000000000,0.18772745032300225,-2.219909909782247,0.25646670263589666,-0.903219929693923
1970-01-01 00:00:00.000000000,0.2583387341542732,-1.9006896307645635,0.010958057462175388,-0.9083401245602553
1970-01-01 00:00:00.000000000,0.2518615622145499,-1.8865815223547786,0.001529447349016666,-0.909834834926776
1970-01-01 00:00:00.000000000,0.2843576938480317,-1.795679126684437,0.021669367091321938,-0.9158680723326543
1970-01-01 00:00:00.000000000,0.3052454457469594,-1.6970295904558537,-0.016731228214100655,-0.9188778103856612
1970-01-01 00:00:00.000000000,0.29653173196537763,-1.5549812669668772,-0.004273980215304937,-0.92469425942344
1970-01-01 00:00:00.000000000,0.3049859268491427,-1.41989646544093,0.018901914609753157,-0.9302990418383151
1970-01-01 00:00:00.000000000,0.2840913423828939,-1.2744396233756894,0.0224093512411919,-0.9355961936485144
1970-01-01 00:00:00.000000000,0.2934678872652685,-1.1000406018375217,-0.023916667232417414,-0.9408654228064247
1970-01-01 00:00:00.000000000,0.2947248591142319,-0.9032865717342975,-0.1447893120133269,-0.9444001676218062
1970-01-01 00:00:00.000000000,0.3062596598962977,-0.680188367347419,-0.27688628948628846,-0.9494306353412346
1970-01-01 00:00:00.000000000,0.3352456672300971,-0.47679931169455186,-0.34614046916500074,-0.9552269516400576
1970-01-01 00:00:00.000000000,0.32677934956562704,-0.3095347641093775,-0.4350480936726,-0.9578387746441923
1970-01-01 00:00:00.000000000,0.32230025942377377,-0.18398134269540742,-0.45350008343197984,-0.9597619871899028
1970-01-01 00:00:00.000000000,0.27077869173593866,-0.16212595082418083,-0.31361862114842076,-0.9598993416407544
1970-01-01 00:00:00.000000000,0.14956239063655027,-0.20872216079832484,-0.029505518816234297,-0.9728230683513147
1970-01-01 00:00:00.000000000,0.3377314226564488,0.05287067459651833,0.5432126784372188,-1.0300804385176223
1970-01-01 00:00:00.000000000,0.876737031089096,0.6667017431659905,0.7267192048828236,-1.0588774033628114
1970-01-01 00:00:00.000000000,0.33982227873584564,0.24917924539613412,0.6293087079099595,-1.0085065977673617
1970-01-01 00:00:00.000000000,-0.006463457181667305,-0.2355219403774716,1.7179560857789726,-0.9674605592630643
1970-01-01 00:00:00.000000000,-1.3002638765079995,-1.4000253831390843,2.71375186057108,-0.904682249886604
1970-01-01 00:00:00.000000000,-1.5604296907861361,-1.6418127441264885,2.3516948098914736,-0.910609527423959
1970-01-01 00:00:00.000000000,-0.5264512381526762,-1.4665270988739152,1.2443996159009383,-0.9693833811580705
1970-01-01 00:00:00.000000000,0.9168514466984825,-0.25552958105444956,0.6959841638486287,-1.0638524194291814
1970-01-01 00:00:00.000000000,1.3363708780597066,1.6970528985269462,0.17699729613522053,-1.1248074553066514
1970-01-01 00:00:00.000000000,1.125289942968934,2.2868614016661466,-0.9561536078135462,-1.0950453134663043
1970-01-01 00:00:00.000000000,1.045895442037173,1.4550528118513892,-1.5862968417085215,-1.0345681428911255
1970-01-01 00:00:00.000000000,0.9406828143892922,0.9453306019995648,-1.553095034638342,-1.0175284609158812
1970-01-01 00:00:00.000000000,1.0967736357548457,0.7310369987263283,-1.4351055369372443,-1.0265367452481955
1970-01-01 00:00:00.000000000,1.3023271972436343,0.46116391315068045,-1.2762589131278845,-1.030468111246027
1970-01-01 00:00:00.000000000,1.3165604333493663,0.24371317571181023,-1.250560598145875,-1.0227777390247625
1970-01-01 00:00:00.000000000,1.275729375005544,0.18175647796428027,-1.176212589914658,-1.021866195526475
1970-01-01 00:00:00.000000000,1.284693910436615,0.20781270728906784,-0.9630783515845828,-1.0235085622247506
1970-01-01 00:00:00.000000000,1.082631557202959,0.2677378799598553,-0.48835164174977264,-1.024313723422485
1970-01-01 00:00:00.000000000,0.7579557368161542,0.36676986043372173,0.12324383314742693,-1.0373021613756421
1970-01-01 00:00:00.000000000,0.7447795017677581,0.3404951225400483,-0.2286180924802791,-1.027397862930433
1970-01-01 00:00:00.000000000,0.8458070161195415,0.2516641331642162,-0.37086664509831274,-1.0273744527294038
1970-01-01 00:00:00.000000000,0.9805288605387874,0.134195384888608,-0.35502241317934546,-1.0319534487686517
1970-01-01 00:00:00.000000000,1.079271191056067,-0.07136916663633583,-0.40771893620854616,-1.0283490894887284
1970-01-01 00:00:00.000000000,1.1393666503403803,-0.3499622350068282,-0.4421882153885596,-1.0222713183641792
1970-01-01 00:00:00.000000000,1.2296882108468417,-0.5729780861203938,-0.47672978685491896,-1.018343413916462
1970-01-01 00:00:00.000000000,1.2915247124462188,-0.6672844538425062,-0.47635439329296775,-1.0198392209790053
1970-01-01 00:00:00.000000000,1.3806739081115134,-0.6849816151840272,-0.8761182796119678,-1.0085950000734363
1970-01-01 00:00:00.000000000,1.4134527315268242,-0.6027874113573091,-1.4544074114612473,-0.9877940362348638
1970-01-01 00:00:00.000000000,1.3207860945870833,-0.40102852440283987,-1.9536318627812224,-0.9725940112074005
1970-01-01 00:00:00.000000000,1.297565972066808,-0.18388507925694747,-2.0025552153693407,-0.981146598102518
1970-01-01 00:00:00.000000000,1.3897739507293876,-0.044115585467340915,-1.595605922123574,-0.9986111074931877
1970-01-01 00:00:00.000000000,1.2344568660526454,-0.02133752666332588,-1.0929064802692274,-0.9954551025156214
1970-01-01 00:00:00.000000000,0.7779223903814682,-0.12931748745651925,-0.5101888981596228,-0.9759965134426497
1970-01-01 00:00:00.000000000,0.23684060215467945,-0.32097454118534513,0.21706632343676033,-0.9571906669585704
1970-01-01 00:00:00.000000001,-0.24601686479185064,-0.6072702718921333,1.0507044836078197,-0.938426641783065
1970-01-01 00:00:00.000000001,-0.7882939380001395,-0.8546260327616427,1.6226515011149953,-0.9096318940435532
1970-01-01 00:00:00.000000001,-1.3334479534468033,-0.9809809298093716,1.9975377293599048,-0.8849828145300115
1970-01-01 00:00:00.000000001,-1.6985788782664808,-1.0323119187841052,2.660414344909691,-0.885356944959473
1970-01-01 00:00:00.000000001,-1.9292417995448614,-1.0265160740066281,3.4485743865565532,-0.9047298960209619
1970-01-01 00:00:00.000000001,-1.9719664317172712,-1.0675018941279923,4.067214277384084,-0.9262300623396327
1970-01-01 00:00:00.000000001,-1.9184752815341368,-1.1129944597841543,4.049251710478746,-0.9204411794840923
1970-01-01 00:00:00.000000001,-2.0684993589879648,-0.9545070893557867,3.5414233362304564,-0.8968403530424478
1970-01-01 00:00:00.000000001,-2.187933990833492,-0.9750544088113168,2.7528209117543465,-0.8606058086512116
1970-01-01 00:00:00.000000001,-2.2145194766317555,-1.107254721723126,1.7994485079634341,-0.8248092537136763
1970-01-01 00:00:00.000000001,-2.0545853669274585,-1.0725433887457296,0.9305684922257615,-0.8109643526506658
1970-01-01 00:00:00.000000001,-1.7261208996827064,-0.8350622901924447,0.09225526635139208,-0.8048737836350958
1970-01-01 00:00:00.000000001,-1.5895302849925987,-0.5874704386016247,-0.8030082928895881,-0.783959797648329
1970-01-01 00:00:00.000000001,-1.6344420689013297,-0.4250504350849188,-1.4218900574037971,-0.7604516359033164
1970-01-01 00:00:00.000000001,-1.748703197139834,-0.37942870312439053,-1.828560651446081,-0.7387717661743403
1970-01-01 00:00:00.000000001,-1.8464183591861802,-0.361407226344424,-1.99113020871127,-0.7282687278746778
1970-01-01 00:00:00.000000001,-1.8704338211580906,-0.42622475144968697,-1.9796133270327982,-0.72214222971647
1970-01-01 00:00:00.000000001,-1.9430819984160421,-0.5881571905702141,-1.8999257489473216,-0.7110676022430862
1970-01-01 00:00:00.000000001,-2.0892213716491814,-0.6854733057719459,-1.7998358063706295,-0.7081369426726284
1970-01-01 00:00:00.000000001,-2.005344370480114,-0.9576338622169804,-1.4836528200042094,-0.6966416468624339
1970-01-01 00:00:00.000000001,-2.43510624148903,-0.999019915139404,-1.3371692747957766,-0.6795664636658254
1970-01-01 00:00:00.000000001,-2.5931031266313673,-1.0598688682682846,-1.1638826212030455,-0.6956178938362125
1970-01-01 00:00:00.000000001,-2.1159843025554648,-1.2458963405985504,-0.7161183101807387,-0.7305734824062595
1970-01-01 00:00:00.000000001,-1.9133631878779305,-1.3012679515116585,-0.3932473772958523,-0.7518017547518038
1970-01-01 00:00:00.000000001,-1.834304407995455,-1.3323230296490276,-0.3455455562400142,-0.7620585753251466
1970-01-01 00:00:00.000000001,-1.674173551471249,-1.3698589696928816,-0.3848877618654426,-0.7721848997080181
1970-01-01 00:00:00.000000001,-1.4961509098002082,-1.3511252445965458,-0.49368010666474393,-0.7841898093291457
1970-01-01 00:00:00.000000001,-1.2738250920663785,-1.259493796870741,-0.5934462805395884,-0.7999111146357794
1970-01-01 00:00:00.000000001,-1.078725251770917,-1.160608806796824,-0.5347710037875345,-0.8188118217202844
1970-01-01 00:00:00.000000001,-0.9335502857680587,-1.103411156487097,-0.37183799156744485,-0.8344752416555042
1970-01-01 00:00:00.000000001,-0.8915010104768147,-1.0162681043097808,-0.139630454488407,-0.8467953889332603
1970-01-01 00:00:00.000000001,-0.933504093916375,-0.9135267120015915,0.024116668255802054,-0.8566993116671846
1970-01-01 00:00:00.000000001,-0.9050851506366178,-0.7336517196992303,-0.04391810257091101,-0.8687846260466726
1970-01-01 00:00:00.000000001,-0.7367330351651412,-0.4332423539961313,-0.24807807178894342,-0.8886582257115289
1970-01-01 00:00:00.000000001,-0.48678980009110406,-0.007393324949214269,-0.44769132248344295,-0.9184889549174705
1970-01-01 00:00:00.000000001,-0.17639010852826634,0.4468690693978674,-0.6263411462334938,-0.9472970680296557
1970-01-01 00:00:00.000000001,-0.00033452243032993517,0.7693644228677771,-0.7670134016447366,-0.9620256577070952
1970-01-01 00:00:00.000000001,0.02186599549654008,0.8878271846142773,-0.7711638615922395,-0.965538853479766
1970-01-01 00:00:00.000000001,-0.03149718903446598,0.8434628377220599,-0.6629175853413873,-0.9660301102422286
1970-01-01 00:00:00.000000001,-0.03708150324666283,0.7816058837386507,-0.481674492767912,-0.9713376732030886
1970-01-01 00:00:00.000000001,-0.010411083211737365,0.7909971545307544,-0.3111925880829963,-0.9789859349319118
1970-01-01 00:00:00.000000001,-0.011231599319904119,0.804493237575916,-0.1913494364887834,-0.9821066209743257
1970-01-01 00:00:00.000000001,-0.06819154677950799,0.731934294032375,-0.05362816310076296,-0.9862787973614902
1970-01-01 00:00:00.000000001,0.029338848683684814,0.6109073367725121,0.39656366824248696,-0.9942462723116137
1970-01-01 00:00:00.000000001,-0.1792094339534892,0.6259179462590334,0.6242013530814947,-0.9950164076184951
1970-01-01 00:00:00.000000001,-0.20901175636489464,0.6557589136250396,0.8237545663615209,-1.0043150319841054
1970-01-01 00:00:00.000000001,-0.157774483918843,0.6879849293357545,0.9755841463982878,-1.0130772482336312
1970-01-01 00:00:00.000000001,-0.15676745332921574,0.7557840686926889,1.1029672766446013,-1.0128207800715812
1970-01-01 00:00:00.000000001,-0.3559266689584617,0.801421368344882,0.8877687659839897,-0.9998473707210179
1970-01-01 00:00:00.000000001,-0.343485813665888,0.7975231576026289,0.8567196859066264,-0.9931279484123952
1970-01-01 00:00:00.000000001,-0.4704140207672749,0.5789189475897955,0.340877814158634,-0.9673921757499495
1970-01-01 00:00:00.000000001,-0.31885510671303485,0.4964238858400256,-0.23988324510533834,-0.9633253383180701
1970-01-01 00:00:00.000000001,0.08388201360409822,0.6327681793985923,-0.7594832226950682,-0.9841497495302459
1970-01-01 00:00:00.000000001,0.6216902298124927,0.9330244085118442,-1.1714563170716263,-1.0140104484086998
1970-01-01 00:00:00.000000001,0.9937889312538033,1.1719276545190123,-1.5068005341410349,-1.0310955534068373
1970-01-01 00:00:00.000000001,1.1644194163321473,1.25126217805858,-1.7199181901792202,-1.0333295790188133
1970-01-01 00:00:00.000000001,1.1848408519465319,1.2094258302018632,-1.833715923558703,-1.0215284029618996
1970-01-01 00:00:00.000000001,0.9926816685696571,1.1849392615891645,-1.7587077217083098,-1.01623327675503
1970-01-01 00:00:00.000000001,0.9985743298656286,1.185188494266692,-1.7501383010045524,-1.0155158078627968
1970-01-01 00:00:00.000000001,0.9662787765331864,1.199537575409682,-1.6106389136164465,-1.0183060437423221
1970-01-01 00:00:00.000000001,0.9217717002880811,1.1609691366669113,-1.5284692717673194,-1.0201042783077183
1970-01-01 00:00:00.000000001,0.9628971110458174,1.1436935125226904,-1.4109670261754026,-1.0274450726402946
1970-01-01 00:00:00.000000001,1.0123293011759644,1.1492635273745218,-1.1371326090397758,-1.040404857051462
1970-01-01 00:00:00.000000001,1.0272042822128673,1.147681371261532,-0.7803537732264202,-1.0522264230770604
1970-01-01 00:00:00.000000001,0.9663278428352923,1.1467667966930544,-0.3737859680673682,-1.0610752660229663
1970-01-01 00:00:00.000000001,0.8549372236734545,1.0981927685624255,-0.028696735481032958,-1.0636351304315543
1970-01-01 00:00:00.000000001,0.7326006527288621,1.0978367335445989,0.19237288913163372,-1.0636744765768542
1970-01-01 00:00:00.000000001,0.6324491038979967,1.134983939868006,0.31434964476138594,-1.0639908344172857
1970-01-01 00:00:00.000000001,0.5793956457137515,1.1439171427154418,0.3922550192496358,-1.0668905528659944
1970-01-01 00:00:00.000000001,0.6192441025195083,1.1687002707812653,0.44445723231110684,-1.0741327356322161
1970-01-01 00:00:00.000000001,0.6927072097002576,1.2619662480587,0.459066332830175,-1.0837172295238966
1970-01-01 00:00:00.000000001,0.7513211167483722,1.4857321046172822,0.7816774319172097,-1.1048887836993546
1970-01-01 00:00:00.000000001,0.721786533893583,1.4884289800850399,0.7818527324115642,-1.1126515268816002
1970-01-01 00:00:00.000000001,0.9402915296746759,1.521558606862101,0.6480545923782899,-1.1169941929205882
1970-01-01 00:00:00.000000001,0.9300929729552627,1.5166569141414619,0.6386247707519952,-1.123188173024582
1970-01-01 00:00:00.000000001,1.112485682344543,1.502850242126091,0.6694863850942592,-1.134414311574428
1970-01-01 00:00:00.000000001,1.2127777762272527,1.6734853974808261,0.5506934010107567,-1.142812465267221
1970-01-01 00:00:00.000000001,1.2732257106492648,1.9986253099570788,0.5166052622970589,-1.1541524305396456
1970-01-01 00:00:00.000000001,1.2176835613036345,2.141385385027694,0.9996360946772304,-1.1673157456358265
1970-01-01 00:00:00.000000001,1.0145342583689894,1.7747036395324234,1.9294928477299031,-1.1574491478859084
1970-01-01 00:00:00.000000001,0.36943838928798,0.20633286938111195,4.027390781063522,-1.1530912602503551
1970-01-01 00:00:00.000000001,0.383249501284866,0.12960411452471138,4.143378521752233,-1.1426945981065981
1970-01-01 00:00:00.000000001,0.07190464765590374,-0.6215795901028002,4.929271493357849,-1.1142207015166838
1970-01-01 00:00:00.000000001,-0.3984342279030197,-1.5453114258091145,5.313893420400911,-1.074322721352619
1970-01-01 00:00:00.000000001,-0.45191096925199287,-1.757914830659153,4.889764933550905,-1.048578698919842
1970-01-01 00:00:00.000000001,-0.4275002795043056,-1.7145288467723943,4.41361994068912,-1.0334419942675108
1970-01-01 00:00:00.000000001,-0.3795019877528713,-1.4257171998034581,2.8866202974473993,-0.9957083139108988
1970-01-01 00:00:00.000000001,-0.20678993455043226,-1.1509326864912388,1.6540309518204082,-0.9717796198970097
1970-01-01 00:00:00.000000001,-0.0336832085506565,-0.858619833128918,0.56306090403468,-0.9514959209772946
1970-01-01 00:00:00.000000001,0.0819727700575104,-0.48056809655424265,-0.9001518314487287,-0.9173755350546373
1970-01-01 00:00:00.000000001,0.11556873012706127,-0.46727273670872793,-0.9677143160234251,-0.9181974883710093
1970-01-01 00:00:00.000000001,0.19895152067263414,-0.4244600848848528,-1.2667989914871793,-0.9126209412660724
1970-01-01 00:00:00.000000001,0.21980477045313399,-0.6782732816946866,-1.1709821806427743,-0.9076916523253115
1970-01-01 00:00:00.000000001,0.22714680939360038,-0.698914055687745,-1.1597154206837659,-0.9050492063333963
1970-01-01 00:00:00.000000001,0.1678571732874014,-1.061080921898308,-1.0100088778428291,-0.8973116187002972
1970-01-01 00:00:00.000000001,0.22278961299292555,-1.2780254677277345,-0.6882789132337275,-0.9001191307357508
1970-01-01 00:00:00.000000001,0.15164820604230922,-1.6875923994124846,-0.3155074721297744,-0.8978906038269573
1970-01-01 00:00:00.000000001,0.20012281093120587,-1.8361887748050658,-0.37964229266588145,-0.8921466309878072
1970-01-01 00:00:00.000000001,0.20400407264317205,-1.8433553352086154,-0.3886852447334228,-0.8939192477281676
1970-01-01 00:00:00.000000002,0.27570475383223797,-1.8306562770223647,-0.5111103163313355,-0.8899240588675325
1970-01-01 00:00:00.000000002,0.20961805377793596,-1.8307319890063136,-0.6576611408236942,-0.8803981863062773
1970-01-01 00:00:00.000000002,0.16508976252106516,-1.8431909259853911,-0.7398239857456625,-0.874910471239227
1970-01-01 00:00:00.000000002,0.15967505725994938,-1.8185835757885631,-0.700747037498443,-0.8753451003421228
1970-01-01 00:00:00.000000002,0.1262847880597628,-1.867281488615244,-0.7890618950217008,-0.8681231063075182
1970-01-01 00:00:00.000000002,0.0997778687000978,-1.8964204500076174,-0.902327961272045,-0.8623826031454097
1970-01-01 00:00:00.000000002,0.11531026140713405,-1.782113545908242,-1.0198359436413633,-0.8622500629363915
1970-01-01 00:00:00.000000002,0.11217564021839449,-1.6573589403753137,-1.319956167905202,-0.8550827469975963
1970-01-01 00:00:00.000000002,0.10254486046035508,-1.3342551988245466,-1.9866579443984564,-0.8426614605980582
1970-01-01 00:00:00.000000002,0.11508558645133185,-1.3134755847968027,-2.015752487762553,-0.8427208460593764
1970-01-01 00:00:00.000000002,0.12566782779346242,-1.060781095062975,-2.1198547295644112,-0.8419968873790531
1970-01-01 00:00:00.000000002,-0.06353530624950965,-0.5381141723660468,-2.1808254009390438,-0.8516953036375434
1970-01-01 00:00:00.000000002,-0.06694697010754128,-0.41941871211993453,-2.213548249089426,-0.8548934641342625
1970-01-01 00:00:00.000000002,-0.07040119856048785,-0.4113996488839566,-2.2101859184871566,-0.855636821999218
1970-01-01 00:00:00.000000002,-0.06713785404530742,-0.3031332497229722,-2.076232992039891,-0.8620621718206922
1970-01-01 00:00:00.000000002,-0.148225939262295,-0.22999030052751007,-2.0548970734810763,-0.8768340240506668
1970-01-01 00:00:00.000000002,0.2223880257701507,0.00583582392874997,-1.993547303500553,-0.9000157890986864
1970-01-01 00:00:00.000000002,0.19319791019809965,-0.08458378609846014,-1.9930214537360733,-0.8957336143161069
1970-01-01 00:00:00.000000002,0.17233452170233504,-0.14740447083738323,-2.1758383696236407,-0.8925982196863977
1970-01-01 00:00:00.000000002,0.34294991813700254,-0.09589354681894953,-2.2051711464102928,-0.9049749375247362
1970-01-01 00:00:00.000000002,0.4898983795000984,-0.06491262639113879,-2.23697391657114,-0.9149164265983527
1970-01-01 00:00:00.000000002,0.6026364356750317,-0.031015520127326057,-2.3173927553959985,-0.9220367350162839
1970-01-01 00:00:00.000000002,0.7261658373743037,0.035850845463045955,-2.5242732166111006,-0.9217181563316104
1970-01-01 00:00:00.000000002,0.721471493238048,0.03648515076227725,-2.550487289971017,-0.9268566828044658
1970-01-01 00:00:00.000000002,0.8951031946913343,0.12496409103462223,-2.913167746690177,-0.9276964134727869
1970-01-01 00:00:00.000000002,1.0175011412375266,0.28424957397303224,-3.158337603863245,-0.9242422141602686
1970-01-01 00:00:00.000000002,0.8965963050743165,0.41554160849862015,-2.9961803553560418,-0.9110761665930653
1970-01-01 00:00:00.000000002,0.31444377925691036,0.9046990263704784,-1.2692068198691626,-0.9554891129717661
1970-01-01 00:00:00.000000002,-0.07486652508987306,0.9309124512008782,-0.6028234334147513,-0.9675495359480515
1970-01-01 00:00:00.000000002,-0.08359017719795325,0.9320199356034733,-0.5549431027788604,-0.9662655780753616
1970-01-01 00:00:00.000000002,-0.18954942715271345,0.8712974604914818,0.007031308784090629,-0.9839494216881208
1970-01-01 00:00:00.000000002,-0.10376589201548181,0.6940755260857961,0.3458524683685679,-0.9993047790846419
1970-01-01 00:00:00.000000002,0.056225948613558126,0.36182501579281157,0.32406860913504193,-1.0041963416294133
1970-01-01 00:00:00.000000002,0.36334478078124777,0.1764679130133697,0.005267990970818759,-1.0127284322162653
1970-01-01 00:00:00.000000002,0.7827602152263821,0.21792110334371892,-0.3667203851473875,-1.024358860434199
1970-01-01 00:00:00.000000002,1.0062800785763795,0.3232840288319345,-0.5408362383853939,-1.0290786479422263
1970-01-01 00:00:00.000000002,0.9674666629449191,0.4878635591441437,-0.25874216723262194,-1.033648749980291
1970-01-01 00:00:00.000000002,0.6732782374752407,0.6852496104113519,0.39101526545601056,-1.043220059174232
1970-01-01 00:00:00.000000002,0.37550346659921774,0.8457024427299332,0.8979808553124904,-1.0514663269563926
1970-01-01 00:00:00.000000002,0.21286637656670784,0.6793031575488012,1.6350546422331909,-1.0657839543964194
1970-01-01 00:00:00.000000002,0.18631354962807667,0.6432365826680536,1.6462482565640326,-1.0769466701665829
1970-01-01 00:00:00.000000002,0.5455557690241134,0.13249206220642512,1.5080557727134258,-1.0673686523835975
1970-01-01 00:00:00.000000002,0.5479633351190959,0.10074738358487823,1.4879558933779413,-1.0753086575110815
1970-01-01 00:00:00.000000002,0.8228603807722914,-0.0280943700715951,1.3009716838340857,-1.0817467650725054
1970-01-01 00:00:00.000000002,1.0302812158872852,-0.06502323016839254,1.1825517154919247,-1.0875818540970066
1970-01-01 00:00:00.000000002,1.138469610354378,-0.028835387006734534,1.0766220919160852,-1.084265838078443
1970-01-01 00:00:00.000000002,0.9875718064870121,0.37603006465887645,1.2258070499146982,-1.0980334903486508
1970-01-01 00:00:00.000000002,0.9797671234404209,0.4027896869487392,1.241310809933113,-1.0914958471827838
1970-01-01 00:00:00.000000002,0.7523075866976145,0.5339708427941927,1.3242641781164626,-1.0876750237494042
1970-01-01 00:00:00.000000002,0.6347633888636888,0.6720540412169808,2.171452971933905,-1.1180988213286032
1970-01-01 00:00:00.000000002,0.6131127249991908,0.5847725757494776,2.5282503697841094,-1.127708846437746
1970-01-01 00:00:00.000000002,0.600470745239913,0.5657030733538513,2.540204581572011,-1.1311424631556324
1970-01-01 00:00:00.000000002,0.7140978626570629,0.22854420447168347,2.5966071323274162,-1.1238038590971375
1970-01-01 00:00:00.000000002,0.6927742935472128,-0.2867899187121174,2.676407625174421,-1.1033420985608624
1970-01-01 00:00:00.000000002,0.5933731259647455,-0.39944898228543846,2.7388217747953325,-1.0940097746327395
1970-01-01 00:00:00.000000002,0.5045126796260438,-0.4050837795267249,2.8650291177674956,-1.0916729930551508
1970-01-01 00:00:00.000000002,0.4211491610692458,-0.49387887905525607,2.9108985908079457,-1.0872268519754387
1970-01-01 00:00:00.000000002,0.42639476654139447,-0.5023091675772886,2.9065696214349153,-1.0861152228938107
1970-01-01 00:00:00.000000002,0.41825405157202694,-0.6556745964543157,2.7292752370119873,-1.0750901170802278
1970-01-01 00:00:00.000000002,0.4640900865726249,-0.820050275067154,2.414716439510844,-1.0604632766502422
1970-01-01 00:00:00.000000002,0.5186001996962064,-0.9687896562965572,1.9849618038430854,-1.0405251784140335
1970-01-01 00:00:00.000000002,0.5238546647038207,-1.069168611407358,1.4473540977849706,-1.015614706996143
1970-01-01 00:00:00.000000002,0.4991061047866448,-1.0132313028301643,0.9791303852230651,-0.995540361609887
1970-01-01 00:00:00.000000002,0.4173510058922815,-0.9012607335451335,0.6259821346997256,-0.9771592250088671
1970-01-01 00:00:00.000000002,0.2644958391930174,-0.8913994816574192,0.35179627290055054,-0.9583496923984993
1970-01-01 00:00:00.000000002,0.19165206090589249,-0.9583302722616432,0.0807122325586924,-0.9400874708070606
1970-01-01 00:00:00.000000002,0.12655692801329074,-0.9830143909977621,-0.17206251540666584,-0.9235085409829651
1970-01-01 00:00:00.000000002,0.03760184063272881,-0.9974849634193438,-0.3908268272800415,-0.9090698144743689
1970-01-01 00:00:00.000000002,-0.015839572535813806,-0.9746989584013226,-0.6558811582312958,-0.896995786901829
1970-01-01 00:00:00.000000002,-0.034975873457551834,-0.8977782629442022,-0.8963557944927435,-0.8882077814028269
1970-01-01 00:00:00.000000002,-0.07989410173601236,-0.8125259551254158,-1.0929371071061036,-0.8818261250078041
1970-01-01 00:00:00.000000002,-0.08825235359097454,-0.745858168008304,-1.3183817399383868,-0.8765332363741858
1970-01-01 00:00:00.000000002,-0.05923001974746968,-0.6639000987581426,-1.5916253888896423,-0.8728267747545314
1970-01-01 00:00:00.000000002,0.006588293495938757,-0.6104384871153954,-1.836497748735795,-0.8707836706519909
1970-01-01 00:00:00.000000002,0.07741826426260745,-0.5516524021021413,-1.977527175721442,-0.8720456815938589
1970-01-01 00:00:00.000000002,0.12206373733431022,-0.4859196274629246,-2.0084792535636287,-0.8761929902027407
1970-01-01 00:00:00.000000002,0.14867795835773479,-0.4180277149340191,-1.8512628460337723,-0.8850152294173654
1970-01-01 00:00:00.000000002,0.13852904862141305,-0.41792745916156043,-1.8427163727542393,-0.8863169874721427
1970-01-01 00:00:00.000000002,0.1623043386372183,-0.4621411145573907,-1.748206650459936,-0.8916708644597671
1970-01-01 00:00:00.000000002,0.22823325703880193,-0.5213636676890641,-1.570344223465108,-0.9002773867426567
1970-01-01 00:00:00.000000002,0.26940162868913564,-0.609028305216225,-1.3954377752668807,-0.9101689697608719
1970-01-01 00:00:00.000000002,0.4045430964952941,-0.6630908982085802,-1.3471660338002134,-0.9149751218604291
1970-01-01 00:00:00.000000002,0.39780187005114387,-0.6673130337382358,-1.3509322246616586,-0.9170464077934876
1970-01-01 00:00:00.000000002,0.46533013218649066,-0.6765206766795584,-1.4501636960203341,-0.9174375525194959
1970-01-01 00:00:00.000000002,0.5176981523263912,-0.6598388773163435,-1.6145812085938722,-0.9148611509394056
1970-01-01 00:00:00.000000002,0.5402229170699923,-0.5204891783149641,-1.7748891034674505,-0.9151736902976937
1970-01-01 00:00:00.000000002,0.5461162957135433,-0.26758169648423313,-1.931637344323857,-0.919041246394855
1970-01-01 00:00:00.000000002,0.5434493579473987,0.01708873969866713,-1.9080138268186901,-0.9276345959053942
1970-01-01 00:00:00.000000002,0.46757100993504197,0.1714383532052854,-1.6422752949237447,-0.9346321581937561
1970-01-01 00:00:00.000000002,0.30616215674417574,0.2300108636110541,-1.3151550693554186,-0.9391696085590149
1970-01-01 00:00:00.000000002,0.19583367218784076,0.26653697892181805,-1.1392295630439098,-0.9452652582710083
1970-01-01 00:00:00.000000002,0.2486003508806237,0.34296374795336765,-1.0675669521547901,-0.956516184082836
1970-01-01 00:00:00.000000002,0.34103408471270924,0.4019992631281774,-1.0265630978263447,-0.9721566646564758
1970-01-01 00:00:00.000000002,0.5713192495151391,0.32664919138065307,-1.0840038542832966,-0.9760809267687951
1970-01-01 00:00:00.000000002,0.5635022674046085,0.3189148313977648,-1.090155040574345,-0.9806424308526821
1970-01-01 00:00:00.000000002,0.6994377602611326,0.29510864399548575,-1.0891248535875304,-0.9902073186171363
1970-01-01 00:00:00.000000002,0.8377843737832621,0.4020171623155568,-1.06321740045376,-1.0019565659747807
1970-01-01 00:00:00.000000002,0.8777644799129596,0.6117467881077843,-1.065352909080751,-1.0102279131187026
1970-01-01 00:00:00.000000002,0.8395655067714831,0.868642069187392,-0.9478151921337417,-1.0207011356374187
1970-01-01 00:00:00.000000003,0.767675129932433,1.0989554580719518,-0.5182909004101257,-1.041336370971449
1970-01-01 00:00:00.000000003,0.7437520569461945,1.1039106723243037,-0.49528374537063713,-1.0446255070226842
1970-01-01 00:00:00.000000003,0.7976897258989218,1.0620758974603703,-0.24892702182098753,-1.0581091158649212
1970-01-01 00:00:00.000000003,0.8995841640774852,0.7744522088565292,0.22656780595480872,-1.0720069715793388
1970-01-01 00:00:00.000000003,0.979485041002534,0.656215989977871,0.4243400309128005,-1.0779968684652563
1970-01-01 00:00:00.000000003,0.9727475331966249,0.6481712471705294,0.4354047553153715,-1.079116750358013
1970-01-01 00:00:00.000000003,0.9993131581352607,0.5709276270861962,0.558108306062003,-1.0816354477413375
1970-01-01 00:00:00.000000003,0.993937459616528,0.5575257873154226,0.6741706115173804,-1.0843892354994333
1970-01-01 00:00:00.000000003,0.9696677834782741,0.5931810368583245,0.7554106113354159,-1.0859615043152318
1970-01-01 00:00:00.000000003,0.9150950792581645,0.6057552144742837,0.8693089011537599,-1.0891783743968995
1970-01-01 00:00:00.000000003,0.9242491914415571,0.4874397658782763,1.1911597317470006,-1.0966245924701747
1970-01-01 00:00:00.000000003,0.9123161054335743,0.4736586662694155,1.2105440580455207,-1.1011454202675652
1970-01-01 00:00:00.000000003,1.0281837526493764,0.3249013855263916,1.5170869976123786,-1.110744592623751
1970-01-01 00:00:00.000000003,1.0124214784707715,0.3205277645784232,1.5226538991238823,-1.1171095589385416
1970-01-01 00:00:00.000000003,1.1791204333610523,0.4969622746866445,1.5121822953279929,-1.133599482121283
1970-01-01 00:00:00.000000003,1.2997096281236078,0.7018288013390229,1.1606432241099165,-1.135701308958074
1970-01-01 00:00:00.000000003,1.3764038029172074,0.8552995089987003,0.7280689031714229,-1.1274517122150218
1970-01-01 00:00:00.000000003,1.3547002766658425,1.0782787211640092,0.18423794105663605,-1.1184741413093906
1970-01-01 00:00:00.000000003,1.446729506238578,1.203698266245166,-0.05817219082662893,-1.1258777993228988
1970-01-01 00:00:00.000000003,1.6699122578856338,0.057864507675199545,1.3814029468441684,-1.1439364001890948
1970-01-01 00:00:00.000000003,1.6506602004233861,-0.025453046375527394,1.4719552682583767,-1.1445014931434452
1970-01-01 00:00:00.000000003,1.6649305476130825,-1.1275052830386119,2.4789807729078515,-1.140012437908064
1970-01-01 00:00:00.000000003,1.6327512333227645,-2.1580447627698653,3.2196704331506423,-1.1266894974772659
1970-01-01 00:00:00.000000003,1.6043869278076026,-2.967628977713968,3.6241952561933557,-1.108529659944285
1970-01-01 00:00:00.000000003,1.5658289244332464,-3.4996851647313383,3.601853954845907,-1.0853588502424913
1970-01-01 00:00:00.000000003,1.5533855540875607,-3.6378460516392455,3.0118859430390765,-1.060134878210063
1970-01-01 00:00:00.000000003,1.6620461621407698,-2.9428215001102522,0.7484032366271531,-1.0089461320111714
1970-01-01 00:00:00.000000003,1.7108274504161598,-2.8988252342749634,0.61451066295664,-1.0119014690289807
1970-01-01 00:00:00.000000003,1.8951931124644925,-2.2656553027804565,-0.5968108142645707,-1.002589009237999
1970-01-01 00:00:00.000000003,2.0302296796728685,-1.7135002749430372,-1.6680349822457246,-0.9976341145426647
1970-01-01 00:00:00.000000003,2.2828300343825005,-1.0649617783576115,-2.5062433640460475,-0.9996417410900073
1970-01-01 00:00:00.000000003,2.283375647224705,-1.0451089425989664,-2.505177048884053,-0.9973340967740265
1970-01-01 00:00:00.000000003,2.184494462301182,-1.2327296505456156,-1.7132869345545125,-1.0081288505398438
1970-01-01 00:00:00.000000003,1.9870393945404021,-1.521203200931039,-1.0361817628861765,-1.0047564466001422
1970-01-01 00:00:00.000000003,1.6817287311652802,-1.9831300593040986,0.09300605191609021,-1.0136684923756538
1970-01-01 00:00:00.000000003,1.5722187741780485,-2.1731533946999475,0.6475001702002983,-1.0141378419628382
1970-01-01 00:00:00.000000003,1.3119479322535537,-2.4726359576253607,1.4838741834610827,-1.0236776006518544
1970-01-01 00:00:00.000000003,1.307417496254616,-2.4810914074927304,1.524028836940989,-1.0182313219451649
1970-01-01 00:00:00.000000003,1.1255129361848424,-2.5591955047358073,1.6225409538881763,-1.010931551925039
1970-01-01 00:00:00.000000003,1.101613222024208,-2.5876471649376644,1.1891169734761617,-0.9973805245944999
1970-01-01 00:00:00.000000003,1.2244268879902054,-2.627148554622728,0.663746723926599,-0.9882132181680511
1970-01-01 00:00:00.000000003,1.4363865671604283,-2.6361654035895143,-0.058757021171534286,-0.9751779596564182
1970-01-01 00:00:00.000000003,1.6148512319598889,-2.418179927591326,-0.8690488808551823,-0.9604542778524002
1970-01-01 00:00:00.000000003,1.630413640638981,-2.407110855076355,-0.9079809756184561,-0.9595057560584668
1970-01-01 00:00:00.000000003,1.636261143839822,-2.331735961744738,-1.1543602631176075,-0.9541239380006721
1970-01-01 00:00:00.000000003,1.6553532253021177,-2.1983659057526292,-1.408351922278022,-0.9504463636807567
1970-01-01 00:00:00.000000003,1.666586127577475,-2.009368332408088,-1.60636647722081,-0.9431527202115819
1970-01-01 00:00:00.000000003,1.4628730516579653,-1.484007419870798,-1.8929713132888712,-0.9441054326369775
1970-01-01 00:00:00.000000003,1.4658131732945938,-1.4512299449475585,-1.8962569224227792,-0.9400919018308965
1970-01-01 00:00:00.000000003,1.318834204385906,-1.2021324852339976,-1.8088969836468847,-0.9413073083179581
1970-01-01 00:00:00.000000003,1.1655788546860721,-0.9742708744972386,-1.6618853541699734,-0.9431291408808273
1970-01-01 00:00:00.000000003,0.9921588658370656,-0.774728775216344,-1.483555227967312,-0.9447271444892885
1970-01-01 00:00:00.000000003,0.8284282849341505,-0.5758300532457611,-1.276529797849177,-0.9469277572316869
1970-01-01 00:00:00.000000003,0.6425761969404088,-0.3509657888712572,-1.0610324404125275,-0.9506054272183004
1970-01-01 00:00:00.000000003,0.4839056625035463,-0.13636804333630886,-0.8574678903471877,-0.9555405747205644
1970-01-01 00:00:00.000000003,0.3539510803700264,0.05750885326042886,-0.7021203644920171,-0.9605098557674299
1970-01-01 00:00:00.000000003,0.26391304290882084,0.2018498376477072,-0.5870391946574464,-0.965482774720209
1970-01-01 00:00:00.000000003,0.22619025982079008,0.2818679342273336,-0.5085067202593618,-0.9680938906785457
1970-01-01 00:00:00.000000003,0.17435475037035103,0.36439671997085477,-0.436829918864767,-0.9672399401199682
1970-01-01 00:00:00.000000003,0.0506372959042031,0.4921624122464086,-0.3505821818286801,-0.9620655852999215
1970-01-01 00:00:00.000000003,-0.18140324588776868,0.7227371058164216,-0.23014029537534963,-0.9597821678436669
1970-01-01 00:00:00.000000003,-0.3650789446496247,1.0080718968569768,-0.12687334124574368,-0.9657204944190687
1970-01-01 00:00:00.000000003,-0.40975795236195317,1.1358452735025293,-0.05479875407914059,-0.9740300172906035
1970-01-01 00:00:00.000000003,-0.34395090490257196,1.0130581325795727,0.0006146259772030448,-0.9797823275589649
1970-01-01 00:00:00.000000003,-0.1944745483991826,0.712189283841988,0.06685863315967844,-0.984627849105389
1970-01-01 00:00:00.000000003,0.016453212786413488,0.3324512634376117,0.1709672016176284,-0.9887708660030253
1970-01-01 00:00:00.000000003,0.19117013621753773,-0.013734222970303033,0.27152675857245556,-0.9899145849201274
1970-01-01 00:00:00.000000003,0.28942755960582733,-0.2047996371304008,0.4087309263440636,-0.9904472803350222
1970-01-01 00:00:00.000000003,0.26292379486445666,-0.2500206162015939,0.5300436160661834,-0.9863266207765539
1970-01-01 00:00:00.000000003,0.10444959108717491,-0.13468723527296025,0.5635164724825626,-0.9793017155922602
1970-01-01 00:00:00.000000003,-0.07628665492355348,0.09115572161262508,0.6625915987439729,-0.9771292424335078
1970-01-01 00:00:00.000000003,-0.2708555076916525,0.2753676341217344,0.7559326089125936,-0.9737119148045633
1970-01-01 00:00:00.000000003,-0.444821043554677,0.43568217665764764,0.8395006188794861,-0.9711806803062604
1970-01-01 00:00:00.000000003,-0.5805667597926961,0.5166654475182453,0.9391984127170345,-0.9695521415809729
1970-01-01 00:00:00.000000003,-0.6701902759277001,0.4998395892688768,1.0044112074143572,-0.9711724594460999
1970-01-01 00:00:00.000000003,-0.593685846050826,0.4982056780000296,0.9491064027292229,-0.9829020482051092
1970-01-01 00:00:00.000000003,-0.29778025046125983,0.7746576527439708,0.6944056022867147,-0.9942389060797961
1970-01-01 00:00:00.000000003,-0.3054817729701841,0.7891132716066284,0.671407184531506,-0.9899860904299468
1970-01-01 00:00:00.000000003,-0.3995705940028461,0.7968826793701443,0.1990703787990974,-0.9699035367936106
1970-01-01 00:00:00.000000003,-0.40269607603678376,0.9505019227232427,0.1772758943801255,-0.9736265516615515
1970-01-01 00:00:00.000000003,-0.40783613982142375,0.9602882837410196,0.18099781904790668,-0.9743943084846743
1970-01-01 00:00:00.000000003,-0.40677120853084503,1.0795661842362596,0.31194966586533696,-0.9827353314726742
1970-01-01 00:00:00.000000003,-0.43501354277891785,1.0049944579571428,0.8086389266353495,-0.992463873958367
1970-01-01 00:00:00.000000003,-0.577813165701426,0.6136269827603703,1.8296441554428704,-1.0054464632494624
1970-01-01 00:00:00.000000003,-0.72302516887048,-0.05007958304526906,2.9787396107040185,-1.017604293395241
1970-01-01 00:00:00.000000003,-0.7493876840129021,-0.7771328436025162,3.7849682149457613,-1.0312265770419191
1970-01-01 00:00:00.000000003,-0.4311718913460109,-1.636457975280272,4.261451411773931,-1.0294640677941642
1970-01-01 00:00:00.000000003,-0.4311094126456461,-1.673984424256991,4.257467967658222,-1.0310551886926742
1970-01-01 00:00:00.000000003,-0.3268316906296029,-1.7666342282252174,3.7346709664313726,-1.0145387754747541
1970-01-01 00:00:00.000000003,-0.25036125779503837,-1.6488347235171208,2.7049531402956024,-0.9851867348189236
1970-01-01 00:00:00.000000003,-0.18784399359532386,-1.3691768761678629,1.4317902521190942,-0.9527766340669938
1970-01-01 00:00:00.000000003,-0.10861933897500847,-1.0055675237012667,0.26675707623385064,-0.9264089756760037
1970-01-01 00:00:00.000000003,-0.07405117282024656,-0.6290361987049758,-0.5772391287437999,-0.908155644123769
1970-01-01 00:00:00.000000003,-0.11234860016230369,-0.2792405858882022,-1.1530442968715502,-0.894624160220852
1970-01-01 00:00:00.000000003,-0.20119660824442487,-0.05091387166384341,-1.4454111381753794,-0.887150933226559
1970-01-01 00:00:00.000000004,-0.244957991191819,0.0749355084624258,-1.452686976365714,-0.8880815793982498
1970-01-01 00:00:00.000000004,-0.28562863920905807,0.027752922446889206,-1.3235569014013293,-0.8874713882286293
1970-01-01 00:00:00.000000004,-0.34396033567897666,-0.13847094446754366,-1.0962137035412605,-0.886510244845845
1970-01-01 00:00:00.000000004,-0.3729720374208423,-0.35459568902504585,-0.8623403601671675,-0.8864324885636465
1970-01-01 00:00:00.000000004,-0.3612312233476984,-0.5231844577330895,-0.7745478194966782,-0.8847387448970008
1970-01-01 00:00:00.000000004,-0.33794537230869937,-0.6530322875514722,-0.682098384026282,-0.883161241438531
1970-01-01 00:00:00.000000004,-0.3634807891744168,-0.7784053806560287,-0.5618266237123146,-0.8803328484427185
1970-01-01 00:00:00.000000004,-0.4092165541546024,-0.8571751863013728,-0.4804826523462999,-0.8790878626549073
1970-01-01 00:00:00.000000004,-0.40036169453758996,-0.8916485994758089,-0.43752893963255546,-0.8813633932345578
1970-01-01 00:00:00.000000004,-0.3537310596848359,-0.931970686110838,-0.5474324042980846,-0.8823574412435586
1970-01-01 00:00:00.000000004,-0.2265982299763416,-0.9636497468304301,-0.7852357977294211,-0.8843773416551918
1970-01-01 00:00:00.000000004,-0.03309331308643276,-0.9795269075886199,-1.0468885636740817,-0.8887852127244366
1970-01-01 00:00:00.000000004,0.16858125351230607,-1.0132895016235948,-1.2604681650320597,-0.8925361454658655
1970-01-01 00:00:00.000000004,0.3128939643629251,-1.0641082304947331,-1.4205704864378133,-0.8945093091002215
1970-01-01 00:00:00.000000004,0.42876354684300083,-1.1051632365610562,-1.482465483615758,-0.8967457150669813
1970-01-01 00:00:00.000000004,0.4740527321526004,-1.1068573129019592,-1.4375557274358046,-0.8991831539564498
1970-01-01 00:00:00.000000004,0.44978331457485665,-1.0497443593586244,-1.3512993047177306,-0.9009595893238957
1970-01-01 00:00:00.000000004,0.3773972220207794,-0.9610631065855447,-1.2723482167475482,-0.9015484745933394
1970-01-01 00:00:00.000000004,0.29745474219084755,-0.8590673521658393,-1.2122103811808382,-0.900957058411076
1970-01-01 00:00:00.000000004,0.19851932851055343,-0.7100161229484915,-1.1835927961914217,-0.9005528235620448
1970-01-01 00:00:00.000000004,0.10891992248396036,-0.5480904591508176,-1.231517607694978,-0.9006916694715524
1970-01-01 00:00:00.000000004,0.08510424344187838,-0.3247018445150863,-1.303658181964502,-0.9043978225613613
1970-01-01 00:00:00.000000004,0.05632308994366153,-0.11018985841193292,-1.3585838210019694,-0.9093800553406163
1970-01-01 00:00:00.000000004,0.055083911874794056,0.08282893445689456,-1.3948517180247078,-0.9156104045713176
1970-01-01 00:00:00.000000004,0.062198212330580996,0.236220024814304,-1.4127636295988801,-0.9224519320187095
1970-01-01 00:00:00.000000004,0.09219308014200053,0.6005074911985491,-1.4443705254757628,-0.9351960042645345
1970-01-01 00:00:00.000000004,0.07664319918045745,0.6172594783272106,-1.4454633174660103,-0.9380629423430223
1970-01-01 00:00:00.000000004,0.13376636200927913,0.7596412033440633,-1.3889962663986077,-0.9483606592891549
1970-01-01 00:00:00.000000004,0.15564753039454038,0.8547511820226088,-1.3457377052362722,-0.9559766884040494
1970-01-01 00:00:00.000000004,0.18842925129953605,0.9657542813427468,-1.298808204904371,-0.9658963575438225
1970-01-01 00:00:00.000000004,0.2526761772411795,1.1127695616668372,-1.0799286797464724,-0.9810698178438918
1970-01-01 00:00:00.000000004,0.23649318021759355,1.119964305197113,-1.0683257267151287,-0.9820483027060061
1970-01-01 00:00:00.000000004,0.24064661703134543,1.1729967516801303,-0.9681358685370839,-0.9875042821933484
1970-01-01 00:00:00.000000004,0.22910128321041376,1.2380524913578552,-0.8842382225946815,-0.9934628153229451
1970-01-01 00:00:00.000000004,0.2459106818975548,1.3397839335301596,-0.8209327229711197,-1.0006283129779736
1970-01-01 00:00:00.000000004,0.2527359545343154,1.4529832479693894,-0.7640757636126182,-1.006632101069408
1970-01-01 00:00:00.000000004,0.22972026480750146,1.5554953642725324,-0.6443812919403921,-1.013706813266861
1970-01-01 00:00:00.000000004,0.21513425331050384,1.6376533645722704,-0.5419573415946854,-1.0211900799525522
1970-01-01 00:00:00.000000004,0.23974169371857865,1.6905273692328822,-0.4590850410620021,-1.0290434553979404
1970-01-01 00:00:00.000000004,0.2849352004898987,1.7336613716969742,-0.3762630000979562,-1.035907448810421
1970-01-01 00:00:00.000000004,0.2931180974925941,1.7678738873565065,-0.3004717408117361,-1.0409134417123387
1970-01-01 00:00:00.000000004,0.3028965395890496,1.7714369288427472,-0.21397065990485636,-1.0462521355086556
1970-01-01 00:00:00.000000004,0.34097249534138463,1.7160063597573543,-0.07165290825972047,-1.0528110486616995
1970-01-01 00:00:00.000000004,0.3880895499283652,1.6313392327115164,0.09994658499806627,-1.0590417302515522
1970-01-01 00:00:00.000000004,0.4168231662987911,1.5573097271387502,0.24736750689268744,-1.0641588644450177
1970-01-01 00:00:00.000000004,0.4449225029597855,1.5182874388797412,0.43124013994947474,-1.0709835709189437
1970-01-01 00:00:00.000000004,0.45120687629029743,1.4611245097746022,0.6707896589034683,-1.077724163206113
1970-01-01 00:00:00.000000004,0.43975782381993883,1.3772290306166834,0.8752353560263695,-1.082414130063916
1970-01-01 00:00:00.000000004,0.4510916185202405,1.284959015795195,1.021464652727825,-1.0865576496002982
1970-01-01 00:00:00.000000004,0.4908522006316912,1.2284742339282295,1.1161201056995795,-1.0928325710694784
1970-01-01 00:00:00.000000004,0.5742711769429515,1.2007304463999575,1.180663347293789,-1.1030366231426432
1970-01-01 00:00:00.000000004,0.7237070827991375,1.2675832491637091,1.0881257015258643,-1.1128208234887491
1970-01-01 00:00:00.000000004,0.8643922897283361,1.3550047807485879,0.7797180936328637,-1.1121381113252666
1970-01-01 00:00:00.000000004,0.9222282042787089,1.3767510881114422,0.5234680836246575,-1.1057029252301795
1970-01-01 00:00:00.000000004,0.9183451851844652,1.4523642342294718,0.48900980020196533,-1.1067512339204912
1970-01-01 00:00:00.000000004,0.9033127487238779,1.4933639705035564,0.8360772562476835,-1.1202996562038214
1970-01-01 00:00:00.000000004,0.898446228212465,1.1293635168502287,1.5959766659692165,-1.1304389360989628
1970-01-01 00:00:00.000000004,0.7845962722715587,0.27739473165715944,2.5332364721256746,-1.1236078712637052
1970-01-01 00:00:00.000000004,0.6355298412158374,-0.7825563161003599,3.15855752743049,-1.0998241420145587
1970-01-01 00:00:00.000000004,0.5928976130661163,-1.6518107427693485,3.252421292095092,-1.0670394395318783
1970-01-01 00:00:00.000000004,0.5464864268895858,-2.1433785889225145,3.079772508886553,-1.03728557559661
1970-01-01 00:00:00.000000004,0.46928940675375924,-2.304526980127782,3.0663206258526237,-1.024786923565819
1970-01-01 00:00:00.000000004,0.3965845242324584,-2.475969221382372,3.438765042279513,-1.0290807075352628
1970-01-01 00:00:00.000000004,0.4022066034489681,-2.5641357561529716,3.262841756737518,-1.027885938842987
1970-01-01 00:00:00.000000004,0.63930200754198,-2.293367522015375,2.1202910623659714,-1.0115109684928678
1970-01-01 00:00:00.000000004,0.8504065593182802,-1.8016661995441605,0.415138065861722,-0.9777890717464616
1970-01-01 00:00:00.000000004,0.9486255244356233,-1.4169049873519663,-0.72684840577449,-0.9540790903366065
1970-01-01 00:00:00.000000004,0.9988539698118446,-0.8551214481745119,-1.9403980109885404,-0.9326993565575158
1970-01-01 00:00:00.000000004,1.0333685898281748,-0.36737036944041424,-2.6098941469966146,-0.9247997927968593
1970-01-01 00:00:00.000000004,0.9804772297818973,-0.20209701634056468,-2.664962447543859,-0.9251135385815011
1970-01-01 00:00:00.000000004,0.9379835177604101,-0.2129613266784383,-2.467804191611192,-0.9269780038272728
1970-01-01 00:00:00.000000004,0.8438843152698627,-0.3737344930639208,-2.0416264150449623,-0.9291682538414963
1970-01-01 00:00:00.000000004,0.729412654020617,-0.6491021787073266,-1.427341207262706,-0.9317970425530046
1970-01-01 00:00:00.000000004,0.564743616646926,-1.1161084898894114,-0.46067033890360976,-0.9434360529451179
1970-01-01 00:00:00.000000004,0.5509650067735693,-1.1403333066244459,-0.4152642014523931,-0.945482645282812
1970-01-01 00:00:00.000000004,0.5804962355644616,-1.2925096999922403,-0.12108201133260338,-0.9542142807124198
1970-01-01 00:00:00.000000004,0.6445227783828841,-1.4002155712559268,0.0032629173821972363,-0.9610899120424233
1970-01-01 00:00:00.000000004,0.7432373060511104,-1.483593205399918,-0.011101700830222803,-0.9654958259151545
1970-01-01 00:00:00.000000004,0.8563032562985945,-1.517451144337428,-0.1636590095938053,-0.9679475574623319
1970-01-01 00:00:00.000000004,0.9958232174257061,-1.5345189293798904,-0.45462279587178334,-0.9660194632370703
1970-01-01 00:00:00.000000004,1.11068877308966,-1.5132091468929862,-0.7098056769177256,-0.9632271479119506
1970-01-01 00:00:00.000000004,1.1569830693648804,-1.4906981659988436,-0.8787006101749212,-0.9596836596537044
1970-01-01 00:00:00.000000004,1.1660927616087302,-1.4916479399296274,-1.0211174026589938,-0.9542382675919089
1970-01-01 00:00:00.000000004,1.1545984132074363,-1.4301086474654385,-1.087781696982254,-0.9510620006921845
1970-01-01 00:00:00.000000004,1.0957060371109024,-1.3399334364587652,-1.0676363106834148,-0.9430836459186085
1970-01-01 00:00:00.000000004,0.8309443229988742,-1.1720971698722216,-1.162401724420952,-0.9361994720612494
1970-01-01 00:00:00.000000004,0.840149001334715,-1.1562951921120874,-1.1668152907031315,-0.9339071417559643
1970-01-01 00:00:00.000000004,0.7627486318894381,-0.95199300850116,-1.2457311159106397,-0.9334133466968145
1970-01-01 00:00:00.000000004,0.7037930333302342,-0.7121118433081828,-1.382520644773081,-0.9328490249469634
1970-01-01 00:00:00.000000004,0.6434584523311176,-0.4552567881866756,-1.512556320329424,-0.9337403542380769
1970-01-01 00:00:00.000000004,0.6018637295119841,-0.23605271864314747,-1.6127312850324533,-0.9343718203921854
1970-01-01 00:00:00.000000004,0.5409301376673237,-0.05852857206674954,-1.6715503324352772,-0.9346607532393864
1970-01-01 00:00:00.000000004,0.49091803527945516,0.02288978804628572,-1.6520191755146745,-0.9343600018658635
1970-01-01 00:00:00.000000004,0.43251195686307786,0.03649345212474901,-1.57302680365263,-0.9331186943306414
1970-01-01 00:00:00.000000004,0.3644005646102262,0.039693894936767685,-1.492444047491543,-0.9325842694466603
1970-01-01 00:00:00.000000004,0.33365926652079136,0.09796712029758446,-1.4102370694894373,-0.9339311715995893
1970-01-01 00:00:00.000000005,0.2583347821213092,0.20121128094867174,-1.2381639008726033,-0.9377644358916101
1970-01-01 00:00:00.000000005,0.1622197928108589,0.28057498443315015,-1.0743507349541972,-0.9398710783572476
1970-01-01 00:00:00.000000005,0.07009469667935855,0.372980959358288,-1.0206382822787998,-0.9400870191421442
1970-01-01 00:00:00.000000005,0.016614567787453752,0.538875840644766,-0.9839179641692359,-0.943513516076485
1970-01-01 00:00:00.000000005,-0.04238804527698631,0.7623376209599044,-0.959475867381044,-0.9491070320134278
1970-01-01 00:00:00.000000005,-0.08733642727329435,1.0182701742878095,-0.9479002061037924,-0.9583460992708933
1970-01-01 00:00:00.000000005,-0.06530700882261531,1.19033751762819,-0.9244492646041225,-0.9668572154834643
1970-01-01 00:00:00.000000005,-0.06042924096979742,1.2941375894215206,-0.8389351504593101,-0.973503931034438
1970-01-01 00:00:00.000000005,-0.08383303046121339,1.3388136332496452,-0.6393635613004852,-0.9803126859495948
1970-01-01 00:00:00.000000005,-0.12691483050476215,1.362220033352498,-0.4154914796201966,-0.9865490645710213
1970-01-01 00:00:00.000000005,-0.1687834210710545,1.3556085048532578,-0.1644251508593622,-0.9920308198825195
1970-01-01 00:00:00.000000005,-0.22526482384941954,1.2943138868763664,0.03111669560832411,-0.9931787830661017
1970-01-01 00:00:00.000000005,-0.2804706685245774,1.167382747853216,0.3310922393287013,-0.9972800158576395
1970-01-01 00:00:00.000000005,-0.28547389672985346,1.1602707112303083,0.34362417233645204,-0.9981312390203224
1970-01-01 00:00:00.000000005,-0.2686927356400929,1.1115234675416015,0.3983574259319933,-1.0006664255145759
1970-01-01 00:00:00.000000005,-0.2248003534930961,1.1165842912187587,0.42774770665319706,-1.0041408710473942
1970-01-01 00:00:00.000000005,-0.2111033148298925,1.1405398538664486,0.5051181122058994,-1.0068496342634983
1970-01-01 00:00:00.000000005,-0.2544096047332181,1.1012871754210927,0.6337367351518268,-1.0075038418213216
1970-01-01 00:00:00.000000005,-0.2861657579336617,1.0311585885877699,0.7927184429781372,-1.0088093888274698
1970-01-01 00:00:00.000000005,-0.3117026425479499,0.9571939587055138,0.9868604675146996,-1.0131504142635377
1970-01-01 00:00:00.000000005,-0.2938345479668113,0.8884451179030181,1.1778810013606624,-1.0208849748461386
1970-01-01 00:00:00.000000005,-0.23110971872237174,0.8013211024043428,1.336423446951545,-1.0302470288538443
1970-01-01 00:00:00.000000005,-0.11914171144874221,0.7544707373451617,1.412798156661978,-1.0385387138767246
1970-01-01 00:00:00.000000005,-0.03829177279406817,0.7906855018026369,1.2804234788094795,-1.0390015499301097
1970-01-01 00:00:00.000000005,-0.007818033923857399,0.830035435290114,0.8946333951580718,-1.0285055102721532
1970-01-01 00:00:00.000000005,0.02110793788015422,0.8297244751627865,0.5841314145907929,-1.0211940032856848
1970-01-01 00:00:00.000000005,0.09907850451576827,0.8353737229689296,0.6397631276571527,-1.030884249577524
1970-01-01 00:00:00.000000005,0.21685795267765082,0.7355551032403008,1.199662090394299,-1.0524916770654802
1970-01-01 00:00:00.000000005,0.2187786555699573,0.34297618933592455,2.0694754378056612,-1.0680289063737054
1970-01-01 00:00:00.000000005,0.14897010959650603,-0.26302650523595994,2.888346216292907,-1.0721173090901908
1970-01-01 00:00:00.000000005,0.11140326258974752,-0.8811160565538707,3.4794481762558047,-1.0655626649084773
1970-01-01 00:00:00.000000005,0.007169943720096966,-1.3757643606152405,3.7080972037171067,-1.0467319823354035
1970-01-01 00:00:00.000000005,-0.12336205859229755,-1.595112934163361,3.558585070000331,-1.0267921122531618
1970-01-01 00:00:00.000000005,-0.1486752460783615,-1.527642142882341,3.038342405204998,-1.0120123295868113
1970-01-01 00:00:00.000000005,-0.04777425361159504,-1.3489864906139566,2.2788983035805126,-0.9953023535448582
1970-01-01 00:00:00.000000005,0.005282701433882996,-1.2528751964505023,1.3840296987128389,-0.9690333088803775
1970-01-01 00:00:00.000000005,0.05841066209309659,-1.2528292566406811,0.5657181185750714,-0.9427824293163954
1970-01-01 00:00:00.000000005,0.13540179605255825,-1.2595958420842113,-0.04572160642223948,-0.9221733918986385
1970-01-01 00:00:00.000000005,0.14312525227494696,-1.2052222717106529,-0.4991652840531345,-0.9048629440244473
1970-01-01 00:00:00.000000005,0.08695773271716022,-1.1605730088995112,-0.8109085778085128,-0.8882936115575433
1970-01-01 00:00:00.000000005,-0.021958337584425364,-1.175024771709023,-0.9401421199095338,-0.8738403711620413
1970-01-01 00:00:00.000000005,-0.14530015689151865,-1.2213615845006864,-0.9791944170054989,-0.8616621670741405
1970-01-01 00:00:00.000000005,-0.25371199498361563,-1.2629683302649952,-0.9593374596943791,-0.8522684602951833
1970-01-01 00:00:00.000000005,-0.3676835597158983,-1.324753137608384,-0.8688867996968492,-0.8455560658498819
1970-01-01 00:00:00.000000005,-0.45506163927741206,-1.3673075873097396,-0.862547334268945,-0.8396865198000041
1970-01-01 00:00:00.000000005,-0.4869147352601112,-1.3540695356708745,-0.9314090414808747,-0.837497784666436
1970-01-01 00:00:00.000000005,-0.4557227055026142,-1.258183678384751,-1.1011105882955463,-0.838367468774649
1970-01-01 00:00:00.000000005,-0.38793411889606094,-1.1582083405710013,-1.3398954023524818,-0.8397424321026702
1970-01-01 00:00:00.000000005,-0.2845481738225891,-1.0237699847770416,-1.5863937429662913,-0.8450066657422358
1970-01-01 00:00:00.000000005,-0.13624861938218785,-0.8595484350994194,-1.868702844427679,-0.8514047296279581
1970-01-01 00:00:00.000000005,-0.0019127002177464492,-0.6518550916622936,-2.0864003853360726,-0.860738362967642
1970-01-01 00:00:00.000000005,0.11654137438244853,-0.4749042055837761,-2.198472725447585,-0.8728962362996571
1970-01-01 00:00:00.000000005,0.2505625991887964,-0.34972765285938445,-2.201532395508492,-0.8866292108828666
1970-01-01 00:00:00.000000005,0.3524308741018587,-0.3026382075797015,-2.077797739241787,-0.9009882434978125
1970-01-01 00:00:00.000000005,0.4531172496310973,-0.29738001837896094,-1.8748826306060635,-0.9159294301444163
1970-01-01 00:00:00.000000005,0.5330196553072449,-0.3286774628433052,-1.6460884613129996,-0.9311615445924948
1970-01-01 00:00:00.000000005,0.6494716049515935,-0.3003476868802257,-1.2929420333348833,-0.9488684823428848
1970-01-01 00:00:00.000000005,0.6293326823065648,-0.2940639982226386,-1.2767003540286952,-0.9516413939652233
1970-01-01 00:00:00.000000005,0.6731099215457472,-0.10934340749526444,-1.1479306678041357,-0.9654122970823872
1970-01-01 00:00:00.000000005,0.6917915545565714,-0.01599290042895833,-1.0752125729624347,-0.9722755235387016
1970-01-01 00:00:00.000000005,0.6846854747387333,-0.009468871721388175,-1.06981276981638,-0.9730308060973449
1970-01-01 00:00:00.000000005,0.6874940720628471,0.0802004631179549,-0.9898651129133479,-0.979689141923137
1970-01-01 00:00:00.000000005,0.6946408189180602,0.1676624751685507,-0.9137641795816421,-0.9857949265649779
1970-01-01 00:00:00.000000005,0.6784542398461323,0.3378847942190426,-0.7905693080048642,-0.9955754475451416
1970-01-01 00:00:00.000000005,0.6672512975454005,0.3526725448061706,-0.7841615604891179,-0.9972965810932748
1970-01-01 00:00:00.000000005,0.6828062845352447,0.6055459008519873,-0.7105208398968889,-1.0101602566688477
1970-01-01 00:00:00.000000005,0.69089981249296,0.7556376795119434,-0.6413302154124262,-1.0184594476511617
1970-01-01 00:00:00.000000005,0.6821859574202194,0.7656052323320163,-0.6364611898770873,-1.0193110435509927
1970-01-01 00:00:00.000000005,0.6843983218088248,0.8921208715854684,-0.5667046331359581,-1.0265214500926636
1970-01-01 00:00:00.000000005,0.6803315664807167,0.9852829771220255,-0.5009392281473908,-1.033143432304538
1970-01-01 00:00:00.000000005,0.6965542781848697,1.0386056720449002,-0.3805683655079085,-1.0402650607941744
1970-01-01 00:00:00.000000005,0.6937303601148826,1.0651270521328535,-0.2663497565235731,-1.0459563250956174
1970-01-01 00:00:00.000000005,0.7021327824568196,1.1185088486275416,-0.1621909475431847,-1.0518716037021127
1970-01-01 00:00:00.000000005,0.6914172456550973,1.1826081863049345,-0.06480950164824228,-1.0565806493672616
1970-01-01 00:00:00.000000005,0.6639372521838676,1.2284847147340983,0.07890693616903449,-1.059233396085564
1970-01-01 00:00:00.000000005,0.5729006552734585,1.2214752737905998,0.18029294048705696,-1.0577248826680719
1970-01-01 00:00:00.000000005,0.5255434690055742,1.193835133500699,0.23148991287012521,-1.0568509800637644
1970-01-01 00:00:00.000000005,0.5249082836593738,1.1809991497002843,0.2388605259783485,-1.0583257600815732
1970-01-01 00:00:00.000000005,0.571924890287194,1.151508997950613,0.176111378088901,-1.059577452595097
1970-01-01 00:00:00.000000005,0.6535428395449293,1.1532544482428317,0.009657335698523256,-1.056754806709493
1970-01-01 00:00:00.000000005,0.65821854132344,1.1542794627060715,0.002555043871441537,-1.054883970460993
1970-01-01 00:00:00.000000005,0.6164490313738075,1.1389091536348475,-0.06405304235583736,-1.0484942869235543
1970-01-01 00:00:00.000000005,0.5693452511117523,1.0584237922758324,-0.01983108063803902,-1.0423056696339676
1970-01-01 00:00:00.000000005,0.4885803222495929,0.992745853177793,0.08282648049395228,-1.0395461778284179
1970-01-01 00:00:00.000000005,0.45667285030208327,0.9769935719195739,0.23742538236975005,-1.0441618033383078
1970-01-01 00:00:00.000000005,0.47496941279979754,0.9879800027035825,0.4295582575422093,-1.0509230982529936
1970-01-01 00:00:00.000000005,0.4322806911595646,0.9723317670293037,0.6345128372220435,-1.0568965835403545
1970-01-01 00:00:00.000000005,0.43688874318815496,0.9340951621463355,0.871405802511681,-1.0661672022778592
1970-01-01 00:00:00.000000005,0.4824414596690748,0.9069015761591389,0.8021077958307152,-1.0709539127244723
1970-01-01 00:00:00.000000005,0.6598026241012468,1.0825469371861214,0.06580422795334412,-1.0692888982471818
1970-01-01 00:00:00.000000005,0.9857699634395534,1.546500582299186,-0.5507587866573388,-1.0752114855163455
1970-01-01 00:00:00.000000005,0.9748157860129578,1.5540848444699034,-0.555175408123498,-1.0803051511161414
1970-01-01 00:00:00.000000005,1.1050692188548248,1.4122795084863045,0.059512057420938666,-1.0945383045214212
1970-01-01 00:00:00.000000005,0.8924577582906467,0.20224212319161733,2.0367811970201406,-1.097448832430945
1970-01-01 00:00:00.000000005,0.40474355813104607,-1.7629663781100813,4.497356066325333,-1.0978043669115904
1970-01-01 00:00:00.000000005,0.4013063630866299,-1.8596990896424777,4.584467836285262,-1.100633831660625
1970-01-01 00:00:00.000000005,0.49926440224408286,-2.424203361923945,4.557981193689587,-1.0946034076124365
1970-01-01 00:00:00.000000006,0.8302454371877951,-2.475107418718908,3.7247086569186956,-1.0849739102900875
1970-01-01 00:00:00.000000006,1.1303070416225225,-2.278517136766516,2.6343323498351916,-1.0745123634999183
1970-01-01 00:00:00.000000006,1.4555342615256142,-1.9277111212601385,1.269408941348362,-1.0597157514908075
1970-01-01 00:00:00.000000006,1.7569829790196816,-1.525183828114524,-0.11579162428671931,-1.043313617609175
1970-01-01 00:00:00.000000006,2.008232306355991,-1.1713260224667483,-1.3148565817245348,-1.028825708591682
1970-01-01 00:00:00.000000006,2.220042132161906,-0.8873526527527429,-2.172069956540787,-1.02171438863131
1970-01-01 00:00:00.000000006,2.3967754359803375,-0.7515150316399131,-2.545351674659317,-1.021782214236297
1970-01-01 00:00:00.000000006,2.466807014829352,-0.8586196712507376,-2.507491728986616,-1.0214718654745423
1970-01-01 00:00:00.000000006,2.4556673498745782,-1.1463249931379713,-2.1220339089872873,-1.0230670545843157
1970-01-01 00:00:00.000000006,2.4091837609785043,-1.5187299893309687,-1.463998659526626,-1.0279134541584687
1970-01-01 00:00:00.000000006,2.298439163431435,-1.912403897404301,-0.7089490768377307,-1.0336153863004667
1970-01-01 00:00:00.000000006,2.1985692899312976,-2.2741351477649316,-0.08558632227187699,-1.037661883133906
1970-01-01 00:00:00.000000006,2.1425417221367264,-2.5455174333515598,0.3418460343943665,-1.0395277994176977
1970-01-01 00:00:00.000000006,2.0933867639226866,-2.712106265042663,0.5581585386042952,-1.0368594134594198
1970-01-01 00:00:00.000000006,2.0200219902233987,-2.758750108552025,0.6510361221699048,-1.0330747497383412
1970-01-01 00:00:00.000000006,1.9476153760637809,-2.6972980356952974,0.5966653901498524,-1.0293101993090827
1970-01-01 00:00:00.000000006,1.9150944370294964,-2.5855298869822465,0.4416963801148596,-1.0255336633681449
1970-01-01 00:00:00.000000006,1.8941448392298574,-2.472136806801539,0.2190089789751682,-1.0202266056070068
1970-01-01 00:00:00.000000006,1.8857165074332511,-2.405656983429586,-0.02194703455559411,-1.0140777747913146
1970-01-01 00:00:00.000000006,1.906545686282227,-2.380021344858284,-0.21099851103722433,-1.0092929128194992
1970-01-01 00:00:00.000000006,1.92954452443811,-2.3691418857387463,-0.43923532144413263,-1.001053429329834
1970-01-01 00:00:00.000000006,1.9054955591165246,-2.311200123045947,-0.622745720912438,-0.9935402320441014
1970-01-01 00:00:00.000000006,1.858992091930925,-2.1962598614568694,-0.7878975681467283,-0.9875312608159384
1970-01-01 00:00:00.000000006,1.8008927251705298,-2.0496200096076023,-0.9622924923673067,-0.9816076833043174
1970-01-01 00:00:00.000000006,1.7321132041635428,-1.853994653893544,-1.1545139817157073,-0.9763904443457806
1970-01-01 00:00:00.000000006,1.6604700276480926,-1.600551493661491,-1.3019008621001837,-0.9732501621751534
1970-01-01 00:00:00.000000006,1.5457976472298378,-1.2803305180256412,-1.4162441380481576,-0.9707987774422725
1970-01-01 00:00:00.000000006,1.3960694485991993,-0.9438788307178598,-1.4121972028871146,-0.9638231664532331
1970-01-01 00:00:00.000000006,0.9975998741660582,-0.380627788649513,-1.139310217196873,-0.9786565940879617
1970-01-01 00:00:00.000000006,0.9872277489098048,-0.34683843967746153,-1.112945638286929,-0.9736718507802096
1970-01-01 00:00:00.000000006,0.7793014339481599,-0.15093682852859452,-0.8271487624368509,-0.9774101228643399
1970-01-01 00:00:00.000000006,0.6105851770642559,-0.04406503341195904,-0.5356800503254162,-0.9820105693743384
1970-01-01 00:00:00.000000006,0.5021501522584157,0.012160602616666932,-0.3352329201384275,-0.9858955740318374
1970-01-01 00:00:00.000000006,0.45208425662384,0.0176678213906305,-0.12034227608346657,-0.9919034121566084
1970-01-01 00:00:00.000000006,0.4451206773009524,0.017497642005707616,-0.1113814670398144,-0.9928694871212352
1970-01-01 00:00:00.000000006,0.46098863525523526,0.024124513164326074,-0.06760133359067225,-0.9962167397158936
1970-01-01 00:00:00.000000006,0.48463304310528366,0.039792331649374374,-0.0579264216900566,-0.9990543669896148
1970-01-01 00:00:00.000000006,0.5108012180746421,0.028514245518411932,-0.018166247891226187,-1.0000053648540768
1970-01-01 00:00:00.000000006,0.4805798931365681,-0.018183958667934624,0.06916147261126834,-0.9993667400861381
1970-01-01 00:00:00.000000006,0.4515882606077136,-0.035702201951170055,0.11930493599694784,-0.9991176898701752
1970-01-01 00:00:00.000000006,0.4404412524223668,0.030739063192026857,0.12858635651200814,-1.0002963292029095
1970-01-01 00:00:00.000000006,0.41298378931165425,0.12811104037104093,0.1149808220624174,-0.9964290663732329
1970-01-01 00:00:00.000000006,0.25330454960161614,0.09121016179957267,0.13884697414675626,-0.9903373279008851
1970-01-01 00:00:00.000000006,0.26141076733904434,0.08899845320352164,0.13832260488610662,-0.9882436619645636
1970-01-01 00:00:00.000000006,0.20980752807367992,0.022043766233299268,0.056159049315912334,-0.9819458536045447
1970-01-01 00:00:00.000000006,0.23845161660186723,0.05069934171577768,-0.07751216673625222,-0.9797782787379203
1970-01-01 00:00:00.000000006,0.2623329654896369,0.09103193842579263,-0.154794072861612,-0.9778741939861879
1970-01-01 00:00:00.000000006,0.22678574735835993,0.10464538020661594,-0.1544454161012806,-0.9753425744631651
1970-01-01 00:00:00.000000006,0.18123079461447988,0.1172672587678387,-0.1323582302579553,-0.9735013849042574
1970-01-01 00:00:00.000000006,0.14371776480290596,0.14792680954803716,-0.0828705978404935,-0.9728386149287711
1970-01-01 00:00:00.000000006,0.0847643153226737,0.19745627593350906,-0.03444823453102137,-0.9724415412682134
1970-01-01 00:00:00.000000006,0.03486162457185795,0.24358508068550772,-0.0370392944682784,-0.972890559284183
1970-01-01 00:00:00.000000006,0.04975009416983936,0.4476078482499514,-0.14734577043774594,-0.9773366137299827
1970-01-01 00:00:00.000000006,0.06530514182722454,0.5298075221424791,-0.25331580727156994,-0.9772173113460538
1970-01-01 00:00:00.000000006,0.0648112088880211,0.5365860038370902,-0.26279027165453683,-0.9781400383733609
1970-01-01 00:00:00.000000006,0.08986212086215135,0.6583436050183282,-0.3916925038415586,-0.9822347011753177
1970-01-01 00:00:00.000000006,0.17883943402325791,0.7918092865446367,-0.5097893771806815,-0.9890789384733597
1970-01-01 00:00:00.000000006,0.2541157896178487,0.9464033262185633,-0.646724485505142,-0.9970004430736952
1970-01-01 00:00:00.000000006,0.36441487776451265,1.182289586378657,-0.7805626664360623,-1.0087239594943225
1970-01-01 00:00:00.000000006,0.46100115265230784,1.443834496870271,-0.9600485174034443,-1.0201274724079157
1970-01-01 00:00:00.000000006,0.5818925331159913,1.557794021945873,-1.134195110629724,-1.0281656026921955
1970-01-01 00:00:00.000000006,0.7188086375330519,1.5627385749412868,-1.2170849903260976,-1.0442093210083645
1970-01-01 00:00:00.000000006,1.0633966812608049,1.4697970838695504,-0.39345004577423137,-1.0818364821329602
1970-01-01 00:00:00.000000006,1.0235261488560388,1.4532160756157486,-0.32463285949893783,-1.0839423105023802
1970-01-01 00:00:00.000000006,1.0122458380493338,1.0974498502754404,0.7087757318226885,-1.10419300891154
1970-01-01 00:00:00.000000006,0.8991627450108512,0.5413710380679844,1.825018774958324,-1.1158277738623767
1970-01-01 00:00:00.000000006,0.7577654343071761,-0.07294160395791266,2.724221410534,-1.1156666668906798
1970-01-01 00:00:00.000000006,0.6049953498460081,-0.6124204210929847,3.3773332332982693,-1.1087983083473965
1970-01-01 00:00:00.000000006,0.4656324763072201,-0.9856674355416116,3.6905182185303875,-1.0951453284779262
1970-01-01 00:00:00.000000006,0.30710783149029874,-1.1181545762222014,3.649104429330524,-1.0776797982482793
1970-01-01 00:00:00.000000006,0.17948056408377933,-1.0146476720237239,3.275159823827868,-1.0623507737915263
1970-01-01 00:00:00.000000006,0.19548550537494774,-0.9542051209470057,2.353338261493262,-1.0326636466515784
1970-01-01 00:00:00.000000006,0.2277799188853157,-0.9591556753905041,2.3047081546451333,-1.0298327676461558
1970-01-01 00:00:00.000000006,0.22226747921837192,-1.1772310048844492,1.8895490236375014,-1.007053970082473
1970-01-01 00:00:00.000000006,0.2500143819395775,-1.3985355466610914,1.3906613933959382,-0.9830785147520853
1970-01-01 00:00:00.000000006,0.31303282775969343,-1.511134213282995,0.9804031397348612,-0.9639713865418017
1970-01-01 00:00:00.000000006,0.2837543966558715,-1.5500034476541245,0.6823081437709433,-0.9420641575509264
1970-01-01 00:00:00.000000006,0.08006038405584379,-1.534903554100722,0.4959720613582204,-0.917705548055578
1970-01-01 00:00:00.000000006,-0.1789882639314403,-1.447957433739037,0.40337259222734556,-0.8915505606233587
1970-01-01 00:00:00.000000006,-0.6046048149738215,-1.2796756378935934,0.1753594477398135,-0.8738880698153981
1970-01-01 00:00:00.000000006,-0.5823420696710718,-1.26843593400205,0.1661813521335629,-0.8685784690064412
1970-01-01 00:00:00.000000006,-0.7231219930630683,-1.2443916937708308,0.03523994625731486,-0.8540277069675848
1970-01-01 00:00:00.000000006,-0.8593516122700332,-1.2257928576245638,-0.36035586300028355,-0.835822678932552
1970-01-01 00:00:00.000000006,-0.8392336216075272,-1.2225720955273287,-0.38540488069991496,-0.833741257646307
1970-01-01 00:00:00.000000006,-0.8676509708956993,-1.1822565479902163,-0.6941787422741734,-0.8237941038945318
1970-01-01 00:00:00.000000006,-0.8422425361760153,-1.108477601439216,-1.0175440619334077,-0.81882244873671
1970-01-01 00:00:00.000000006,-0.7467270460835822,-1.0304523852375975,-1.3133246242967886,-0.8182257063655927
1970-01-01 00:00:00.000000006,-0.6392803915578901,-1.011746953517371,-1.4902309476213416,-0.8212817766757351
1970-01-01 00:00:00.000000006,-0.5074399881389652,-1.0066954172427185,-1.6428910189906991,-0.8263623213905162
1970-01-01 00:00:00.000000006,-0.36063149325161437,-1.0130495510505424,-1.7118468041420756,-0.8345211398827412
1970-01-01 00:00:00.000000006,-0.2201434413680938,-0.9858348908168376,-1.7171651225403077,-0.8459008851384592
1970-01-01 00:00:00.000000006,-0.0871771962386948,-0.9607140371063985,-1.7578330405486087,-0.8610242949580362
1970-01-01 00:00:00.000000006,0.20240001092151677,-0.9177926689861646,-1.958675530202412,-0.8661036366587646
1970-01-01 00:00:00.000000006,0.19452010981809748,-0.9153397406277028,-1.9720579900242057,-0.8694256099362696
1970-01-01 00:00:00.000000006,0.2949522004254501,-0.8137313583064831,-2.0542412307957525,-0.8757388619651417
1970-01-01 00:00:00.000000006,0.3423052703503475,-0.6618609139389836,-2.098909221752644,-0.8819776434141258
1970-01-01 00:00:00.000000006,0.3492647302882731,-0.5076910965131778,-2.0674855349927377,-0.8888352886833656
1970-01-01 00:00:00.000000006,0.33430671116137545,-0.3262391706564302,-2.0036407017909177,-0.8970156297763894
1970-01-01 00:00:00.000000006,0.31536149076761577,-0.12799381150515568,-1.8580407136567705,-0.9078140155738905
1970-01-01 00:00:00.000000007,0.27167708107257493,0.06359629112154938,-1.72026853583752,-0.9207727596142957
1970-01-01 00:00:00.000000007,0.320650865338957,0.359976613868283,-1.5743268118749807,-0.9381675519308215
1970-01-01 00:00:00.000000007,0.30071230904340557,0.3746177077669036,-1.5677099603421305,-0.940905718073037
1970-01-01 00:00:00.000000007,0.3466325110748955,0.518048345308155,-1.4904952678925154,-0.9529399865711337
1970-01-01 00:00:00.000000007,0.3995947717381849,0.6835279892108661,-1.3548218990982075,-0.967633545689987
1970-01-01 00:00:00.000000007,0.42862301672696185,0.8764976962730466,-1.1504056748712745,-0.9838754141706971
1970-01-01 00:00:00.000000007,0.42429462498010606,1.077044059099538,-0.8609970734880591,-1.001868387980688
1970-01-01 00:00:00.000000007,0.4090269039483087,1.2511920259736828,-0.5490151827471187,-1.0190709347486715
1970-01-01 00:00:00.000000007,0.3846944623068712,1.4319679169229713,-0.2355855859510737,-1.0362195755003742
1970-01-01 00:00:00.000000007,0.3609539498167514,1.567752898541704,0.0940155296632719,-1.053046436166286
1970-01-01 00:00:00.000000007,0.3506641451306086,1.7177004306891237,0.594344973845469,-1.0756941140032996
1970-01-01 00:00:00.000000007,0.3260408490868053,1.7232150148133345,0.6163550489131144,-1.0776383571740784
1970-01-01 00:00:00.000000007,0.347949932441947,1.745027457352069,0.7331638348897613,-1.0846190416156838
1970-01-01 00:00:00.000000007,0.3738070178020826,1.757855534562666,0.7943976939806036,-1.0917465655792187
1970-01-01 00:00:00.000000007,0.4551816733115871,1.7565673299176607,0.7550692566642464,-1.1030428749455297
1970-01-01 00:00:00.000000007,0.7171874281846198,1.750425186346716,0.6734350490866623,-1.109448244817491
1970-01-01 00:00:00.000000007,0.7077520634513863,1.744264183695544,0.6670285509274803,-1.112708252874855
1970-01-01 00:00:00.000000007,0.8105103862637852,1.6615547048962926,0.6531827574186203,-1.1168276513402746
1970-01-01 00:00:00.000000007,0.9119732147035191,1.5381062604463076,0.6392993113172237,-1.121244921370612
1970-01-01 00:00:00.000000007,1.0621423553736076,1.397590547624098,0.6381748686164721,-1.1265090051962074
1970-01-01 00:00:00.000000007,1.1947661287717126,1.2380034205940162,0.6325870365171947,-1.1283333237373374
1970-01-01 00:00:00.000000007,1.2776586233719462,0.993183693931838,0.6563570028653087,-1.123808850194382
1970-01-01 00:00:00.000000007,1.2904620602090566,0.9218088457494295,0.6829045710298761,-1.1206531013272363
1970-01-01 00:00:00.000000007,1.2450735889286246,0.6652511058924908,0.801662379531095,-1.1142289210512302
1970-01-01 00:00:00.000000007,1.2558061588936054,0.6435353255424295,0.8155439885042519,-1.1099634548613693
1970-01-01 00:00:00.000000007,1.1463596973862928,0.4614843992182328,0.9693070255488774,-1.1035026447405671
1970-01-01 00:00:00.000000007,1.1160773724645894,0.4062693032272178,0.9454715511928174,-1.0948821032565472
1970-01-01 00:00:00.000000007,1.0104037148797,0.3911266264244888,0.566764695164971,-1.0749743046784208
1970-01-01 00:00:00.000000007,0.9632465577089845,0.1357168997337211,0.8387425077611188,-1.07285683356108
1970-01-01 00:00:00.000000007,0.9474196361329001,-0.16450156583840228,1.3915517821608812,-1.0798914336950982
1970-01-01 00:00:00.000000007,0.9076619101415834,-0.5750188484687149,1.9853959394845027,-1.0819715473047222
1970-01-01 00:00:00.000000007,0.8201444637058808,-1.0547954252583869,2.5203505014792102,-1.077128425973881
1970-01-01 00:00:00.000000007,0.7316053758415476,-1.4642811437133487,2.7542440902485623,-1.0603194641957108
1970-01-01 00:00:00.000000007,0.558440255985907,-1.7111063408350506,2.3639290493989127,-1.0318079931433586
1970-01-01 00:00:00.000000007,0.5898495147789384,-1.7162855726476722,2.341144729707438,-1.0291918644896156
1970-01-01 00:00:00.000000007,0.5489408369921011,-1.644146476310915,2.081436297043116,-1.0219147037350664
1970-01-01 00:00:00.000000007,0.577705476867048,-1.6336478568907475,1.8996567213129762,-1.02048370550089
1970-01-01 00:00:00.000000007,0.6921110116791134,-1.6990040122717525,1.4746368258747513,-1.0158036973214573
1970-01-01 00:00:00.000000007,0.9799429325940217,-1.5575774138919183,-0.1525793621400559,-0.9743330616238065
1970-01-01 00:00:00.000000007,1.0240905296565435,-1.5360425382152716,-0.27473597906149044,-0.9716453419265496
1970-01-01 00:00:00.000000007,1.0865264635384102,-1.0873779839287991,-1.9370989385285706,-0.9318980364014219
1970-01-01 00:00:00.000000007,1.1284937728684759,-1.0645177503141492,-2.0182900836618276,-0.9309563633637302
1970-01-01 00:00:00.000000007,1.1642808252112373,-0.8755908738131972,-2.527722919600753,-0.9249133736792576
1970-01-01 00:00:00.000000007,1.277915310861126,-0.7124668736630029,-2.86625977657936,-0.9277357569970791
1970-01-01 00:00:00.000000007,1.4166953558710313,-0.6728664555951742,-2.923142788549223,-0.9358038057491558
1970-01-01 00:00:00.000000007,1.5095855377540428,-0.8104595836751852,-2.6641276705181736,-0.9444991544986201
1970-01-01 00:00:00.000000007,1.5253945833553608,-1.093648591217396,-2.1424106030240178,-0.9497796532961524
1970-01-01 00:00:00.000000007,1.4096859678807676,-1.4688106754959434,-1.4317169074317275,-0.9503097807989451
1970-01-01 00:00:00.000000007,1.1997604951281287,-1.8056305478908323,-0.755336798350361,-0.9499753289930871
1970-01-01 00:00:00.000000007,1.0585607026206727,-2.0358355950420126,-0.2149981255134843,-0.9516455794998612
1970-01-01 00:00:00.000000007,0.9325225094033498,-2.1233266062748424,0.23899132145495883,-0.9558514055344927
1970-01-01 00:00:00.000000007,0.805997533898647,-2.1456494214311075,0.5660971577449945,-0.9580090169838111
1970-01-01 00:00:00.000000007,0.6832920463575269,-2.107479472778833,0.7473602372461212,-0.9586637534421788
1970-01-01 00:00:00.000000007,0.6014614840929602,-2.0403258021217754,0.8285997893758935,-0.9599417844794146
1970-01-01 00:00:00.000000007,0.5676986693327509,-1.983824828308688,0.8723264321034206,-0.9622720713015969
1970-01-01 00:00:00.000000007,0.5661127086549305,-1.9629036517319804,0.7842547878972874,-0.9613632301828772
1970-01-01 00:00:00.000000007,0.6110407585085965,-1.9774323953088389,0.5896942142692821,-0.9573937704901405
1970-01-01 00:00:00.000000007,0.6709308571602373,-1.9909313574675203,0.3243286615124817,-0.9514289089117651
1970-01-01 00:00:00.000000007,0.7369896545615328,-1.9878253494592466,-0.042931446577306305,-0.9412978632725422
1970-01-01 00:00:00.000000007,0.770434733854295,-1.8949833488254346,-0.4481079899930224,-0.9282436703401409
1970-01-01 00:00:00.000000007,0.7046621998402239,-1.4729631442915927,-1.1022223586983733,-0.9175193113753652
1970-01-01 00:00:00.000000007,0.7177256939836388,-1.445338467589026,-1.1322126154045475,-0.915094657336186
1970-01-01 00:00:00.000000007,0.6520946172966647,-1.1740009096615687,-1.3403436862738753,-0.9128618657511431
1970-01-01 00:00:00.000000007,0.5955718410228145,-0.932226096640427,-1.4866069173572014,-0.9117157213117804
1970-01-01 00:00:00.000000007,0.5252208720833973,-0.7058597218331226,-1.5077991045737258,-0.9132186318701256
1970-01-01 00:00:00.000000007,0.43089080631185145,-0.5467521727355578,-1.394734686015103,-0.9159531190633161
1970-01-01 00:00:00.000000007,0.3250447935876039,-0.40795331994140976,-1.2515417957485695,-0.9190199607539272
1970-01-01 00:00:00.000000007,0.2288548210807992,-0.24260292745798315,-1.1715092609717304,-0.9222012830681867
1970-01-01 00:00:00.000000007,0.16070358517266478,-0.08908078666855132,-1.0759633157325719,-0.9271697473315469
1970-01-01 00:00:00.000000007,0.11067570048783915,0.01658712333492031,-0.9503348278798724,-0.9322164589557391
1970-01-01 00:00:00.000000007,0.05923051488905671,0.09087516858761913,-0.7791349851477747,-0.9387325925972052
1970-01-01 00:00:00.000000007,0.0330569701657228,0.15233750442825006,-0.6210146952126272,-0.9482684652713945
1970-01-01 00:00:00.000000007,0.09216935584958665,0.2305181209346842,-0.5299811156336195,-0.9562352997708968
1970-01-01 00:00:00.000000007,0.07601437242105441,0.2341371946090018,-0.5259899930943065,-0.9575991947420196
1970-01-01 00:00:00.000000007,0.11059287647911775,0.27834138918120177,-0.4845934422398011,-0.9617877025907882
1970-01-01 00:00:00.000000007,0.10546971151948184,0.32910314563265247,-0.5100101150311132,-0.9626459428600587
1970-01-01 00:00:00.000000007,0.10331758040279448,0.42267792256416636,-0.4704452839364811,-0.9644183749670346
1970-01-01 00:00:00.000000007,0.010694266202953363,0.6850268738662572,-0.34018644098746936,-0.974824070983471
1970-01-01 00:00:00.000000007,0.0001066065615129945,0.7038649064845635,-0.3337713880654064,-0.9750143069268951
1970-01-01 00:00:00.000000007,-0.02866821675136751,0.935843202519373,-0.30512343547609205,-0.9840446147402891
1970-01-01 00:00:00.000000007,-0.017819118069836166,1.1640893790202915,-0.30437355230728996,-0.9940024735791283
1970-01-01 00:00:00.000000007,-0.0026041007999112603,1.3398601652926236,-0.31767234255661164,-1.0087320376320492
1970-01-01 00:00:00.000000007,0.20896070142960416,1.4819474696141983,-0.30296731098756674,-1.0219501567525462
1970-01-01 00:00:00.000000007,0.19017937522253459,1.4788915928169628,-0.30627497558146694,-1.0277521161604717
1970-01-01 00:00:00.000000007,0.3543016646128551,1.3874710773541978,-0.27711148880163394,-1.0380114386697787
1970-01-01 00:00:00.000000007,0.5264630292725548,1.185940339514585,-0.22262237829445514,-1.0454438841553577
1970-01-01 00:00:00.000000007,0.6909743180805938,1.0182295139575286,-0.09838130073074047,-1.0536620091069728
1970-01-01 00:00:00.000000007,0.7831701013668323,0.8965871609059078,0.15665788213169035,-1.0630997381656837
1970-01-01 00:00:00.000000007,0.8071014360231606,0.7700406727638743,0.4085609605482741,-1.069614079104588
1970-01-01 00:00:00.000000007,0.8259582669283047,0.6365582608777534,0.6165353098307427,-1.0744331404991552
1970-01-01 00:00:00.000000007,0.8543773724957864,0.5260284405688986,0.8468884745152039,-1.081084644739188
1970-01-01 00:00:00.000000007,0.8853599751311351,0.347779252454389,1.031023120051589,-1.0832826494870773
1970-01-01 00:00:00.000000007,0.9035513055997224,0.19844237944937457,1.0751667706274721,-1.0831158876621274
1970-01-01 00:00:00.000000007,0.9827417882427528,0.08695134893592225,1.075266043147361,-1.0840599611331843
1970-01-01 00:00:00.000000008,1.0437697184810926,0.003912979494438237,1.0616853320251838,-1.0818341252599164
1970-01-01 00:00:00.000000008,1.0235541955579217,0.06978719771269164,0.891326021831355,-1.0743733205858208
1970-01-01 00:00:00.000000008,0.9497629162370267,0.24039836950139748,0.6141742681745758,-1.0661885198040826
1970-01-01 00:00:00.000000008,0.9077230492122371,0.31683886214621193,0.5872493022033419,-1.0668466308032494
1970-01-01 00:00:00.000000008,0.91608910361436,0.22530459481924042,0.9026105776885538,-1.0776168255107306
1970-01-01 00:00:00.000000008,0.9703312726566112,-0.04689607875864131,1.4699550186556771,-1.0920889347184004
1970-01-01 00:00:00.000000008,1.0036981824814168,-0.43649926098586317,2.0911743863314354,-1.1037849515694038
1970-01-01 00:00:00.000000008,1.0479576213903237,-0.8860379902117617,2.5942993899409807,-1.1075587800075832
1970-01-01 00:00:00.000000008,1.0498532464820445,-1.2880129871376889,2.903422629669037,-1.1017886210413508
1970-01-01 00:00:00.000000008,0.9916810823827613,-1.5851573121510034,2.853266961477819,-1.0855786377540504
1970-01-01 00:00:00.000000008,0.9786054961205988,-1.6084168508632737,2.0376029203081742,-1.0560170082418774
1970-01-01 00:00:00.000000008,1.0302704495852495,-1.4600526542485204,1.5440568937517587,-1.044835577867773
1970-01-01 00:00:00.000000008,1.0417546422391597,-1.4518110603869,1.513126964449184,-1.0433498407281112
1970-01-01 00:00:00.000000008,1.0352194849877712,-1.3939057856366743,1.155311336937316,-1.030669931230124
1970-01-01 00:00:00.000000008,1.0086175796863335,-1.4090724670586756,0.7048518176029767,-1.0101656177406126
1970-01-01 00:00:00.000000008,0.9657565106070171,-1.3910630018505281,0.1356755614400982,-0.9838139246693831
1970-01-01 00:00:00.000000008,0.869544266200329,-1.303529171178058,-0.44551224699279046,-0.9567109366051971
1970-01-01 00:00:00.000000008,0.7515020218399678,-1.1389306866927973,-0.9992122969811943,-0.9320874304066813
1970-01-01 00:00:00.000000008,0.6158839129772615,-0.9004438487909084,-1.4860642507628896,-0.9124941636386373
1970-01-01 00:00:00.000000008,0.48886500504704844,-0.6173065758298533,-1.818775818784907,-0.8995083330046363
1970-01-01 00:00:00.000000008,0.3193539415642885,-0.2942054796232265,-1.8982546374376867,-0.9016026084946108
1970-01-01 00:00:00.000000008,0.31823202589217536,-0.2827181320963163,-1.8905761501316831,-0.9002388544489082
1970-01-01 00:00:00.000000008,0.2559772215794486,-0.33850797618259126,-1.6466253053230606,-0.9041703508312006
1970-01-01 00:00:00.000000008,0.23321976047647164,-0.7571038751146131,-0.9684137438719211,-0.9124672682744747
1970-01-01 00:00:00.000000008,0.2243777651537302,-0.7836840135427288,-0.9309331408496043,-0.9128332542104074
1970-01-01 00:00:00.000000008,0.22401587623661268,-1.081421257751435,-0.5958378262797932,-0.913087362618898
1970-01-01 00:00:00.000000008,0.19499043171063746,-1.3360300844489401,-0.3280283074077075,-0.9118656752027133
1970-01-01 00:00:00.000000008,0.1775129812856488,-1.4448116764330177,-0.21434712779141515,-0.9107065219174335
1970-01-01 00:00:00.000000008,0.1579484667781499,-1.4082890573206337,-0.19374802103857208,-0.9116142946460442
1970-01-01 00:00:00.000000008,0.14139511485141557,-1.29330066259979,-0.23115723162572493,-0.9171872249014449
1970-01-01 00:00:00.000000008,0.2296799243658746,-1.0813989127833568,-0.36806731276567334,-0.9230108576026365
1970-01-01 00:00:00.000000008,0.22136912954863674,-1.075898011787928,-0.37808824228458066,-0.9255339596068457
1970-01-01 00:00:00.000000008,0.29535087465198173,-1.080647614969439,-0.4531154383967339,-0.9292062612609346
1970-01-01 00:00:00.000000008,0.39664678315430085,-1.1225592492077678,-0.377000251248065,-0.9340067512592173
1970-01-01 00:00:00.000000008,0.3917215465240746,-1.1236500356769394,-0.3710892673377039,-0.9341739447746006
1970-01-01 00:00:00.000000008,0.38935096019998977,-1.1138324551347671,-0.29025070793510843,-0.9365304987201565
1970-01-01 00:00:00.000000008,0.3653294376554786,-1.0357595168963503,-0.30161311084481074,-0.9380827846041842
1970-01-01 00:00:00.000000008,0.3628232972375318,-0.8989771785190412,-0.4006059623271116,-0.9390073630451384
1970-01-01 00:00:00.000000008,0.3524874531678125,-0.7599040566037519,-0.5380276254731468,-0.9383957711005022
1970-01-01 00:00:00.000000008,0.3449334243002438,-0.6573389254916067,-0.665046501157199,-0.9365850323777632
1970-01-01 00:00:00.000000008,0.32960800292960496,-0.5726759634663708,-0.7526569375679446,-0.9338291348958303
1970-01-01 00:00:00.000000008,0.2737829915571701,-0.46068312954382035,-0.8124618546207004,-0.9325726512530448
1970-01-01 00:00:00.000000008,0.24313089637450125,-0.30457228170267114,-0.8726168846768507,-0.9344361964222619
1970-01-01 00:00:00.000000008,0.22902580455064078,-0.1522371383049292,-0.8876626935309225,-0.9366733140246782
1970-01-01 00:00:00.000000008,0.1613708894205015,0.10799309558020731,-0.9304522925474448,-0.9419197341334186
1970-01-01 00:00:00.000000008,0.15491225805702025,0.11995493534738301,-0.9326449888732156,-0.9432552912007723
1970-01-01 00:00:00.000000008,0.1763224188672492,0.20607949099675366,-0.9256730748317065,-0.950683796089762
1970-01-01 00:00:00.000000008,0.26060515717859645,0.21084151768610557,-0.7938778354617155,-0.9585570071016538
1970-01-01 00:00:00.000000008,0.24920904211264777,0.20486236094207413,-0.7908076082206427,-0.9621345212409079
1970-01-01 00:00:00.000000008,0.35042379917664995,0.12199530051972296,-0.7563745137258032,-0.9675219936330239
1970-01-01 00:00:00.000000008,0.43932935547639174,0.026862700904378194,-0.6934523145620919,-0.9731073590367957
1970-01-01 00:00:00.000000008,0.5292817824943863,-0.06778821082525621,-0.6379238141744159,-0.9774625350841898
1970-01-01 00:00:00.000000008,0.5929340499535668,-0.16810312082219983,-0.59144939578304,-0.9793398158722324
1970-01-01 00:00:00.000000008,0.6335657613206583,-0.23338857257738804,-0.5936023931709105,-0.9771050146693309
1970-01-01 00:00:00.000000008,0.5937787072837629,-0.21013985058049112,-0.5125667316447495,-0.979247092012909
1970-01-01 00:00:00.000000008,0.5904587966735286,-0.2081035633767183,-0.5134155315181771,-0.9802826399600626
1970-01-01 00:00:00.000000008,0.6175891916240746,-0.15241010714825642,-0.5934063659033926,-0.9821379334661308
1970-01-01 00:00:00.000000008,0.664389170849198,-0.10294537367071876,-0.7045323919179324,-0.9834176076699801
1970-01-01 00:00:00.000000008,0.7127529752239905,-0.04086820914658703,-0.8427214430662208,-0.983890700808773
1970-01-01 00:00:00.000000008,0.7496562243832772,0.09443257329854914,-0.9540177242843421,-0.9867024675812013
1970-01-01 00:00:00.000000008,0.7602969380161028,0.2542132320398014,-1.0020915687786283,-0.9934103800512744
1970-01-01 00:00:00.000000008,0.8099027845390445,0.3482356975411398,-1.0235436269735718,-1.0064667880381575
1970-01-01 00:00:00.000000008,1.0453913136903854,0.07166998232981954,-0.9600669787489696,-1.007673516220134
1970-01-01 00:00:00.000000008,1.0423769759304202,0.028551602345511816,-0.9565670222670888,-1.0090203729239402
1970-01-01 00:00:00.000000008,1.14353664167307,-0.8018988942430125,-0.8683647977044574,-0.9869987279682706
1970-01-01 00:00:00.000000008,1.176431911657951,-1.0171156134915613,-0.82657638233798,-0.9772391488040821
1970-01-01 00:00:00.000000008,1.0709953081116133,-1.4837265948931968,-0.39770145028505877,-0.9719622146060025
1970-01-01 00:00:00.000000008,1.0810161737463784,-1.49488122655101,-0.36274155328485636,-0.967119423484236
1970-01-01 00:00:00.000000008,0.9197004638405255,-1.4520920877172756,0.02965394586075043,-0.9642877852015587
1970-01-01 00:00:00.000000008,0.5485394329376574,-1.1300911720953437,0.7449120612451993,-0.9871368072377451
1970-01-01 00:00:00.000000008,0.5287766919886774,-1.105369352018577,0.787971914598071,-0.983405803379124
1970-01-01 00:00:00.000000008,0.3476090422555783,-0.8892988389616141,1.105912126347343,-0.9892373905539826
1970-01-01 00:00:00.000000008,0.1592065110785935,-0.6715078497790877,1.30584694694611,-0.9918122914124888
1970-01-01 00:00:00.000000008,-0.01608754396387977,-0.20576733220451116,1.437601214066875,-1.0040487047139668
1970-01-01 00:00:00.000000008,-0.09515480695676937,-0.19266729351495726,1.4509286590872652,-1.000959909636868
1970-01-01 00:00:00.000000008,-0.14981930128718476,-0.23392224500785236,1.7497999289807689,-1.009541507789985
1970-01-01 00:00:00.000000008,-0.1233616904076136,-0.8900781372089044,2.776824607881631,-1.0235056162045904
1970-01-01 00:00:00.000000008,-0.1389920883583198,-0.9473003839303497,2.8253515595254983,-1.0242230540317392
1970-01-01 00:00:00.000000008,-0.09092089994931461,-1.8131170956547487,3.131582632562584,-1.0066017093965725
1970-01-01 00:00:00.000000008,-0.07183556208486024,-1.8577538332707682,3.1264868851413703,-1.0049157341986203
1970-01-01 00:00:00.000000008,-0.0452000689427048,-2.19945471601157,2.680344952898833,-0.9793414273217608
1970-01-01 00:00:00.000000008,0.026871296300400964,-2.2943034621184273,1.9760468800503217,-0.9540827665657167
1970-01-01 00:00:00.000000008,0.09046560790021695,-2.15174120561916,1.2679183640266565,-0.9358957143857977
1970-01-01 00:00:00.000000008,0.12261519500588473,-1.9093468426710345,0.651111195597205,-0.9217392749229956
1970-01-01 00:00:00.000000008,0.09861760491606275,-1.6093656685736897,0.10334179502299244,-0.9098068306099647
1970-01-01 00:00:00.000000008,0.06051509841793486,-1.300224209645266,-0.36758073080308534,-0.8997431523726841
1970-01-01 00:00:00.000000008,0.0008535347814472571,-1.0028674514701237,-0.7842009863279423,-0.889437743074139
1970-01-01 00:00:00.000000008,-0.08950626382376269,-0.7923558899626121,-1.071004809965886,-0.8802348205435873
1970-01-01 00:00:00.000000008,-0.16408271019554455,-0.6379260720117231,-1.380113377242318,-0.8740869060940517
1970-01-01 00:00:00.000000008,-0.09453868507625841,-0.33239580497387267,-1.8428041261966024,-0.870859394615725
1970-01-01 00:00:00.000000008,-0.09518711161113037,-0.3225457847564232,-1.861383152539529,-0.874901871004106
1970-01-01 00:00:00.000000008,0.019480832663041153,-0.26087747069772316,-1.799078079618841,-0.886028209743326
1970-01-01 00:00:00.000000008,0.07401919806906282,-0.323629653409929,-1.5662087264970164,-0.9003435213935141
1970-01-01 00:00:00.000000008,0.21816648083263268,-0.7251193937691935,-0.7365537581993573,-0.9212430902803401
1970-01-01 00:00:00.000000008,0.20858396299920098,-0.9607597767754076,-0.27690854330268955,-0.9293857145927183
1970-01-01 00:00:00.000000008,0.20003679510866512,-0.9738278557297536,-0.24841018753622168,-0.9306044802860024
1970-01-01 00:00:00.000000008,0.21031912728967064,-1.0750789290815934,0.07734687867105633,-0.9394218542829857
1970-01-01 00:00:00.000000009,0.21134319631574486,-1.068794810561398,0.3212843305666277,-0.9492771664427169
1970-01-01 00:00:00.000000009,0.2173561233162309,-1.0504692828816289,0.5792417198223796,-0.9591499664758674
1970-01-01 00:00:00.000000009,0.19720665011865157,-1.059690583342829,0.5774273485373794,-0.9635866845059444
1970-01-01 00:00:00.000000009,0.3342917723266837,-0.9755279642408015,0.59694519382081,-0.9720420120506795
1970-01-01 00:00:00.000000009,0.32339019884296616,-0.9725072624598289,0.5971500733234756,-0.9744904521634231
1970-01-01 00:00:00.000000009,0.384645282683686,-0.9239802819477018,0.6342946261399155,-0.9810123561348654
1970-01-01 00:00:00.000000009,0.41173282193993294,-0.949280257447148,0.8044849251352124,-0.9871630707969715
1970-01-01 00:00:00.000000009,0.4012249399896839,-1.0255873103045903,1.0177977113315224,-0.9913911965626588
1970-01-01 00:00:00.000000009,0.38633299698323637,-1.203199979339594,1.214430422253084,-0.9920220949576216
1970-01-01 00:00:00.000000009,0.39775658904279715,-1.407514197882547,1.325121623483644,-0.989907433311225
1970-01-01 00:00:00.000000009,0.4273307586155039,-1.5468960235410063,1.3166407517534746,-0.9826912644972807
1970-01-01 00:00:00.000000009,0.3495594723335402,-1.5447347430603986,1.2881223685244039,-0.9788130134511248
1970-01-01 00:00:00.000000009,0.35793541265085094,-1.5388725420924854,1.1847326954026947,-0.9731906016858203
1970-01-01 00:00:00.000000009,0.2989402224562221,-1.4252787067052555,1.029205594079814,-0.9677880453345622
1970-01-01 00:00:00.000000009,0.2618701873667732,-1.2467032870864188,0.8007675966152826,-0.960137370484357
1970-01-01 00:00:00.000000009,0.1504989375563887,-0.9794139806603908,0.3478155785004867,-0.9496248937753954
1970-01-01 00:00:00.000000009,0.16195485550155705,-0.9662436936214805,0.321483520020498,-0.9485042643286681
1970-01-01 00:00:00.000000009,0.15120769776652804,-0.8892676317811389,0.05213757739138404,-0.9400921277602128
1970-01-01 00:00:00.000000009,0.12592392488184168,-0.794072923970842,-0.1638594899547231,-0.9340737446986658
1970-01-01 00:00:00.000000009,0.11807467119797013,-0.6987088779760529,-0.3743513687133192,-0.9279065416481768
1970-01-01 00:00:00.000000009,0.0790328997347704,-0.6249259987873838,-0.49748668270970436,-0.9232620972069069
1970-01-01 00:00:00.000000009,0.04467860300477637,-0.5962563652477718,-0.4797523404131552,-0.9221333589027481
1970-01-01 00:00:00.000000009,0.008461662403988823,-0.6689976620573908,-0.4008283076003923,-0.9193403923221901
1970-01-01 00:00:00.000000009,-0.035835061368814536,-0.7332202712465274,-0.35915172574220866,-0.916596994741158
1970-01-01 00:00:00.000000009,-0.04277965173605652,-0.7155333664336244,-0.3838519922739963,-0.9163621705238455
1970-01-01 00:00:00.000000009,-0.03439782079620045,-0.6791056242250577,-0.3477770674194385,-0.918106611166392
1970-01-01 00:00:00.000000009,-0.0677423547241741,-0.6674479659741981,-0.3032583063821126,-0.9196458093000179
1970-01-01 00:00:00.000000009,-0.0512172171838708,-0.6013011106426467,-0.3495088584619397,-0.9216418934984437
1970-01-01 00:00:00.000000009,-0.03658883705185831,-0.5279399382159895,-0.34373878892902265,-0.9249432319967327
1970-01-01 00:00:00.000000009,-0.041810360671110144,-0.5280983780538366,-0.3064595994863843,-0.9268465272780771
1970-01-01 00:00:00.000000009,-0.02650496086814115,-0.560436095595167,-0.2603902235609132,-0.9296328308689095
1970-01-01 00:00:00.000000009,0.01930795895420924,-0.6113323549545738,-0.23173258859718754,-0.9308960581213779
1970-01-01 00:00:00.000000009,0.029610220802614592,-0.6705803100946557,-0.2214324904794732,-0.9296035603246094
1970-01-01 00:00:00.000000009,0.026793441947097638,-0.5095487157501777,-0.2621573524976045,-0.9336127687920848
1970-01-01 00:00:00.000000009,0.02390204456435642,-0.4918583656885638,-0.2614393774842586,-0.9325645475900812
1970-01-01 00:00:00.000000009,-0.030967517381927614,-0.21355492142153104,-0.2396336031578583,-0.938557779720578
1970-01-01 00:00:00.000000009,-0.11017048018941128,-0.05700881456404049,-0.2415522096491839,-0.9413798067367904
1970-01-01 00:00:00.000000009,-0.11274238225397262,-0.038536765200962636,-0.24512975076350002,-0.9415506955661629
1970-01-01 00:00:00.000000009,-0.13062715647267054,0.2979294038807858,-0.3455378112225812,-0.9490757238068673
1970-01-01 00:00:00.000000009,-0.13842305030459917,0.3168963320562472,-0.35012549017210726,-0.9492281851451638
1970-01-01 00:00:00.000000009,-0.15280901089341045,0.4845821571788502,-0.38153982788335133,-0.9537746795715927
1970-01-01 00:00:00.000000009,-0.15254396203618392,0.6107365885670485,-0.35753518588405997,-0.9587734864935021
1970-01-01 00:00:00.000000009,-0.17219958004297936,0.724990108241786,-0.3022258168759504,-0.9634250816426494
1970-01-01 00:00:00.000000009,-0.20183450271602246,0.7993014609253445,-0.217256742802414,-0.9683985908938452
1970-01-01 00:00:00.000000009,-0.20125418357667335,0.8167067776788985,-0.10314879785283557,-0.9727794315547725
1970-01-01 00:00:00.000000009,-0.21872721621414384,0.8225786848853887,0.0030363492563322027,-0.9758489126045374
1970-01-01 00:00:00.000000009,-0.2336556484499082,0.7903009710997215,0.08251348464693513,-0.9777579518946011
1970-01-01 00:00:00.000000009,-0.21739290102756298,0.7095554891816644,0.1688356905854979,-0.9796078341751084
1970-01-01 00:00:00.000000009,-0.19057587324998898,0.6085118081197292,0.21686473247601315,-0.9808389995188239
1970-01-01 00:00:00.000000009,-0.13037940789169714,0.49384558998625405,0.2100943462020968,-0.9794628928979006
1970-01-01 00:00:00.000000009,-0.1081946980415596,0.46122205886632844,0.19158555233779434,-0.9787561713672996
1970-01-01 00:00:00.000000009,-0.09689222811344708,0.42811451308642334,0.18168008060016888,-0.9779892203373824
1970-01-01 00:00:00.000000009,-0.08157195608138147,0.301210983621469,0.167117813021144,-0.9736115885876484
1970-01-01 00:00:00.000000009,-0.07718753909341781,0.2905397575733989,0.16645858385087448,-0.9735659586489618
1970-01-01 00:00:00.000000009,-0.06251407922659344,0.13709323531560946,0.17099471540777633,-0.968938530479017
1970-01-01 00:00:00.000000009,-0.0575141248082308,0.1300988121576156,0.16951994836863904,-0.9686531480749395
1970-01-01 00:00:00.000000009,-0.054719583646836475,0.09430659693626225,0.12477579454173295,-0.9659645635481021
1970-01-01 00:00:00.000000009,-0.04914055710837852,0.06543699229614652,0.09868419143282384,-0.9631323805491331
1970-01-01 00:00:00.000000009,-0.07259200553666723,0.0017484355944804714,0.11895361467931015,-0.9593534707436941
1970-01-01 00:00:00.000000009,-0.10321267611152973,-0.03268533336327861,0.09860730279044101,-0.9538674316487146
1970-01-01 00:00:00.000000009,-0.16406885676056965,-0.03947943149664206,0.1382165655689596,-0.9502941788652366
1970-01-01 00:00:00.000000009,-0.2274256843386266,-0.026310902938167152,0.14018838167935654,-0.9471269836047794
1970-01-01 00:00:00.000000009,-0.26063111644000214,0.007778746523882954,0.0755634341314387,-0.9434406841060278
1970-01-01 00:00:00.000000009,-0.2921861634670191,0.07342127572527671,-0.012891443488235711,-0.9386872706157101
1970-01-01 00:00:00.000000009,-0.36208652812107084,0.19216556809181445,-0.20606253828058524,-0.9335457524849147
1970-01-01 00:00:00.000000009,-0.35587741621168123,0.19964239574723264,-0.2162037570940334,-0.9324547134834485
1970-01-01 00:00:00.000000009,-0.3827644366595653,0.26052118938194496,-0.31909683095981256,-0.9303894392696977
1970-01-01 00:00:00.000000009,-0.37150163830221594,0.3411985617559519,-0.39264183463026464,-0.9312913026077226
1970-01-01 00:00:00.000000009,-0.3649916728510151,0.4826120913934715,-0.5014605906925986,-0.9337036177740883
1970-01-01 00:00:00.000000009,-0.33843650216511023,0.5333476137784883,-0.5527744061592356,-0.9346866693819971
1970-01-01 00:00:00.000000009,-0.3405571898550066,0.5346663268428294,-0.5565555293896386,-0.935943609322696
1970-01-01 00:00:00.000000009,-0.3045730981174657,0.5496801111359366,-0.5771879872029857,-0.9387538821727629
1970-01-01 00:00:00.000000009,-0.2618745908640856,0.5239872266060919,-0.5602295723123202,-0.9431206565632633
1970-01-01 00:00:00.000000009,-0.1791881880429249,0.4275492260520599,-0.4694362464061598,-0.945929626211839
1970-01-01 00:00:00.000000009,-0.18286468314153503,0.41997235904911034,-0.4644185984043981,-0.9468487689067984
1970-01-01 00:00:00.000000009,-0.15435371230760045,0.3331910645626859,-0.39837931422382383,-0.9475005379829391
1970-01-01 00:00:00.000000009,-0.1456012886470541,0.2635425955446472,-0.3544666742375704,-0.9483095452312864
1970-01-01 00:00:00.000000009,-0.11248908265367026,0.23513501991785082,-0.21954488541550107,-0.9541811784867251
1970-01-01 00:00:00.000000009,-0.08936881179524586,0.19465400380401468,-0.21369417041425517,-0.9550312123435919
1970-01-01 00:00:00.000000009,-0.06189057593646313,0.14519231610499456,-0.17552848245492178,-0.9569923214757973
1970-01-01 00:00:00.000000009,-0.02818577114066717,0.14813369612795693,-0.10297969077149487,-0.9611663024057926
1970-01-01 00:00:00.000000009,-0.023752818390491953,0.13646659276937562,-0.07287405495592628,-0.9624487300610933
1970-01-01 00:00:00.000000009,-0.015619643019053393,0.09823565498800746,-0.05284844669569408,-0.9631780629009089
1970-01-01 00:00:00.000000009,0.012130226761200229,0.09461582104038906,-0.02531427669424876,-0.9646392391298881
1970-01-01 00:00:00.000000009,0.0012320698589770862,0.07441611493890932,-0.012612422212600838,-0.9640567917696481
1970-01-01 00:00:00.000000009,0.0021946808735153547,0.01579293399930378,0.03595252864318766,-0.9637204869614568
1970-01-01 00:00:00.000000009,0.0037396699184315124,-0.054047570484731876,0.07729002205165134,-0.9624370297167137
1970-01-01 00:00:00.000000009,-0.00199616620238742,-0.1625284115208166,0.11342699231765357,-0.9595303898235713
1970-01-01 00:00:00.000000009,-0.002016795277412095,-0.17186431108386074,0.12259400001846252,-0.9575282660262482
1970-01-01 00:00:00.000000009,-0.053119975189092866,-0.16474333530155943,0.13467566062270678,-0.9556681404432685
1970-01-01 00:00:00.000000009,-0.07120948240328537,-0.13627101477274162,0.15358356408012616,-0.955576798656507
1970-01-01 00:00:00.000000009,-0.10022393545097089,-0.12427173076584244,0.15238290233731494,-0.954603090485806
1970-01-01 00:00:00.000000009,-0.10798809215699541,-0.10376966242728741,0.0760508525050861,-0.9534105909825503
1970-01-01 00:00:00.000000009,-0.07647625649105724,-0.09310290432369639,-0.01460363425278148,-0.9530766155958437
1970-01-01 00:00:00.000000009,-0.035240427507362254,-0.08250859248325595,-0.14284881550093878,-0.9521578682759776
1970-01-01 00:00:00.000000009,0.016266229622369253,-0.08111856686939284,-0.28880385841774614,-0.9516753020007331
1970-01-01 00:00:00.000000009,0.0951652312514392,-0.06785897940442832,-0.3650216281922434,-0.9532415521578732
1970-01-01 00:00:00.000000010,0.12199241363120564,-0.04503839192206134,-0.3607446176447207,-0.9548111211337278
1970-01-01 00:00:00.000000010,0.10775589116106371,-0.029023428399457422,-0.25592887412345716,-0.957504544361018
1970-01-01 00:00:00.000000010,0.07164950260452133,-0.05164562798161246,-0.11238643680696841,-0.960863029732106
1970-01-01 00:00:00.000000010,0.07505947992149153,-0.0935946390987726,-0.006691031659363064,-0.9639833704005262
1970-01-01 00:00:00.000000010,0.09090867519455373,-0.12371051372784822,0.03342769596156273,-0.9649888571247037
1970-01-01 00:00:00.000000010,0.08994700587518838,-0.12100522537436387,0.03482282880031966,-0.9651317657877116
1970-01-01 00:00:00.000000010,0.08710800342811445,-0.017689724438418063,0.03252952858862002,-0.9678279722019582
1970-01-01 00:00:00.000000010,0.06243923197923061,0.08994173289266277,0.04003351044801617,-0.9696644163095659
1970-01-01 00:00:00.000000010,0.019710074153325652,0.1885766457039675,0.04083538667148549,-0.9706511349926432
1970-01-01 00:00:00.000000010,-0.013682958532939323,0.26641571411768156,0.07730994268529398,-0.9731282154886055
1970-01-01 00:00:00.000000010,-0.02962853246112257,0.33193358579373966,0.1238190161517501,-0.9765247328794034
1970-01-01 00:00:00.000000010,-0.03617197539719201,0.3592184635210654,0.17923085461973282,-0.979612211047516
1970-01-01 00:00:00.000000010,-0.0317931079740552,0.3578369529970572,0.20628608230307255,-0.982132941681489
1970-01-01 00:00:00.000000010,0.0037586899847619985,0.35633494302882646,0.19444904319257333,-0.9840215387233414
1970-01-01 00:00:00.000000010,0.03155593726879152,0.3652835835328704,0.14591515864802446,-0.9843715290971132
1970-01-01 00:00:00.000000010,0.05064134317602991,0.36534630588727446,0.10428473383268529,-0.9849852533701124
1970-01-01 00:00:00.000000010,0.08965479754477666,0.37400860249419526,0.04471458190513633,-0.9852883848252613
1970-01-01 00:00:00.000000010,0.11059853719108598,0.36657409576592925,-0.013302888084066761,-0.9841130026020062
1970-01-01 00:00:00.000000010,0.12159169364197744,0.37484041909881377,-0.05254412426201948,-0.9844142495159822
1970-01-01 00:00:00.000000010,0.149385484074856,0.36297644293969256,-0.046529243952813104,-0.9862125112918652
1970-01-01 00:00:00.000000010,0.17688350332108757,0.33202721536383445,-0.04724178737297556,-0.9868198802734189
1970-01-01 00:00:00.000000010,0.19655969084332864,0.2731671137656888,-0.05759027323566772,-0.986515514208589
1970-01-01 00:00:00.000000010,0.23897796987017128,0.20808384334470392,-0.09309660295511805,-0.9845000163235456
1970-01-01 00:00:00.000000010,0.24148657227458437,0.20604842275211327,-0.09506624034172392,-0.9840331603163455
1970-01-01 00:00:00.000000010,0.23344833255596925,0.20710749788695104,-0.12180795934682495,-0.9825113852931866
1970-01-01 00:00:00.000000010,0.22567127337327086,0.19776177937175093,-0.1318409028463721,-0.9818664834235158
1970-01-01 00:00:00.000000010,0.2365847400169253,0.17877095164239148,-0.14158601101316565,-0.9815732606496762
1970-01-01 00:00:00.000000010,0.2468746730883464,0.16812500805762706,-0.1519103014242773,-0.9815404610329239
1970-01-01 00:00:00.000000010,0.2575131610177449,0.14966634562006031,-0.17093004773580117,-0.9809571075327507
1970-01-01 00:00:00.000000010,0.2678165434806203,0.1459752185338771,-0.1900920925924768,-0.9811925475014698
1970-01-01 00:00:00.000000010,0.28897039621406057,0.07314207292925572,-0.18007893412645748,-0.9797641568723147
1970-01-01 00:00:00.000000010,0.29199319836934107,0.07312332706991836,-0.17777655230799164,-0.9781771115371379
1970-01-01 00:00:00.000000010,0.24674460265846013,0.10709522221115024,-0.16398051393672652,-0.975110390377811
1970-01-01 00:00:00.000000010,0.16072854873085335,0.19392514191704832,-0.12421985469770111,-0.9743259593778373
1970-01-01 00:00:00.000000010,0.10020093587037737,0.2351924219918996,-0.08364675045846384,-0.9753817003810491
1970-01-01 00:00:00.000000010,0.11230288377506531,0.04493804266205838,0.004425383117009976,-0.9723121601126546
1970-01-01 00:00:00.000000010,0.11440596538407112,0.03189484470922829,0.006892209443292385,-0.9732865078350692
1970-01-01 00:00:00.000000010,0.15618423887115213,-0.09768648494019802,0.01775502242456628,-0.9703328008615416
1970-01-01 00:00:00.000000010,0.15338330215455187,-0.16012666044605553,-0.018203326331474534,-0.9663958377780311
1970-01-01 00:00:00.000000010,0.14745669088869198,-0.06961917861563648,-0.10313066488670164,-0.9662406506576202
1970-01-01 00:00:00.000000010,0.1490023625662989,-0.06212260288110527,-0.10885606631442549,-0.9646331706826725
1970-01-01 00:00:00.000000010,0.10408185385941687,0.009781277373320157,-0.21851074905527607,-0.9613825812270185
1970-01-01 00:00:00.000000010,0.09651147601665297,0.10669836892782783,-0.2604528812109277,-0.9622152454797273
1970-01-01 00:00:00.000000010,0.07619010436276638,0.17780650629463546,-0.25698522102316673,-0.9616972241090176
1970-01-01 00:00:00.000000010,0.0032014027890441762,0.2325928693415651,-0.1396325181003189,-0.9650942371494818
1970-01-01 00:00:00.000000010,0.00038184507884249375,0.23365032788727608,-0.1316434057257826,-0.9643978169673317
1970-01-01 00:00:00.000000010,-0.028986439203691358,0.18497049468419366,-0.05573492542649274,-0.9646423098991631
1970-01-01 00:00:00.000000010,-0.019950351131863088,0.12620949760894123,-0.007543111766531489,-0.9652880812870929
1970-01-01 00:00:00.000000010,-0.00032564414984531664,0.10578825003082766,-0.014826782996247796,-0.9650335755787246
1970-01-01 00:00:00.000000010,-0.0005634528334796801,0.10511204769592464,-0.01774123465962844,-0.9655796648659342
1970-01-01 00:00:00.000000010,0.01781983102759297,0.12128456412361596,-0.07513902644923992,-0.9665698494370104
1970-01-01 00:00:00.000000010,0.06806117868075853,0.08502788158743613,-0.09555578152412253,-0.9663495719876259
1970-01-01 00:00:00.000000010,0.06683012827890858,0.08248207377251751,-0.0968532396667108,-0.9668547591935411
1970-01-01 00:00:00.000000010,0.08562875480078302,0.06322106826247624,-0.09824873148513046,-0.9674959682460293
1970-01-01 00:00:00.000000010,0.10494304865637699,0.06253494130280135,-0.11781433844333372,-0.9674882114607696
1970-01-01 00:00:00.000000010,0.1062001715470432,0.06359795851529067,-0.14436279488276385,-0.9663101295926306
1970-01-01 00:00:00.000000010,0.09749489413486562,0.061230038331860526,-0.12336102366947928,-0.9662651878184496
1970-01-01 00:00:00.000000010,0.08690882592776433,-0.004379376648486102,-0.030377297286604932,-0.9668423945989353
1970-01-01 00:00:00.000000010,0.0859620475055777,-0.00820140294165354,-0.0255541981695381,-0.9672076614534807
1970-01-01 00:00:00.000000010,0.09467822252036188,-0.037381495314877125,0.020090954170353666,-0.9680874571837629
1970-01-01 00:00:00.000000010,0.09406720533761109,-0.047731541030323454,0.021377390298794107,-0.9677862529784208
1970-01-01 00:00:00.000000010,0.09502563540237663,-0.056417675473818193,0.0020510209271263243,-0.9671889362035523
1970-01-01 00:00:00.000000010,0.10593663325843768,-0.04613901885219908,-0.0365931473558146,-0.9669083466069106
1970-01-01 00:00:00.000000010,0.11588137018498038,-0.017158342907063064,-0.0678885089056199,-0.9671589315545359
1970-01-01 00:00:00.000000010,0.11711266792924657,0.013652015108497319,-0.11560833834891526,-0.9655945506185502
1970-01-01 00:00:00.000000010,0.09183325295157099,0.02715779785833851,-0.16214157949324226,-0.9624988881244738
1970-01-01 00:00:00.000000010,0.06842304599669732,0.03238215625551222,-0.19944067877974314,-0.9591017995533611
1970-01-01 00:00:00.000000010,0.03438749697459135,0.07381064193418749,-0.24610652666610716,-0.9565994789225706
1970-01-01 00:00:00.000000010,0.008170221421434698,0.1241675307090866,-0.2817731864636168,-0.9554217766145153
1970-01-01 00:00:00.000000010,-0.013060679329773152,0.16079479693378862,-0.2296873981289067,-0.9577063799467109
1970-01-01 00:00:00.000000010,-0.01590546600666081,0.16172686002493442,-0.22535168949512624,-0.9582156084249355
1970-01-01 00:00:00.000000010,-0.00905231945339862,0.15903220038425497,-0.15160644159466724,-0.960913270881731
1970-01-01 00:00:00.000000010,-0.014353958764266893,0.1552487600401247,-0.09491602387070448,-0.9633364956916122
1970-01-01 00:00:00.000000010,0.003100477702927616,0.11842708011559219,-0.07538344349787182,-0.9634293533753227
1970-01-01 00:00:00.000000010,0.004030537065038642,0.12902770109123968,-0.10369165256146384,-0.9625107474317365
1970-01-01 00:00:00.000000010,-0.004364562799383007,0.17781212471157953,-0.16179990029795227,-0.9618695519178665
1970-01-01 00:00:00.000000010,-0.0031553150754924653,0.2185224607422936,-0.21828286086236368,-0.961344359729763
1970-01-01 00:00:00.000000010,-0.00347984280823508,0.25455439759680076,-0.19957726071942322,-0.9621680785192895
1970-01-01 00:00:00.000000010,-0.03459322761039813,0.2091822623107884,-0.11556719062260382,-0.9624577723515936
1970-01-01 00:00:00.000000010,-0.03646936940565475,0.20346138711499856,-0.11064218377034354,-0.9640970726532075
1970-01-01 00:00:00.000000010,0.00938677153503343,0.135914722614979,-0.020132238355854336,-0.9665236564641903
1970-01-01 00:00:00.000000010,0.005045579473375056,0.1299273022927779,-0.019237073034384516,-0.9683504730765891
1970-01-01 00:00:00.000000010,0.06278399870710386,0.08229177365232898,-0.039099399210245314,-0.968769782241431
1970-01-01 00:00:00.000000010,0.083024107052371,0.062181284280238905,-0.06621600768209704,-0.9682029494819143
1970-01-01 00:00:00.000000010,0.09338019156202026,0.050769527644745016,-0.04456618247575105,-0.9685432280396339
1970-01-01 00:00:00.000000010,0.08028827652747023,0.019924547346745338,0.07425766605567835,-0.9711356223693476
1970-01-01 00:00:00.000000010,0.07812963403384944,0.018657752311789164,0.0809876675734766,-0.9706540743383506
1970-01-01 00:00:00.000000010,0.058173667978608457,-0.0008705873690665229,0.1277040059875631,-0.9712297372067428
1970-01-01 00:00:00.000000010,0.06658630358504612,-0.011799958301177246,0.14738414706614286,-0.972185177268291
1970-01-01 00:00:00.000000010,0.07499344231672438,-0.012749529364281594,0.15664672219673859,-0.9727912916386732
1970-01-01 00:00:00.000000010,0.07408584117294195,-0.012252149850991843,0.15226253692924524,-0.9729945122924415
1970-01-01 00:00:00.000000010,0.08656707003425239,0.009610269380508789,0.032110560885881614,-0.970391754264244
1970-01-01 00:00:00.000000010,0.10025831711429543,0.029883886275418627,-0.027122929859748127,-0.9694283896914511
1970-01-01 00:00:00.000000010,0.10179672515341308,0.032642269047731355,-0.02904205810714547,-0.9687871584130048
1970-01-01 00:00:00.000000010,0.08308448449175537,0.07115164018606757,-0.03731837686042582,-0.9681306252869201
1970-01-01 00:00:00.000000010,0.05440650300291249,0.09164564150947994,-0.025360491590965248,-0.9675460988004466
1970-01-01 00:00:00.000000010,0.033498245272832405,0.08992447996369055,0.039228903298178464,-0.968970242931338
1970-01-01 00:00:00.000000010,0.03221868318200744,0.062215386295520654,0.06044094942715536,-0.9687503915603098
1970-01-01 00:00:00.000000010,0.032508224320079826,0.05852380167982451,0.06130958289947214,-0.9686574775325753
1970-01-01 00:00:00.000000011,0.034977408966753595,-0.013411200606702596,0.06357932919214343,-0.9663399614856608
1970-01-01 00:00:00.000000011,0.03809765943109538,-0.013722982563178353,0.06223554078603298,-0.965618247082646
1970-01-01 00:00:00.000000011,0.019663308153702444,0.03354595012590456,0.007435550755756928,-0.9646974310207702
1970-01-01 00:00:00.000000011,0.021814639417844756,0.03722565339502012,0.006286347051843333,-0.96345037304571
1970-01-01 00:00:00.000000011,-0.015004269697535384,0.05841868866109961,-0.00083218323451998,-0.961590644091918
1970-01-01 00:00:00.000000011,-0.04275684632020535,0.0783136857716096,0.009479450933045412,-0.9612622721191524
1970-01-01 00:00:00.000000011,-0.05308760557705235,0.0867372398605886,0.037463771114997324,-0.9618042904369469
1970-01-01 00:00:00.000000011,-0.062805388223525,0.060095517202336426,0.04854609590994782,-0.9609498429403487
1970-01-01 00:00:00.000000011,-0.061255403098313406,0.05947270345259903,0.04691179730368927,-0.9602104901023664
1970-01-01 00:00:00.000000011,-0.07716450894788156,0.053421574625559375,-0.02417347010260181,-0.9569792912158102
1970-01-01 00:00:00.000000011,-0.0737456792699441,0.05426843652679769,-0.02823686498461906,-0.9568717476351993
1970-01-01 00:00:00.000000011,-0.07313078797773323,0.08410956825728769,-0.06593852782280066,-0.9562745382752649
1970-01-01 00:00:00.000000011,-0.08277937139742472,0.12267624920400878,-0.09611704344694183,-0.9565544430128929
1970-01-01 00:00:00.000000011,-0.07372744919516583,0.1416471024025355,-0.115723703093048,-0.9571974809212599
1970-01-01 00:00:00.000000011,-0.06531018146549393,0.1314838033920192,-0.09873465233778819,-0.9580892541335448
1970-01-01 00:00:00.000000011,-0.05628346654540254,0.1114818380917782,-0.097045661117446,-0.9581461317746653
1970-01-01 00:00:00.000000011,-0.04598616392898332,0.08254623981125561,-0.06747778310796562,-0.9578358890571357
1970-01-01 00:00:00.000000011,-0.0656127202178525,0.0629003203114528,-0.02922079929830424,-0.9577891892686718
1970-01-01 00:00:00.000000011,-0.06559328957957813,0.060446730545025334,-0.026799475999206623,-0.9577878992499604
1970-01-01 00:00:00.000000011,-0.0651181481738534,0.014309321946663966,0.0007828648621523993,-0.9573361729378294
1970-01-01 00:00:00.000000011,-0.05983207889319651,0.008710748818815457,-0.019257385918750904,-0.9574829832674848
