time,ax,ay,az,speed
1970-01-01 00:00:00.000000000,0.42,1.1285164489511694,-0.968111072934564,0.897209950953917
1970-01-01 00:00:00.000000043,0.6923076923076922,1.054338896509648,-1.3736647196627636,0.897209950953917
1970-01-01 00:00:00.000000043,1.2307692307692306,1.2136337568093254,-1.9958363579600502,0.897209950953917
1970-01-01 00:00:00.000000043,1.2307692307692306,1.213772537342139,-2.0139169452585897,0.897209950953917
1970-01-01 00:00:00.000000043,1.1346153846153844,1.0582247514284282,-1.879921164021873,0.897209950953917
1970-01-01 00:00:00.000000043,0.9615384615384615,1.1082957512254186,-1.2439544833319804,0.897209950953917
1970-01-01 00:00:00.000000043,0.9615384615384615,1.1157605316578667,-1.2068498859415981,0.897209950953917
1970-01-01 00:00:00.000000043,0.8365384615384615,1.2672386035369807,-0.8409924370911693,0.897209950953917
1970-01-01 00:00:00.000000043,0.721153846153846,1.3496817638406104,5.4084480025466675e-05,0.897209950953917
1970-01-01 00:00:00.000000043,0.5769230769230769,1.4241690201594968,0.8424527180518567,0.897209950953917
1970-01-01 00:00:00.000000043,0.49038461538461536,1.602881780465802,1.9961693029201053,0.897209950953917
1970-01-01 00:00:00.000000043,0.49038461538461536,1.6036390524171513,2.054118460790991,0.897209950953917
1970-01-01 00:00:00.000000043,0.5096153846153846,1.4453726347972835,2.465029138436654,0.897209950953917
1970-01-01 00:00:00.000000043,0.46153846153846145,1.171422087109503,2.751668276998664,0.8972099509539169
1970-01-01 00:00:00.000000043,0.5,0.9330237171592971,2.830014340527278,0.8972099509539129
1970-01-01 00:00:00.000000043,0.5192307692307693,0.7702182761915193,2.4087189172378465,0.8972099509538061
1970-01-01 00:00:00.000000043,0.5096153846153846,0.6128697400117219,1.7053964248945754,0.8972099509509271
1970-01-01 00:00:00.000000043,0.5288461538461539,0.5272647041249716,1.1369845549156912,0.8972099508733034
1970-01-01 00:00:00.000000043,0.5673076923076922,0.6232772713625133,0.7431865578290915,0.8972099487803397
1970-01-01 00:00:00.000000043,0.6346153846153846,0.8012216226628877,0.4290525064697798,0.8972098923479432
1970-01-01 00:00:00.000000043,0.721153846153846,0.7597065405354527,0.091231116854964,0.8972083707662032
1970-01-01 00:00:00.000000043,0.7403846153846153,0.46085497179433493,0.5341876486142486,0.8971673444916175
1970-01-01 00:00:00.000000043,0.7403846153846153,0.43337769791159103,0.581835395729749,0.8960611566595448
1970-01-01 00:00:00.000000043,0.6923076923076922,-0.00965712818137801,1.4253680360889747,0.8662351114681665
1970-01-01 00:00:00.000000043,0.4807692307692307,-0.6941201588087972,2.6531015786725693,0.8651289236360937
1970-01-01 00:00:00.000000043,0.4807692307692307,-0.7315871596561451,2.7083745880703973,0.865087897361508
1970-01-01 00:00:00.000000043,0.3269230769230769,-1.058733151907121,2.973012299228158,0.865086375779768
1970-01-01 00:00:00.000000043,0.1923076923076923,-1.354207941836123,2.8129574910898647,0.8650863193473716
1970-01-01 00:00:00.000000043,0.23076923076923073,-1.5048812776681981,2.226839960198189,0.8650863172544078
1970-01-01 00:00:00.000000043,0.4711538461538461,-1.5275865552052277,1.3117214342612398,0.865086317176784
1970-01-01 00:00:00.000000043,0.75,-1.4899557128729506,0.4396387648552837,0.8650863171739052
1970-01-01 00:00:00.000000043,1.0,-1.4512176923644338,-0.191474783168577,0.8650863171737984
1970-01-01 00:00:00.000000043,1.2019230769230769,-1.4429219809667646,-0.6094579104068633,0.8650863171737944
1970-01-01 00:00:00.000000043,1.3173076923076923,-1.5076757937382113,-0.7638887978167301,0.8650863171737943
1970-01-01 00:00:00.000000043,1.3173076923076923,-1.5143244499649393,-0.7655396306448522,0.8650863171737943
1970-01-01 00:00:00.000000043,1.25,-1.6290843553151486,-0.6556812295942779,0.8650863171737943
1970-01-01 00:00:00.000000043,1.1346153846153844,-1.7209531435440755,-0.4378535684006481,0.8650863171737943
1970-01-01 00:00:00.000000043,0.9230769230769229,-1.8366505203748886,-0.16636511722322084,0.8650863171737943
1970-01-01 00:00:00.000000043,0.548076923076923,-1.8686109065779142,0.19599540337368587,0.8650863171737943
1970-01-01 00:00:00.000000043,0.548076923076923,-1.8658439572287877,0.20824100831274026,0.8650863171737943
1970-01-01 00:00:00.000000043,0.39423076923076916,-1.7591759385993497,0.17651182107030086,0.8650863171737943
1970-01-01 00:00:00.000000043,0.30769230769230765,-1.6319063849536533,0.05757816058538355,0.8650863171737943
1970-01-01 00:00:00.000000043,0.2692307692307692,-1.5522964551492933,-0.12190148526494483,0.8650863171737943
1970-01-01 00:00:00.000000043,0.23076923076923073,-1.5300979040772646,-0.3489182627388942,0.8650863171737943
1970-01-01 00:00:00.000000043,0.23076923076923073,-1.510346954936848,-0.5488916086851983,0.8650863171737943
1970-01-01 00:00:00.000000043,0.25,-1.4992698792176353,-0.7211551717614565,0.8650863171737943
1970-01-01 00:00:00.000000043,0.2692307692307692,-1.4699397839393031,-0.9222980288741277,0.8650863171737943
1970-01-01 00:00:00.000000043,0.28846153846153844,-1.439104287143549,-1.1808916078399894,0.8650863171737943
1970-01-01 00:00:00.000000043,0.3173076923076923,-1.3858759689365225,-1.4617753828055826,0.8650863171737943
1970-01-01 00:00:00.000000043,0.3365384615384615,-1.2295468741425595,-1.7870437279107405,0.8650863171737943
1970-01-01 00:00:00.000000043,0.4423076923076923,-1.0618896329125804,-2.0384052707844047,0.8650863171737943
1970-01-01 00:00:00.000000043,0.5576923076923076,-0.941473214497111,-2.2498985832681795,0.8650863171737943
1970-01-01 00:00:00.000000043,0.5865384615384615,-0.8578871585094165,-2.4588564774564303,0.8650863171737943
1970-01-01 00:00:00.000000043,0.6442307692307692,-0.7214800652571365,-2.6392263080554397,0.8650863171737943
1970-01-01 00:00:00.000000043,0.721153846153846,-0.6220746034332694,-2.8002538400404413,0.8650863171737943
1970-01-01 00:00:00.000000043,0.7307692307692307,-0.5745342274411359,-2.9676273730364753,0.8650863171737943
1970-01-01 00:00:00.000000043,0.6538461538461539,-0.3903495374774013,-3.0756852319443784,0.8650863171737943
1970-01-01 00:00:00.000000043,0.4807692307692307,0.03509671555130129,-2.825873889461745,0.8650863171737943
1970-01-01 00:00:00.000000043,0.39423076923076916,0.08796085736253538,-2.4729097835227263,0.8650863171737943
1970-01-01 00:00:00.000000043,0.39423076923076916,0.0898464332371539,-2.4426902656518714,0.8650863171737943
1970-01-01 00:00:00.000000043,0.3557692307692307,0.08789284004061972,-1.9797273890778044,0.8650863171737943
1970-01-01 00:00:00.000000043,0.39423076923076916,0.03326024785957822,-1.009949239448851,0.8650863171737943
1970-01-01 00:00:00.000000044,0.423076923076923,0.06013385216799233,-0.5389020760411738,0.8650863171737943
1970-01-01 00:00:00.000000044,0.3846153846153846,0.09035376067621462,-0.0404068136628397,0.8650863171737943
1970-01-01 00:00:00.000000044,0.3365384615384615,0.1294176860898025,0.447918107144502,0.8650863171737943
1970-01-01 00:00:00.000000044,0.30769230769230765,0.15392376374845232,0.8841957065643925,0.8650863171737943
1970-01-01 00:00:00.000000044,0.2980769230769231,0.026523935118409777,1.4253659700940942,0.8650863171737943
1970-01-01 00:00:00.000000044,0.2980769230769231,-0.18777751555138836,2.2256854859761455,0.8650863171737943
1970-01-01 00:00:00.000000044,0.25,-0.3465168550058948,2.9181421512618253,0.8650863171737943
1970-01-01 00:00:00.000000044,0.10576923076923075,-0.6681775696077696,3.564152598093134,0.8650863171737943
1970-01-01 00:00:00.000000044,-0.0625,-1.1942775244038857,3.813977997252798,0.8650863171737943
1970-01-01 00:00:00.000000044,-0.09615384615384615,-1.3273155892971458,3.538253327732414,0.8650863171737943
1970-01-01 00:00:00.000000044,0.0,-0.8932433866190462,2.7188618515223855,0.8650863171737943
1970-01-01 00:00:00.000000044,-0.04807692307692307,-0.2902558494170997,1.8710166633719933,0.8650863171737943
1970-01-01 00:00:00.000000044,-0.28846153846153844,0.3063354523573561,1.2985880595214274,0.8650863171737943
1970-01-01 00:00:00.000000044,-0.5288461538461539,0.811313063065712,0.9408609437065456,0.8650863171737943
1970-01-01 00:00:00.000000044,-0.5961538461538461,1.0991172504168705,0.8546574205553022,0.8650863171737943
1970-01-01 00:00:00.000000044,-0.548076923076923,1.1148526981897895,0.8848894112866147,0.8650863171737943
1970-01-01 00:00:00.000000044,-0.5961538461538461,1.0019056007074418,1.037356684183292,0.8650863171737943
1970-01-01 00:00:00.000000044,-0.8942307692307692,0.9365985209111429,1.873741061662266,0.8650863171737943
1970-01-01 00:00:00.000000044,-1.0096153846153846,1.0362544638934175,2.303651980697897,0.8650863171737943
1970-01-01 00:00:00.000000044,-1.0096153846153846,1.0422720042111284,2.3248624171809533,0.8650863171737943
1970-01-01 00:00:00.000000044,-1.0192307692307692,1.1050896498070486,2.46763328318784,0.8650863171737943
1970-01-01 00:00:00.000000044,-0.9230769230769229,1.0451485405791805,2.30123622889072,0.8650863171737943
1970-01-01 00:00:00.000000044,-0.7884615384615383,0.8639209458308251,1.9157448968616055,0.8650863171737943
1970-01-01 00:00:00.000000044,-0.7019230769230769,0.5307169968530981,1.423875986372636,0.8650863171737943
1970-01-01 00:00:00.000000044,-0.7019230769230769,0.21543796920282415,0.7789067351995668,0.8650863171737943
1970-01-01 00:00:00.000000044,-0.7019230769230769,0.0361081716231549,0.1066058640156657,0.8650863171737943
1970-01-01 00:00:00.000000044,-0.7115384615384615,0.009482664622358195,-0.4005484067765928,0.8650863171737943
1970-01-01 00:00:00.000000044,-0.7403846153846153,-0.03007622681948367,-0.6714128469836695,0.8650863171737943
1970-01-01 00:00:00.000000044,-0.846153846153846,-0.07154078874841728,-0.727598461782483,0.8650863171737943
1970-01-01 00:00:00.000000044,-1.0096153846153846,-0.15152506938778257,-0.7237456211433704,0.8650863171737943
1970-01-01 00:00:00.000000044,-1.0865384615384612,-0.2696360847217122,-0.8135333090885178,0.8650863171737943
1970-01-01 00:00:00.000000044,-1.0480769230769231,-0.37864921809844615,-0.9916537242466112,0.8650863171737943
1970-01-01 00:00:00.000000044,-1.0288461538461537,-0.453892803936333,-1.211117245569984,0.8650863171737943
1970-01-01 00:00:00.000000044,-1.0384615384615385,-0.37645648818254357,-1.4585119061429554,0.8650863171737943
1970-01-01 00:00:00.000000044,-1.0384615384615385,-0.21043237699234282,-1.6687042202898152,0.8650863171737943
1970-01-01 00:00:00.000000044,-1.0288461538461537,-0.055217690610713,-1.8465020416820532,0.8650863171737943
1970-01-01 00:00:00.000000044,-0.8173076923076922,0.219554730503092,-2.186850905125623,0.8650863171737943
1970-01-01 00:00:00.000000044,-0.8173076923076922,0.23319541419419634,-2.198472396709759,0.8650863171737943
1970-01-01 00:00:00.000000044,-0.6442307692307692,0.32672145274020914,-2.1719038060378613,0.8650863171737943
1970-01-01 00:00:00.000000044,-0.5192307692307693,0.33828380979145073,-1.9429303663124915,0.8650863171737943
1970-01-01 00:00:00.000000044,-0.41346153846153844,0.30694141162896005,-1.937216084399413,0.8650863171737943
1970-01-01 00:00:00.000000044,-0.22115384615384615,0.19913430419047076,-1.8619039124716619,0.8650863171737943
1970-01-01 00:00:00.000000044,0.009615384615384614,0.06968480151375034,-1.8341895523354548,0.8650863171737943
1970-01-01 00:00:00.000000044,0.2019230769230769,-0.06764466331921162,-1.9112140005856129,0.8650863171737943
1970-01-01 00:00:00.000000044,0.39423076923076916,-0.14609071113246364,-2.018588463476094,0.8650863171737943
1970-01-01 00:00:00.000000044,0.548076923076923,-0.12680453725730692,-2.0906745132689353,0.8650863171737943
1970-01-01 00:00:00.000000044,0.6442307692307692,-0.027631794814822485,-2.1796233947851573,0.8650863171737943
1970-01-01 00:00:00.000000044,0.7115384615384615,0.13074607725709958,-2.2591571459303026,0.8650863171737935
1970-01-01 00:00:00.000000044,0.7692307692307692,0.30777588075651074,-2.317619545333016,0.8650863171737746
1970-01-01 00:00:00.000000044,0.7692307692307692,0.42920270316869114,-2.3165705780611368,0.8650863171732648
1970-01-01 00:00:00.000000044,0.7692307692307692,0.5306971047981496,-2.2297860623176824,0.8650863171595169
1970-01-01 00:00:00.000000044,0.7692307692307692,0.6496191263813469,-2.1376531045162963,0.8650863167888352
1970-01-01 00:00:00.000000044,0.7692307692307692,0.7590193074982158,-1.9868477596223149,0.8650863067941774
1970-01-01 00:00:00.000000044,0.721153846153846,0.8439021760704769,-1.757236405286205,0.8650860373090983
1970-01-01 00:00:00.000000044,0.7788461538461539,1.2763394464046625,-1.458535183105225,0.8650787712066187
1970-01-01 00:00:00.000000044,0.9326923076923076,1.6172628768554074,-1.3732135385548663,0.8648828559247499
1970-01-01 00:00:00.000000044,0.9326923076923076,1.6397582286913386,-1.3682303578761625,0.8596004094167724
1970-01-01 00:00:00.000000044,1.1153846153846152,1.9062092978107343,-1.319006124101516,0.7171702689832499
1970-01-01 00:00:00.000000044,1.25,2.0778928121984883,-1.244934992864768,0.7118878224752725
1970-01-01 00:00:00.000000044,1.3846153846153844,2.1968966315484484,-1.0442386832472148,0.7116919071934037
1970-01-01 00:00:00.000000044,1.471153846153846,2.2383162396096132,-0.6995094548100288,0.7116846410909242
1970-01-01 00:00:00.000000044,1.471153846153846,2.237641837911102,-0.3425165966235647,0.711684371605845
1970-01-01 00:00:00.000000044,1.4615384615384615,2.178013383990121,-0.04843865402621776,0.7116843616111872
1970-01-01 00:00:00.000000044,1.442307692307692,2.0687195298221592,0.28467293791568515,0.7116843612405055
1970-01-01 00:00:00.000000044,1.3846153846153844,1.9274139212081887,0.7346079777497169,0.7116843612267576
1970-01-01 00:00:00.000000044,1.3269230769230766,1.7214563427989373,1.049742461326668,0.7116843612262477
1970-01-01 00:00:00.000000044,1.3365384615384612,1.5519073343631256,1.3584384780703183,0.7116843612262289
1970-01-01 00:00:00.000000044,1.3365384615384612,1.4300416850054527,1.6280964465719214,0.7116843612262281
1970-01-01 00:00:00.000000044,1.2788461538461537,1.3092181607840963,1.8501655793715646,0.7116843612262281
1970-01-01 00:00:00.000000044,1.1249999999999998,1.1688486561651439,2.076374196460318,0.7116843612262281
1970-01-01 00:00:00.000000044,0.9230769230769229,0.9996955556747937,2.2119377250570187,0.7116843612262281
1970-01-01 00:00:00.000000044,0.7403846153846153,0.8229313470542841,2.145944380079183,0.7116843612262281
1970-01-01 00:00:00.000000044,0.5576923076923076,0.7194508147908765,1.9785605370809254,0.7116843612262281
1970-01-01 00:00:00.000000044,0.4423076923076923,0.6022406522993824,1.7751901211058083,0.7116843612262281
1970-01-01 00:00:00.000000044,0.2980769230769231,0.04104679729244774,1.2015727327758956,0.7116843612262281
1970-01-01 00:00:00.000000044,0.2980769230769231,0.006022874596708241,1.1672736638433707,0.7116843612262281
1970-01-01 00:00:00.000000044,0.25961538461538464,-0.37842918318132546,0.8148161909951148,0.7116843612262281
1970-01-01 00:00:00.000000044,0.1923076923076923,-0.7236108204924947,0.5827634930247253,0.7116843612262281
1970-01-01 00:00:00.000000044,0.1346153846153846,-0.909062970116031,0.669798120672473,0.7116843612262281
1970-01-01 00:00:00.000000044,0.04807692307692307,-1.0710893726403405,1.0017857651320445,0.7116843612262281
1970-01-01 00:00:00.000000044,-0.02884615384615384,-1.260350091173162,1.1284175378927273,0.7116843612262281
1970-01-01 00:00:00.000000044,-0.0673076923076923,-1.208363089035029,0.9654877579715904,0.7116843612262281
1970-01-01 00:00:00.000000044,0.15384615384615383,-1.1154533127726192,0.4397519273402117,0.7116843612262281
1970-01-01 00:00:00.000000044,0.9423076923076922,-1.4088763558256863,-1.0921857197858746,0.7116843612262281
1970-01-01 00:00:00.000000044,0.9423076923076922,-1.424208294520914,-1.17876636155883,0.7116843612262281
1970-01-01 00:00:00.000000044,1.2884615384615383,-1.5447475962389925,-1.984506042302539,0.7116843612262281
1970-01-01 00:00:00.000000044,1.4519230769230769,-1.5339768039318837,-2.6528967806097183,0.7116843612262281
1970-01-01 00:00:00.000000044,1.4326923076923075,-1.3726261099218702,-2.893707034159854,0.7116843612262281
1970-01-01 00:00:00.000000044,1.3749999999999998,-1.2769281639586043,-2.727193141706332,0.7116843612262281
1970-01-01 00:00:00.000000044,1.3365384615384612,-1.3544343169604487,-2.4905077919111105,0.7116843612262281
1970-01-01 00:00:00.000000044,1.3173076923076923,-1.5427983939735097,-2.2665172398936444,0.7116843612262281
1970-01-01 00:00:00.000000044,1.2980769230769231,-1.801122320324313,-2.2054576852173002,0.7116843612262281
1970-01-01 00:00:00.000000044,1.3749999999999998,-2.337504254782937,-2.280840260973458,0.7116843612262281
1970-01-01 00:00:00.000000044,1.3173076923076923,-2.561492558814984,-2.627229361066062,0.7116843612262281
1970-01-01 00:00:00.000000044,1.3173076923076923,-2.5727948332216224,-2.6543524878102205,0.7116843612262281
1970-01-01 00:00:00.000000044,1.1826923076923075,-2.6539679381688335,-3.0402878098098918,0.7116843612262281
1970-01-01 00:00:00.000000045,0.9038461538461537,-2.584339497336878,-3.1834183770568667,0.7116843612262281
1970-01-01 00:00:00.000000045,0.6153846153846153,-2.3731984899268763,-2.9120083707254976,0.7116843612262281
1970-01-01 00:00:00.000000045,0.43269230769230765,-2.242019730688778,-2.440807632531573,0.7116843612262281
1970-01-01 00:00:00.000000045,0.2788461538461538,-2.1613342386701255,-1.7397977076269588,0.7116843612262281
1970-01-01 00:00:00.000000045,0.1346153846153846,-1.6140047134046118,0.46626952660368615,0.7116843612262281
1970-01-01 00:00:00.000000045,0.14423076923076922,-1.166793023254391,1.8290749259264834,0.7116843612262281
1970-01-01 00:00:00.000000045,0.14423076923076922,-1.1394069144639454,1.9187534734113674,0.7116843612262281
1970-01-01 00:00:00.000000045,0.14423076923076922,-0.8471936672721367,2.9772688561804412,0.7116843612262281
1970-01-01 00:00:00.000000045,0.375,-0.984822101883748,3.7175056434605493,0.7116843612262281
1970-01-01 00:00:00.000000045,0.5769230769230769,-0.9930030835890602,3.645383517254385,0.7116843612262281
1970-01-01 00:00:00.000000045,0.8269230769230769,-0.8262611550208767,2.7078493224078426,0.7116843612262281
1970-01-01 00:00:00.000000045,1.4134615384615383,-1.0660481019746109,1.21654818775736,0.7116843612262281
1970-01-01 00:00:00.000000045,2.0865384615384612,-1.7070375982936103,-0.3610482529591207,0.7116843612262281
1970-01-01 00:00:00.000000045,2.6634615384615383,-2.5239670519528654,-1.7148510176536171,0.7116843612262281
1970-01-01 00:00:00.000000045,3.0,-3.1900728044337563,-2.689929223688541,0.7116843612262281
1970-01-01 00:00:00.000000045,3.134615384615384,-3.6079986677585554,-3.6632380219369884,0.7116843612262281
1970-01-01 00:00:00.000000045,2.971153846153846,-3.7258912250472345,-3.717497368610143,0.7116843612262281
1970-01-01 00:00:00.000000045,2.971153846153846,-3.7410644085167744,-3.7091909305368724,0.7116843612262281
1970-01-01 00:00:00.000000045,2.644230769230769,-4.032847804905671,-3.4306577558854072,0.7116843612262281
1970-01-01 00:00:00.000000045,1.894230769230769,-4.645826323936357,-2.418568478369114,0.7116843612262281
1970-01-01 00:00:00.000000045,1.894230769230769,-4.6544629413759875,-2.370691160080674,0.7116843612262281
1970-01-01 00:00:00.000000045,0.6923076923076922,-4.2746730932152985,-2.090092843809085,0.7116843612262281
1970-01-01 00:00:00.000000045,0.6923076923076922,-4.26171057543708,-2.0618156227646156,0.7116843612262281
1970-01-01 00:00:00.000000045,0.0673076923076923,-4.29151244358588,-1.578928970835536,0.7116843612262281
1970-01-01 00:00:00.000000045,-0.5769230769230769,-4.35912540138167,-1.0692665897948535,0.7116843612262281
1970-01-01 00:00:00.000000045,-1.3076923076923077,-4.654873393719194,-0.5412689536255079,0.7116843612262281
1970-01-01 00:00:00.000000045,-2.1346153846153846,-5.072456229036588,-0.044995158093859025,0.7116843612262281
1970-01-01 00:00:00.000000045,-3.7019230769230766,-5.551444790268676,0.5763996850913156,0.7116843612262281
1970-01-01 00:00:00.000000045,-3.7019230769230766,-5.566553108217676,0.6077866555593788,0.7116843612262281
1970-01-01 00:00:00.000000045,-4.403846153846153,-5.495489131608541,0.8338400150119155,0.7116843612262281
1970-01-01 00:00:00.000000045,-5.29326923076923,-4.811653445212947,1.155893749762343,0.7116843612262281
1970-01-01 00:00:00.000000045,-6.240384615384615,-3.9191538891410316,1.3752912285713448,0.7116843612262281
1970-01-01 00:00:00.000000045,-7.096153846153846,-3.755501561594901,1.47696942166397,0.7116843612262281
1970-01-01 00:00:00.000000045,-8.326923076923077,-3.97938827392129,1.75288315635584,0.7116843612262281
1970-01-01 00:00:00.000000045,-8.98076923076923,-3.812981834279918,2.2258757999437093,0.7116843612262281
1970-01-01 00:00:00.000000045,-9.115384615384615,-3.221121251636505,2.5957634421243045,0.7116843612262281
1970-01-01 00:00:00.000000045,-8.932692307692307,-2.657291959905719,2.8097371374125184,0.7116843612262281
1970-01-01 00:00:00.000000045,-8.35576923076923,-2.0257616658179134,3.017139268013693,0.7116843612262281
1970-01-01 00:00:00.000000045,-6.586538461538461,-0.28827301717794734,3.1530230989571923,0.7116843612262281
1970-01-01 00:00:00.000000045,-4.615384615384615,1.8673902020133348,2.7394844038304993,0.7116843612262281
1970-01-01 00:00:00.000000045,-3.2115384615384612,3.4578084715379904,1.8130558044662906,0.7116843612262281
1970-01-01 00:00:00.000000045,-2.3076923076923075,4.243438529512393,0.7130223167593392,0.7116843612262281
1970-01-01 00:00:00.000000045,-1.644230769230769,4.365031825296642,-0.31145325196413026,0.7116843612262281
1970-01-01 00:00:00.000000045,-1.644230769230769,4.362420753496935,-0.37226011979085716,0.7116843612262281
1970-01-01 00:00:00.000000045,-1.0576923076923077,4.170328519120594,-0.9895699823890138,0.7116843612262281
1970-01-01 00:00:00.000000045,-0.721153846153846,3.986449262759101,-1.0961294047125139,0.7116843612262288
1970-01-01 00:00:00.000000045,-0.721153846153846,3.963801575375141,-1.1059239448488543,0.7116843612262461
1970-01-01 00:00:00.000000045,0.03846153846153846,3.5361932723697156,-1.2638171062065495,0.7116843612267125
1970-01-01 00:00:00.000000045,0.03846153846153846,3.513416778607183,-1.2671379227279793,0.7116843612392888
1970-01-01 00:00:00.000000045,0.3365384615384615,3.326059750024225,-1.1989068074488898,0.7116843615783821
1970-01-01 00:00:00.000000045,0.7692307692307692,3.0401964720468784,-0.8533458783920405,0.7116843707213242
1970-01-01 00:00:00.000000045,0.7692307692307692,3.0092449952414926,-0.8414319091362024,0.7116846172416663
1970-01-01 00:00:00.000000045,1.1153846153846152,2.4594183994734315,-0.8653156682854244,0.711691264147963
1970-01-01 00:00:00.000000045,1.346153846153846,2.1450517905411672,-1.022091134570257,0.7118704840976332
1970-01-01 00:00:00.000000045,1.4134615384615383,1.9569799451380836,-0.9811449651115148,0.71670277583243
1970-01-01 00:00:00.000000045,1.4134615384615383,1.9434067281870917,-0.9688229234406447,0.8469954327222731
1970-01-01 00:00:00.000000045,1.3749999999999998,1.7650017159133948,-0.6770739677858932,0.8518277244570698
1970-01-01 00:00:00.000000045,1.1153846153846152,1.461639601474568,0.4378257932215284,0.85200694440674
1970-01-01 00:00:00.000000045,1.1153846153846152,1.4492675238999408,0.4983703847671606,0.8520135913130367
1970-01-01 00:00:00.000000045,1.0576923076923077,1.4185835438238357,1.0181745954918102,0.8520138378333789
1970-01-01 00:00:00.000000045,1.0673076923076923,1.3524881593436213,1.7423436935117156,0.8520138469763209
1970-01-01 00:00:00.000000045,1.0673076923076923,1.3485967584539356,1.7751051293245093,0.8520138473154142
1970-01-01 00:00:00.000000045,1.1634615384615383,1.309624318912637,1.9354947982500346,0.8520138473279905
1970-01-01 00:00:00.000000045,1.2403846153846154,1.2612598521872667,1.983254423426423,0.8520138473284569
1970-01-01 00:00:00.000000045,1.3365384615384612,1.244391690143563,1.8623746342633882,0.8520138473284742
1970-01-01 00:00:00.000000045,1.471153846153846,1.3373157816889354,1.5508607016850595,0.8520138473284748
1970-01-01 00:00:00.000000045,1.5192307692307692,1.6131344154576919,1.260864311233221,0.8520138473284748
1970-01-01 00:00:00.000000045,1.3846153846153844,1.9673134356687432,0.9924757016119075,0.8520138473284748
1970-01-01 00:00:00.000000045,0.9038461538461537,2.5043283475983755,0.5359796322882814,0.8520138473284748
1970-01-01 00:00:00.000000045,0.9038461538461537,2.524551949487401,0.5039743701716908,0.8520138473284748
1970-01-01 00:00:00.000000045,0.6826923076923076,2.6585742885614474,0.3213283623473685,0.8520138473284748
1970-01-01 00:00:00.000000045,0.4807692307692307,2.7569538416716752,0.1718914132072592,0.8520138473284748
1970-01-01 00:00:00.000000045,0.30769230769230765,2.779179436573797,0.06973979424862989,0.8520138473284748
1970-01-01 00:00:00.000000045,0.11538461538461536,2.7808909458208526,-0.03891696849425222,0.8520138473284748
1970-01-01 00:00:00.000000045,-0.09615384615384615,2.8048761005892353,-0.12049794359343967,0.8520138473284748
1970-01-01 00:00:00.000000045,-0.24038461538461536,2.9507637700885017,-0.21452750852861907,0.8520138473284748
1970-01-01 00:00:00.000000045,-0.30769230769230765,3.1157456918003046,-0.4217447866792751,0.8520138473284748
1970-01-01 00:00:00.000000045,-0.4038461538461538,3.1743699085197172,-0.6725817318118094,0.8520138473284748
1970-01-01 00:00:00.000000045,-0.7884615384615383,2.842241838232067,-0.9879619722395774,0.8520138473284748
1970-01-01 00:00:00.000000045,-0.7884615384615383,2.8161597237460803,-1.0023915186567771,0.8520138473284748
1970-01-01 00:00:00.000000045,-1.1346153846153844,2.4440707029121094,-1.076609031493401,0.8520138473284748
1970-01-01 00:00:00.000000045,-1.5576923076923077,1.9237492548808657,-1.0660523316650434,0.8520138473284748
1970-01-01 00:00:00.000000045,-2.5576923076923075,0.9971591788712628,-0.9568039234627713,0.8520138473284748
1970-01-01 00:00:00.000000045,-2.9519230769230766,0.7495485746432345,-1.0176536018297813,0.8520138473284748
1970-01-01 00:00:00.000000045,-2.9519230769230766,0.740652336496073,-1.019843325941318,0.8520138473284748
1970-01-01 00:00:00.000000045,-3.2788461538461537,0.7480645107507352,-1.0181161985858067,0.8520138473284748
1970-01-01 00:00:00.000000045,-3.5,0.957089453773778,-0.9692940358754617,0.8520138473284748
1970-01-01 00:00:00.000000045,-4.249999999999999,0.8433507411412701,-1.1528227700516602,0.8520138473284748
1970-01-01 00:00:00.000000045,-4.249999999999999,0.8133805570405139,-1.1569207555193657,0.8520138473284748
1970-01-01 00:00:00.000000045,-4.865384615384615,0.11792429895260581,-1.0840376289712161,0.8520138473284748
1970-01-01 00:00:00.000000045,-5.346153846153845,-0.6294244853201579,-0.8620952267034665,0.8520138473284748
1970-01-01 00:00:00.000000045,-5.634615384615384,-1.36238540259687,-0.44253349202238207,0.8520138473284748
1970-01-01 00:00:00.000000045,-5.694230769230768,-1.3799813847953297,-0.2863090579008511,0.8520138473284748
1970-01-01 00:00:00.000000045,-5.2980769230769225,-0.8971119868770325,-0.21281107130059812,0.8520138473284748
1970-01-01 00:00:00.000000046,-5.2980769230769225,-0.8420422608845495,-0.2095898672152987,0.8520138473284748
1970-01-01 00:00:00.000000046,-4.499999999999999,0.16197094299419956,-0.19611534351246684,0.8520138473284748
1970-01-01 00:00:00.000000046,-3.5288461538461533,1.4652577217279374,-0.33552440762130603,0.8520138473284748
1970-01-01 00:00:00.000000046,-2.7019230769230766,2.6499875436601146,-0.613043662262796,0.8520138473284748
1970-01-01 00:00:00.000000046,-2.221153846153846,3.334405957095146,-0.9666544734741878,0.8520138473284748
1970-01-01 00:00:00.000000046,-2.1634615384615383,3.128973297908837,-1.2366271215402764,0.8520138473284748
1970-01-01 00:00:00.000000046,-2.298076923076923,2.647873086443454,-1.172277808113274,0.8520138473284748
1970-01-01 00:00:00.000000046,-2.298076923076923,2.6136000360644203,-1.1648736975181253,0.8520138473284748
1970-01-01 00:00:00.000000046,-2.346153846153846,2.169327887295894,-1.0293120248761056,0.8520138473284748
1970-01-01 00:00:00.000000046,-2.2884615384615383,1.7082529209247177,-0.8765509741367278,0.8520138473284748
1970-01-01 00:00:00.000000046,-2.1634615384615383,1.2035009776714878,-0.6375642768155455,0.8520138473284748
1970-01-01 00:00:00.000000046,-1.9615384615384615,0.7862734762054571,-0.3376844998829999,0.8520138473284748
1970-01-01 00:00:00.000000046,-1.721153846153846,0.5258828798758529,0.02008277997454875,0.8520138473284748
1970-01-01 00:00:00.000000046,-1.4519230769230769,0.4125642804425727,0.3799195591958155,0.8520138473284748
1970-01-01 00:00:00.000000046,-1.1538461538461537,0.36335269207361093,0.7377453183124686,0.8520138473284748
1970-01-01 00:00:00.000000046,-0.6826923076923076,0.14795840554492193,1.2892040352408374,0.8520138473284748
1970-01-01 00:00:00.000000046,-0.6826923076923076,0.13152425763928102,1.3207636331901422,0.8520138473284748
1970-01-01 00:00:00.000000046,-0.625,-0.09680344928433517,1.621414060893001,0.8520138473284748
1970-01-01 00:00:00.000000046,-0.43269230769230765,-0.24521738831633025,1.9574160109208871,0.8520138473284748
1970-01-01 00:00:00.000000046,-0.125,-0.2740660352565816,2.228818233970953,0.8520138473284748
1970-01-01 00:00:00.000000046,0.6634615384615383,-0.15456556361137078,2.4706763062948465,0.8520138473284748
1970-01-01 00:00:00.000000046,0.6634615384615383,-0.1492041822504297,2.479442035989899,0.8520138473284748
1970-01-01 00:00:00.000000046,1.0673076923076923,-0.12394735715023103,2.4742586654324366,0.8520138473284748
1970-01-01 00:00:00.000000046,1.721153846153846,-0.1973744608058081,2.325541930685895,0.8520138473284748
1970-01-01 00:00:00.000000046,1.721153846153846,-0.2051630846065875,2.3153734630867273,0.8520138473284748
1970-01-01 00:00:00.000000046,1.9134615384615383,-0.3420288235720539,2.1895415726557386,0.8520138473284748
1970-01-01 00:00:00.000000046,2.0288461538461537,-0.5296151518388666,2.052248998618215,0.8520138473284748
1970-01-01 00:00:00.000000046,2.0961538461538463,-0.707580276077346,1.9711813900360635,0.8520138473284748
1970-01-01 00:00:00.000000046,2.221153846153846,-0.8250523022494736,1.9196485323555004,0.8520138473284748
1970-01-01 00:00:00.000000046,2.4326923076923075,-0.8188318846584406,1.8593289835624516,0.8520138473284748
1970-01-01 00:00:00.000000046,2.6346153846153846,-0.7834085835284217,1.7822340238306849,0.8520138473284748
1970-01-01 00:00:00.000000046,2.798076923076923,-0.8331998706089428,1.7609896598660377,0.8520138473284748
1970-01-01 00:00:00.000000046,2.884615384615384,-0.9629879229130381,1.764486792552333,0.8520138473284748
1970-01-01 00:00:00.000000046,2.8942307692307687,-1.167474048043087,1.8801537390469543,0.8520138473284748
1970-01-01 00:00:00.000000046,2.923076923076923,-1.3088113742503082,1.999664161715436,0.8520138473284748
1970-01-01 00:00:00.000000046,2.932692307692307,-1.4204330567152308,2.1107786272698226,0.8520138473284748
1970-01-01 00:00:00.000000046,2.913461538461538,-1.542881157060925,2.2413587745697767,0.8520138473284748
1970-01-01 00:00:00.000000046,2.7884615384615383,-1.737358183929746,2.405908286114139,0.8520138473284748
1970-01-01 00:00:00.000000046,2.490384615384615,-2.115789809042223,2.7181649505119867,0.8520138473284748
1970-01-01 00:00:00.000000046,2.490384615384615,-2.1389666602102713,2.734545377709501,0.8520138473284748
1970-01-01 00:00:00.000000046,2.4326923076923075,-2.386310016635101,2.864560247644534,0.8520138473284748
1970-01-01 00:00:00.000000046,2.355769230769231,-2.5414037889374383,2.858581308692918,0.8520138473284748
1970-01-01 00:00:00.000000046,2.192307692307692,-2.731592284675724,2.817135087064259,0.8520138473284748
1970-01-01 00:00:00.000000046,1.9519230769230766,-2.9615878973071026,2.704066042042076,0.8520138473284748
1970-01-01 00:00:00.000000046,1.9519230769230766,-2.981280942616043,2.692648048071784,0.8520138473284748
1970-01-01 00:00:00.000000046,1.673076923076923,-3.2829975533260547,2.497431255896087,0.8520138473284748
1970-01-01 00:00:00.000000046,1.2788461538461537,-3.659652997187438,2.2379958611225677,0.8520138473284748
1970-01-01 00:00:00.000000046,0.9134615384615383,-4.0276333707347565,1.928456994413233,0.8520138473284748
1970-01-01 00:00:00.000000046,0.5961538461538461,-4.336448012650982,1.5803429880347268,0.8520138473284748
1970-01-01 00:00:00.000000046,0.23076923076923073,-4.556462970841752,1.2408036825243893,0.8520138473284748
1970-01-01 00:00:00.000000046,-0.1346153846153846,-4.688052200076325,0.9213564401237859,0.8520138473284742
1970-01-01 00:00:00.000000046,-0.5576923076923076,-4.7709464312190235,0.38582020081782864,0.8520138473284576
1970-01-01 00:00:00.000000046,-0.9615384615384615,-4.77750144283729,0.3457889819575875,0.852013847328012
1970-01-01 00:00:00.000000046,-1.4038461538461537,-4.7215925253878295,-0.049517687962965296,0.8520138473159948
1970-01-01 00:00:00.000000046,-1.9711538461538458,-4.7054967426340975,-0.4327665569576509,0.8520138469919768
1970-01-01 00:00:00.000000046,-2.567307692307692,-4.826819525732808,-0.6351793498936092,0.8520138382555086
1970-01-01 00:00:00.000000046,-3.300961538461538,-4.868630452151724,-0.7170758901697966,0.8520136026948834
1970-01-01 00:00:00.000000046,-3.3076923076923075,-4.876202682363711,-0.7258696846908994,0.8520072512944703
1970-01-01 00:00:00.000000046,-4.009615384615384,-5.038841971668469,-0.8814055964844877,0.8518359990439432
1970-01-01 00:00:00.000000046,-4.548076923076923,-5.1725305526849485,-0.8220814203902661,0.8472185396801272
1970-01-01 00:00:00.000000046,-4.865384615384615,-4.86948295082514,-0.5647927540526996,0.8470472874296001
1970-01-01 00:00:00.000000046,-4.451923076923077,-3.8035091195938238,-0.1773229390326245,0.8470409360291871
1970-01-01 00:00:00.000000046,-3.2307692307692304,-2.075263278208103,0.027073400171838135,0.8470407004685618
1970-01-01 00:00:00.000000046,-1.7596153846153846,-0.4785993920249526,0.15830474367225408,0.8470406917320936
1970-01-01 00:00:00.000000046,-0.5288461538461539,0.40307969353437817,0.24715467897902166,0.8470406914080756
1970-01-01 00:00:00.000000046,0.43269230769230765,0.6117511174531629,0.2648715887613307,0.8470406913960584
1970-01-01 00:00:00.000000046,1.3124999999999998,0.11420047770101802,-0.3456217824230924,0.8470406913956127
1970-01-01 00:00:00.000000046,1.6057692307692306,-0.053338219525675315,-1.3716597141848237,0.8470406913955962
1970-01-01 00:00:00.000000046,1.6057692307692306,-0.05433240489425119,-1.4391905005671464,0.8470406913955956
1970-01-01 00:00:00.000000046,1.6538461538461537,0.08636328738089322,-2.2364838011281325,0.8470406913955956
1970-01-01 00:00:00.000000046,1.8557692307692306,0.38614116417836863,-2.945872129892432,0.8470406913955956
1970-01-01 00:00:00.000000046,2.3413461538461537,0.8394481454350584,-3.5520637059675164,0.8470406913955956
1970-01-01 00:00:00.000000046,2.6826923076923075,0.9039587625682085,-3.5848479312305077,0.8470406913955956
1970-01-01 00:00:00.000000046,2.692307692307692,0.5674384439065693,-3.2388304372561882,0.8470406913955956
1970-01-01 00:00:00.000000046,2.6249999999999996,0.16687922290916193,-2.613573874686576,0.8470406913955956
1970-01-01 00:00:00.000000046,2.490384615384615,-0.31169942535919754,-1.577664179281373,0.8470406913955956
1970-01-01 00:00:00.000000046,2.3269230769230766,-0.5827637076074945,-0.3583589659104992,0.8470406913955956
1970-01-01 00:00:00.000000046,2.2307692307692304,-0.5479206800431558,0.2769720996978933,0.8470406913955956
1970-01-01 00:00:00.000000046,2.1249999999999996,-0.46109465355770896,0.5866056577536164,0.8470406913955956
1970-01-01 00:00:00.000000046,1.8749999999999998,-0.15163496601498608,0.8113806596497499,0.8470406913955956
1970-01-01 00:00:00.000000046,1.8749999999999998,-0.13304942884691512,0.8206721527896298,0.8470406913955956
1970-01-01 00:00:00.000000046,1.7115384615384615,0.059300387148278635,0.8467674656702558,0.8470406913955956
1970-01-01 00:00:00.000000046,1.4807692307692306,0.4841598818504386,0.79204942030728,0.8470406913955956
1970-01-01 00:00:00.000000046,1.4807692307692306,0.5130164228135651,0.7885668826263021,0.8470406913955956
1970-01-01 00:00:00.000000046,1.346153846153846,0.8672835341158182,0.7492564106028771,0.8470406913955956
1970-01-01 00:00:00.000000046,1.1826923076923075,1.1536389983135278,0.6913562036513782,0.8470406913955956
1970-01-01 00:00:00.000000046,0.9615384615384615,1.2809694203494364,0.6673610879843344,0.8470406913955956
1970-01-01 00:00:00.000000046,0.7115384615384615,1.4325353511212533,0.57739317192565,0.8470406913955956
1970-01-01 00:00:00.000000046,0.4038461538461538,1.6474850599244077,0.42225455400821543,0.8470406913955956
1970-01-01 00:00:00.000000046,0.02884615384615384,1.7995612668377556,0.32347978629616825,0.8470406913955956
1970-01-01 00:00:00.000000046,-0.30769230769230765,1.9406691446949933,0.3116996759883269,0.8470406913955956
1970-01-01 00:00:00.000000046,-0.548076923076923,2.0985056399270623,0.3424114653886565,0.8470406913955956
1970-01-01 00:00:00.000000046,-0.7596153846153846,2.2189831333356858,0.4334098895053978,0.8470406913955956
1970-01-01 00:00:00.000000047,-0.9423076923076922,2.314038960136447,0.609655551257085,0.8470406913955956
1970-01-01 00:00:00.000000047,-1.0576923076923077,2.5100687903483823,0.7772899944358973,0.8470406913955956
1970-01-01 00:00:00.000000047,-1.221153846153846,2.7078183792698876,0.8771742985121393,0.8470406913955956
1970-01-01 00:00:00.000000047,-1.3557692307692306,2.851027449938579,0.9064160653918646,0.8470406913955956
1970-01-01 00:00:00.000000047,-1.4807692307692306,3.019922769071745,0.8460594670682045,0.8470406913955956
1970-01-01 00:00:00.000000047,-1.596153846153846,3.186887314998542,0.6871895454496553,0.8470406913955956
1970-01-01 00:00:00.000000047,-1.75,3.2760347358888917,0.45805826007248823,0.8470406913955956
1970-01-01 00:00:00.000000047,-1.9711538461538458,3.2660505540015383,0.18038347650752717,0.8470406913955956
1970-01-01 00:00:00.000000047,-2.2403846153846154,3.157330222152648,-0.08770439436925434,0.8470406913955956
1970-01-01 00:00:00.000000047,-2.5576923076923075,2.981865444119952,-0.29840212447739467,0.8470406913955956
1970-01-01 00:00:00.000000047,-2.865384615384615,2.853036769086052,-0.46915296652040167,0.8470406913955956
1970-01-01 00:00:00.000000047,-3.1057692307692304,2.8001273212034565,-0.6187279715734523,0.8470406913955956
1970-01-01 00:00:00.000000047,-3.3269230769230766,2.750400903407283,-0.7365022659628087,0.8470406913955956
1970-01-01 00:00:00.000000047,-3.509615384615384,2.7106970707931812,-0.7668332094223822,0.8470406913955956
1970-01-01 00:00:00.000000047,-3.644230769230769,2.6884200080086096,-0.7179943884415106,0.8470406913955956
1970-01-01 00:00:00.000000047,-3.7692307692307687,2.62664314543928,-0.6190152784984043,0.8470406913955956
1970-01-01 00:00:00.000000047,-3.951923076923077,2.480944918851956,-0.4954181310154076,0.8470406913955956
1970-01-01 00:00:00.000000047,-4.336538461538461,2.1088696635635267,-0.507274258917602,0.8470406913955956
1970-01-01 00:00:00.000000047,-4.836538461538462,1.4585359973632652,-0.45098685975984615,0.8470406913955956
1970-01-01 00:00:00.000000047,-5.249999999999999,0.7716022652446386,-0.4193709545982434,0.8470406913955956
1970-01-01 00:00:00.000000047,-6.057692307692307,-0.12527483575802628,-0.6220289143927281,0.8470406913955956
1970-01-01 00:00:00.000000047,-6.057692307692307,-0.1540228307113446,-0.6254097340054166,0.8470406913955956
1970-01-01 00:00:00.000000047,-6.374999999999999,-0.03334159344827813,-0.5140339037535198,0.8470406913955956
1970-01-01 00:00:00.000000047,-6.374999999999999,0.0037998076078347987,-0.5035056673396169,0.8470406913955956
1970-01-01 00:00:00.000000047,-5.903846153846153,0.8859363988598183,-0.3306191144161341,0.8470406913955956
1970-01-01 00:00:00.000000047,-5.028846153846154,2.166482961607258,-0.17321042189600455,0.8470406913955956
1970-01-01 00:00:00.000000047,-4.019230769230768,3.3591035645361504,-0.09606227677598841,0.8470406913955956
1970-01-01 00:00:00.000000047,-3.1826923076923075,4.0293132808688075,-0.17047105105568292,0.8470406913955956
1970-01-01 00:00:00.000000047,-2.3269230769230766,3.682355018921644,-0.25665610172745007,0.8470406913955956
1970-01-01 00:00:00.000000047,-2.3269230769230766,3.6442722300155856,-0.2592436955854679,0.8470406913955956
1970-01-01 00:00:00.000000047,-2.1057692307692304,2.96299519149917,-0.242923679080182,0.8470406913955956
1970-01-01 00:00:00.000000047,-1.8557692307692306,2.3565979404620063,-0.2996956395794464,0.8470406913955956
1970-01-01 00:00:00.000000047,-1.5576923076923077,1.9151492009749937,-0.34885858956487087,0.8470406913955956
1970-01-01 00:00:00.000000047,-1.2596153846153846,1.6024304858628298,-0.36948627867206846,0.8470406913955956
1970-01-01 00:00:00.000000047,-0.9615384615384615,1.3504739173214109,-0.3772709345809767,0.8470406913955956
1970-01-01 00:00:00.000000047,-0.7788461538461539,1.1103652818152636,-0.31682895501430264,0.8470406913955956
1970-01-01 00:00:00.000000047,-0.721153846153846,0.8793886916907036,-0.17711085080519343,0.8470406913955956
1970-01-01 00:00:00.000000047,-0.673076923076923,0.63312939383373,0.03483598327407949,0.8470406913955956
1970-01-01 00:00:00.000000047,-0.673076923076923,-0.03489505817999439,0.3676823992053399,0.8470406913955956
1970-01-01 00:00:00.000000047,-0.673076923076923,-0.07529596469358046,0.3925887952700975,0.8470406913955956
1970-01-01 00:00:00.000000047,-0.625,-0.49809598854667847,0.7322150730872925,0.8470406913955956
1970-01-01 00:00:00.000000047,-0.375,-0.8732957260667379,1.1272181780868016,0.8470406913955956
1970-01-01 00:00:00.000000047,-0.009615384615384614,-1.0808886152552442,1.452675735256357,0.8470406913955956
1970-01-01 00:00:00.000000047,0.9519230769230769,-1.0606968858248502,1.8450266738348429,0.8470406913955956
1970-01-01 00:00:00.000000047,0.9519230769230769,-1.057927302015712,1.8630444582844012,0.8470406913955956
1970-01-01 00:00:00.000000047,1.3653846153846152,-1.0033402685993749,1.9571736998439886,0.8470406913955956
1970-01-01 00:00:00.000000047,1.596153846153846,-1.03225995016741,1.9806454375032918,0.8470406913955956
1970-01-01 00:00:00.000000047,1.6634615384615383,-1.1176783859206925,2.020253112744887,0.8470406913955956
1970-01-01 00:00:00.000000047,1.7403846153846152,-1.145056469691285,2.066188606608667,0.8470406913955956
1970-01-01 00:00:00.000000047,1.8749999999999998,-1.0488462957440068,2.016839265689128,0.8470406913955956
1970-01-01 00:00:00.000000047,2.076923076923077,-0.9237935153968929,1.8884715669977925,0.8470406913955956
1970-01-01 00:00:00.000000047,2.3365384615384617,-0.8935786199721001,1.7218930432512718,0.8470406913955951
1970-01-01 00:00:00.000000047,2.5961538461538463,-0.9528292238498095,1.6026406007865475,0.8470406913955826
1970-01-01 00:00:00.000000047,2.846153846153846,-1.0828104239727576,1.5494031779855097,0.8470406913952441
1970-01-01 00:00:00.000000047,2.9807692307692304,-1.2830522234146433,1.481245204822215,0.8470406913861177
1970-01-01 00:00:00.000000047,3.0,-1.5595996082226111,1.4442173522142951,0.8470406911400434
1970-01-01 00:00:00.000000047,2.932692307692307,-1.8261371985958537,1.512623304963756,0.8470406845051662
1970-01-01 00:00:00.000000047,2.884615384615384,-1.9961047538654346,1.6466118818071196,0.8470405056095556
1970-01-01 00:00:00.000000047,2.7499999999999996,-2.0686911557708827,1.9458975038284778,0.8470356820629446
1970-01-01 00:00:00.000000047,2.6634615384615383,-2.1085564519484037,2.1426207215617765,0.8469056252000584
1970-01-01 00:00:00.000000047,2.6634615384615383,-2.1123330468360297,2.1548619783394973,0.8433989134487441
1970-01-01 00:00:00.000000047,2.548076923076923,-2.174435812624403,2.288652693604662,0.7488477530261407
1970-01-01 00:00:00.000000047,2.298076923076923,-2.347433894022852,2.3887607489863756,0.7453410412748264
1970-01-01 00:00:00.000000047,1.894230769230769,-2.7062793259926012,2.707887529027488,0.7452109844119402
1970-01-01 00:00:00.000000047,1.894230769230769,-2.722107907777374,2.7242025347557988,0.7452061608653292
1970-01-01 00:00:00.000000047,1.8076923076923075,-2.790634183996496,2.84558090937908,0.7452059819697185
1970-01-01 00:00:00.000000047,1.75,-2.8750150601280184,2.856482018479354,0.7452059753348413
1970-01-01 00:00:00.000000047,1.6249999999999998,-3.0847724394600036,2.7794335895634674,0.7452059750887672
1970-01-01 00:00:00.000000047,1.3749999999999998,-3.4138408052920814,2.688224899734271,0.7452059750796408
1970-01-01 00:00:00.000000047,1.0,-3.83892930342619,2.55263870326185,0.7452059750793023
1970-01-01 00:00:00.000000047,0.1346153846153846,-4.487250387215061,2.2330200883356786,0.7452059750792898
1970-01-01 00:00:00.000000047,-0.125,-4.566831151380469,1.9889036818014683,0.7452059750792892
1970-01-01 00:00:00.000000047,-0.125,-4.567190700057587,1.9673793203039622,0.7452059750792892
1970-01-01 00:00:00.000000047,-0.3365384615384615,-4.4973177501743615,1.630337966405509,0.7452059750792892
1970-01-01 00:00:00.000000047,-0.4807692307692307,-4.360388554650167,1.301745772644791,0.7452059750792892
1970-01-01 00:00:00.000000047,-0.5673076923076922,-4.233173225380143,1.01679789500385,0.7452059750792892
1970-01-01 00:00:00.000000047,-0.7403846153846153,-4.18528853061366,0.6517973924591606,0.7452059750792892
1970-01-01 00:00:00.000000047,-1.4028846153846153,-4.519617101188667,0.08173170139348478,0.7452059750792892
1970-01-01 00:00:00.000000047,-1.4038461538461537,-4.544373201480368,0.05495854516492755,0.7452059750792892
1970-01-01 00:00:00.000000047,-1.6346153846153844,-4.678459338781268,-0.09785098194044095,0.7452059750792892
1970-01-01 00:00:00.000000047,-1.5769230769230766,-4.524028945613851,-0.19693505755683277,0.7452059750792892
1970-01-01 00:00:00.000000047,-1.2307692307692306,-3.72032219279271,-0.4693955720940443,0.7452059750792892
1970-01-01 00:00:00.000000047,-1.2307692307692306,-3.67467025978933,-0.47674538898236374,0.7452059750792892
1970-01-01 00:00:00.000000047,-1.0384615384615385,-3.245774821519202,-0.4027299304297773,0.7452059750792892
1970-01-01 00:00:00.000000047,-1.0384615384615385,-3.2112499212291294,-0.39696273262162307,0.7452059750792892
1970-01-01 00:00:00.000000047,-0.8269230769230769,-2.7079730516672917,-0.3152638503540454,0.7452059750792892
1970-01-01 00:00:00.000000047,-0.46153846153846145,-1.9040224737877385,-0.3651612269376036,0.7452059750792892
1970-01-01 00:00:00.000000047,-0.11538461538461536,-0.4506337406016474,-0.7940892769612533,0.7452059750792892
1970-01-01 00:00:00.000000047,0.11538461538461536,-0.038088522456738966,-0.9752492510162338,0.7452059750792892
1970-01-01 00:00:00.000000047,-0.009615384615384614,0.17224363426969547,-1.0376405004770628,0.7452059750792892
1970-01-01 00:00:00.000000047,-0.009615384615384614,0.1886666477385167,-1.0410442618644589,0.7452059750792892
1970-01-01 00:00:00.000000047,-0.17307692307692304,0.4217558546702563,-1.0705545698633205,0.7452059750792892
1970-01-01 00:00:00.000000047,-0.3846153846153846,0.6987414283584027,-1.113929124445196,0.7452059750792892
1970-01-01 00:00:00.000000047,-0.7307692307692307,1.1942627110066155,-1.25553179015697,0.7452059750792892
1970-01-01 00:00:00.000000047,-0.735576923076923,1.296351768820219,-1.2854292097929931,0.7452059750792892
1970-01-01 00:00:00.000000047,-0.625,1.432235047139301,-1.3260568742538492,0.7452059750792892
1970-01-01 00:00:00.000000047,-0.43269230769230765,1.373994503940912,-1.268106395060936,0.7452059750792892
1970-01-01 00:00:00.000000047,0.22115384615384615,1.1656165592653291,-0.9128157923914206,0.7452059750792892
1970-01-01 00:00:00.000000047,0.5673076923076922,1.0976525962229757,-0.6279199995074216,0.7452059750792892
1970-01-01 00:00:00.000000048,0.8653846153846153,0.9710035387550117,-0.2910241943089632,0.7452059750792892
1970-01-01 00:00:00.000000048,1.158653846153846,0.6194429501623393,0.2702667531654144,0.7452059750792892
1970-01-01 00:00:00.000000048,1.442307692307692,0.2539561156281481,0.7132265297751486,0.7452059750792892
1970-01-01 00:00:00.000000048,1.442307692307692,0.23737217179766032,0.7368495507635946,0.7452059750792892
1970-01-01 00:00:00.000000048,1.894230769230769,0.15509252290868056,0.9317113408419073,0.7452059750792892
1970-01-01 00:00:00.000000048,2.1153846153846154,0.2001259467367155,0.9193566519679042,0.7452059750792892
1970-01-01 00:00:00.000000048,2.2884615384615383,0.24830803898263756,0.8909182622915022,0.7452059750792892
1970-01-01 00:00:00.000000048,2.2884615384615383,0.25419110579449844,0.885436429902653,0.7452059750792892
1970-01-01 00:00:00.000000048,2.413461538461538,0.3648518174688201,0.7658653450801277,0.7452059750792892
1970-01-01 00:00:00.000000048,2.5,0.596807965863644,0.5429278872607954,0.7452059750792892
1970-01-01 00:00:00.000000048,2.471153846153846,0.7489632608495688,0.3931876109613491,0.7452059750792892
1970-01-01 00:00:00.000000048,2.1249999999999996,0.7502000770747098,0.573137608695629,0.7452059750792892
1970-01-01 00:00:00.000000048,2.1249999999999996,0.7564388201675947,0.5815278238206341,0.7452059750792892
1970-01-01 00:00:00.000000048,1.6153846153846152,0.9236480674503486,0.6281136344614913,0.7452059750792892
1970-01-01 00:00:00.000000048,1.6153846153846152,0.9320590009918152,0.6275403066396296,0.7452059750792892
1970-01-01 00:00:00.000000048,1.25,0.9919449593286596,0.5654746448085052,0.7452059750792892
1970-01-01 00:00:00.000000048,0.9230769230769229,1.1004549008819933,0.39027510319001063,0.7452059750792892
1970-01-01 00:00:00.000000048,0.6346153846153846,1.2203373644851534,0.22195314132178154,0.7452059750792892
1970-01-01 00:00:00.000000048,0.4038461538461538,1.3486539402171462,0.10245971249809149,0.7452059750792892
1970-01-01 00:00:00.000000048,0.23076923076923073,1.4433190213777949,0.04445909612668861,0.7452059750792892
1970-01-01 00:00:00.000000048,-0.14423076923076922,1.6209596369833135,0.09793588292250117,0.7452059750792892
1970-01-01 00:00:00.000000048,-0.3461538461538461,1.8225911771716654,0.09980974278084304,0.7452059750792892
1970-01-01 00:00:00.000000048,-0.3461538461538461,1.8390021466516546,0.09692717216026075,0.7452059750792892
1970-01-01 00:00:00.000000048,-0.5384615384615384,2.0804667824230085,0.017223905546197033,0.7452059750792892
1970-01-01 00:00:00.000000048,-0.7788461538461539,2.3336009787695757,-0.1318817224129409,0.7452059750792892
1970-01-01 00:00:00.000000048,-1.1153846153846152,2.426759644355528,-0.3280304106956011,0.7452059750792892
1970-01-01 00:00:00.000000048,-2.008653846153846,2.188909418829685,-0.7249393663682895,0.7452059750792892
1970-01-01 00:00:00.000000048,-2.009615384615384,2.1737946640459658,-0.7453324812482135,0.7452059750792892
1970-01-01 00:00:00.000000048,-2.4038461538461537,2.0035465104113896,-0.8990376273334743,0.7452059750792892
1970-01-01 00:00:00.000000048,-2.7692307692307687,1.921961117061553,-1.0286834567555903,0.7452059750792892
1970-01-01 00:00:00.000000048,-3.1249999999999996,1.8894036502505445,-1.1254157050674631,0.7452059750792892
1970-01-01 00:00:00.000000048,-3.5,1.8419374397031514,-1.1075405800659146,0.7452059750792892
1970-01-01 00:00:00.000000048,-3.817307692307692,1.842907221734541,-1.0281799567122243,0.7452059750792892
1970-01-01 00:00:00.000000048,-4.038461538461538,1.9165575471294543,-0.9033182511641421,0.7452059750792892
1970-01-01 00:00:00.000000048,-4.336538461538461,1.9041465507607216,-0.8614128247196106,0.7452059750792892
1970-01-01 00:00:00.000000048,-4.846153846153846,1.4953993234100327,-0.8548280162653419,0.7452059750792892
1970-01-01 00:00:00.000000048,-5.692307692307692,0.2216351813101584,-0.468943614444619,0.7452059750792892
1970-01-01 00:00:00.000000048,-5.711538461538462,-0.011249428035752103,-0.3066495737393724,0.7452059750792892
1970-01-01 00:00:00.000000048,-5.711538461538462,-0.025369738275464265,-0.3105948765184362,0.7452059750792892
1970-01-01 00:00:00.000000048,-5.624999999999999,-0.17373350540178317,-0.579412092258405,0.7452059750792892
1970-01-01 00:00:00.000000048,-5.624999999999999,-0.16543490757268198,-0.583531614458498,0.7452059750792892
1970-01-01 00:00:00.000000048,-5.134615384615384,0.2069910009393699,-0.4259414981210417,0.7452059750792892
1970-01-01 00:00:00.000000048,-5.134615384615384,0.2541919329356683,-0.41688883480962774,0.7452059750792892
1970-01-01 00:00:00.000000048,-4.4326923076923075,1.1561911883236737,-0.33005704173890804,0.7452059750792892
1970-01-01 00:00:00.000000048,-2.6538461538461533,3.2129701518035203,-0.49465129214088915,0.7452059750792892
1970-01-01 00:00:00.000000048,-2.019230769230769,3.844002910371368,-0.7755278460650988,0.7452059750792892
1970-01-01 00:00:00.000000048,-1.6826923076923075,3.825108428223409,-0.9446005516167775,0.7452059750792892
1970-01-01 00:00:00.000000048,-1.5192307692307692,3.4339246516606794,-0.978687047587892,0.7452059750792904
1970-01-01 00:00:00.000000048,-1.5192307692307692,3.3908571666149356,-0.9799497332563065,0.7452059750793213
1970-01-01 00:00:00.000000048,-1.3076923076923077,2.6192188469425854,-0.9799557503323849,0.7452059750801528
1970-01-01 00:00:00.000000048,-1.3076923076923077,2.578051700834883,-0.9788555257180873,0.7452059751025768
1970-01-01 00:00:00.000000048,-1.2692307692307692,2.238177075599256,-0.9491434440559714,0.7452059757071915
1970-01-01 00:00:00.000000048,-1.2884615384615383,1.8527293403450222,-0.8980174637931411,0.745205992009363
1970-01-01 00:00:00.000000048,-1.3846153846153844,1.5355151137163414,-0.7973280783588382,0.7452064315633794
1970-01-01 00:00:00.000000048,-1.471153846153846,1.356178729996198,-0.6298406518954912,0.7452182832196517
1970-01-01 00:00:00.000000048,-1.5096153846153846,1.3313105961810041,-0.4583695228194259,0.7455378383849866
1970-01-01 00:00:00.000000048,-1.4903846153846152,1.3392073668909106,-0.24613646422900765,0.7541539761927551
1970-01-01 00:00:00.000000048,-1.4038461538461537,1.3272883098735755,0.06268498863622037,0.9864701418371733
1970-01-01 00:00:00.000000048,-1.2788461538461537,1.2475769996956256,0.4386311574069575,0.9950862796449419
1970-01-01 00:00:00.000000048,-1.1249999999999998,1.1072906819083175,0.7803562613516314,0.9954058348102767
1970-01-01 00:00:00.000000048,-0.9807692307692307,0.8992714118289473,1.1309878990870876,0.995417686466549
1970-01-01 00:00:00.000000048,-0.8076923076923076,0.6730374374732583,1.506317013999738,0.9954181260205655
1970-01-01 00:00:00.000000048,-0.5961538461538461,0.5227393999490263,1.7895714789058355,0.995418142322737
1970-01-01 00:00:00.000000048,-0.39423076923076916,0.4409263611504515,2.062112916457819,0.9954181429273515
1970-01-01 00:00:00.000000048,0.16346153846153846,0.3822723511131627,2.3874772654552716,0.9954181429497756
1970-01-01 00:00:00.000000048,0.16346153846153846,0.38042711890494196,2.399773250834522,0.9954181429506073
1970-01-01 00:00:00.000000048,0.5,0.3892598593202698,2.406400507076827,0.995418142950638
1970-01-01 00:00:00.000000048,1.0673076923076923,0.12958908274234196,2.323040440239797,0.9954181429506392
1970-01-01 00:00:00.000000048,1.0673076923076923,0.10964537472296433,2.3156913793976823,0.9954181429506392
1970-01-01 00:00:00.000000048,1.25,-0.1691639652223049,2.200626803497641,0.9954181429506392
1970-01-01 00:00:00.000000048,1.4038461538461537,-0.4270724357251969,2.1012323150386223,0.9954181429506392
1970-01-01 00:00:00.000000048,1.567307692307692,-0.6117917993580098,2.032645702545152,0.9954181429506392
1970-01-01 00:00:00.000000048,1.9134615384615383,-0.8413061469410662,2.030201653680478,0.9954181429506392
1970-01-01 00:00:00.000000048,1.9134615384615383,-0.8534741680507784,2.032798946827763,0.9954181429506392
1970-01-01 00:00:00.000000048,2.1057692307692304,-0.9524963904299502,2.105369910669121,0.9954181429506392
1970-01-01 00:00:00.000000048,2.442307692307692,-1.1139283735578773,2.3121886412384933,0.9954181429506392
1970-01-01 00:00:00.000000048,2.442307692307692,-1.123569695632736,2.323723402770211,0.9954181429506392
1970-01-01 00:00:00.000000048,2.5865384615384612,-1.2224534085259915,2.4283432335572104,0.9954181429506392
1970-01-01 00:00:00.000000048,2.6346153846153846,-1.382672334569038,2.491543903274458,0.9954181429506392
1970-01-01 00:00:00.000000048,2.5865384615384612,-1.6096996248380333,2.5933421548531554,0.9954181429506392
1970-01-01 00:00:00.000000048,2.5576923076923075,-1.8292175360578615,2.778694277760737,0.9954181429506392
1970-01-01 00:00:00.000000048,2.480769230769231,-2.0291738487242275,2.931403344686749,0.9954181429506392
1970-01-01 00:00:00.000000048,2.346153846153846,-2.2084763794962927,3.119196028781471,0.9954181429506392
1970-01-01 00:00:00.000000048,2.221153846153846,-2.349688397675673,3.286889432412971,0.9954181429506392
1970-01-01 00:00:00.000000048,2.0865384615384612,-2.4831103577468796,3.376818646368757,0.9954181429506392
1970-01-01 00:00:00.000000048,1.9134615384615383,-2.6942912614900707,3.387214019543459,0.9954181429506392
1970-01-01 00:00:00.000000048,1.7019230769230769,-3.012753702485037,3.3279598813046327,0.9954181429506392
1970-01-01 00:00:00.000000048,1.4326923076923075,-3.400058705605924,3.2177027756816234,0.9954181429506392
1970-01-01 00:00:00.000000048,1.0865384615384612,-3.7888313488749215,3.0500150620991895,0.9954181429506392
1970-01-01 00:00:00.000000048,0.7403846153846153,-4.148387714016955,2.882703900996499,0.9954181429506392
1970-01-01 00:00:00.000000048,0.3846153846153846,-4.467636929582853,2.5329902648062705,0.9954181429506392
1970-01-01 00:00:00.000000048,0.3846153846153846,-4.477809384720062,2.508033248772805,0.9954181429506392
1970-01-01 00:00:00.000000048,0.2788461538461538,-4.433216457858812,2.1839074520594774,0.9954181429506392
1970-01-01 00:00:00.000000048,-0.16346153846153846,-4.469034977467858,1.4574679568330768,0.9954181429506392
1970-01-01 00:00:00.000000048,-0.16346153846153846,-4.48072793377339,1.4177273824336025,0.9954181429506392
1970-01-01 00:00:00.000000048,-0.6346153846153846,-4.760619234413673,1.0711713688741888,0.9954181429506392
1970-01-01 00:00:00.000000049,-1.1538461538461537,-5.055991395395772,0.7538995771694939,0.9954181429506392
1970-01-01 00:00:00.000000049,-1.6346153846153844,-5.2511484412721705,0.5341172147021463,0.9954181429506392
1970-01-01 00:00:00.000000049,-1.9134615384615383,-5.225016518952846,0.417265219788455,0.9954181429506392
1970-01-01 00:00:00.000000049,-2.1249999999999996,-5.074297570454672,0.23204371958613784,0.9954181429506392
1970-01-01 00:00:00.000000049,-2.3365384615384617,-5.031017883323289,0.09791520903726675,0.9954181429506392
1970-01-01 00:00:00.000000049,-2.548076923076923,-5.013185279274111,0.1616669244200645,0.9954181429506392
1970-01-01 00:00:00.000000049,-2.1634615384615383,-4.324984657077735,0.7670917503044752,0.9954181429506392
1970-01-01 00:00:00.000000049,-2.1634615384615383,-4.261400461824741,0.7998103338007646,0.9954181429506392
1970-01-01 00:00:00.000000049,-1.4038461538461537,-3.2328278121902914,1.077787262316168,0.9954181429506392
1970-01-01 00:00:00.000000049,-0.6346153846153846,-2.0249504673131153,1.0504457487357666,0.9954181429506392
1970-01-01 00:00:00.000000049,-0.02884615384615384,-0.9408348052638236,0.7842479535495299,0.9954181429506392
1970-01-01 00:00:00.000000049,0.4423076923076923,0.37241072518988,-0.12575100289845942,0.9954181429506392
1970-01-01 00:00:00.000000049,0.36538461538461536,0.7459243853905847,-0.6795250318079323,0.9954181429506392
1970-01-01 00:00:00.000000049,0.36538461538461536,0.7675476803559048,-0.7214248559157137,0.9954181429506392
1970-01-01 00:00:00.000000049,0.2019230769230769,0.9778629842188448,-1.2989460779163395,0.9954181429506392
1970-01-01 00:00:00.000000049,-0.08653846153846152,1.3847528935529043,-2.3501192478254573,0.9954181429506392
1970-01-01 00:00:00.000000049,-0.08653846153846152,1.410465141709572,-2.4042736133709988,0.9954181429506392
1970-01-01 00:00:00.000000049,-0.09615384615384615,1.6978059326055384,-2.8152683131915,0.9954181429506392
1970-01-01 00:00:00.000000049,-0.01923076923076923,1.930295038639961,-3.1079708427995003,0.9954181429506392
1970-01-01 00:00:00.000000049,0.3269230769230769,1.9201601106734114,-3.099944442395012,0.9954181429506392
1970-01-01 00:00:00.000000049,0.3269230769230769,1.914027949542144,-3.090529101865826,0.9954181429506392
1970-01-01 00:00:00.000000049,0.5576923076923076,1.7585945269644778,-2.8443413079822903,0.9954181429506392
1970-01-01 00:00:00.000000049,0.798076923076923,1.5680242784987548,-2.4566862136560115,0.9954181429506392
1970-01-01 00:00:00.000000049,0.9903846153846153,1.3280609925018994,-1.9861864607300186,0.9954181429506392
1970-01-01 00:00:00.000000049,1.0769230769230769,1.0396225190525263,-1.4203482260544882,0.9954181429506392
1970-01-01 00:00:00.000000049,1.1346153846153844,0.7417470219163155,-0.8632156427411658,0.9954181429506392
1970-01-01 00:00:00.000000049,1.1538461538461537,0.4875470726879912,-0.38647412795698827,0.9954181429506392
1970-01-01 00:00:00.000000049,1.3173076923076923,0.17202394065944573,0.17841418790248245,0.9954181429506392
1970-01-01 00:00:00.000000049,1.3173076923076923,0.1570993251170449,0.20365720132401532,0.9954181429506392
1970-01-01 00:00:00.000000049,1.4519230769230769,0.06965783750076648,0.3203302478459311,0.9954181429506392
1970-01-01 00:00:00.000000049,1.7115384615384615,-0.02633771259634992,0.44525949051612357,0.9954181429506392
1970-01-01 00:00:00.000000049,1.7115384615384615,-0.030776077602214336,0.4516759960894048,0.9954181429506392
1970-01-01 00:00:00.000000049,1.7788461538461537,-0.05461638266343717,0.4999924038978056,0.9954181429506392
1970-01-01 00:00:00.000000049,1.8749999999999998,0.056133745689410756,0.5481189091513468,0.9954181429506392
1970-01-01 00:00:00.000000049,1.8749999999999998,0.07022751627752755,0.5492181431885549,0.9954181429506392
1970-01-01 00:00:00.000000049,1.923076923076923,0.3400091938038333,0.5307709569396333,0.9954181429506392
1970-01-01 00:00:00.000000049,1.923076923076923,0.3600207164259743,0.5315976941815436,0.9954181429506392
1970-01-01 00:00:00.000000049,1.8317307692307692,0.6305501496974733,0.5723667859620433,0.9954181429506392
1970-01-01 00:00:00.000000049,1.721153846153846,0.9148333254058055,0.5473055267936269,0.9954181429506392
1970-01-01 00:00:00.000000049,1.567307692307692,1.0699496362592762,0.4548824374658822,0.9954181429506392
1970-01-01 00:00:00.000000049,1.254807692307692,1.2238068535946507,0.23452028478519255,0.9954181429506392
1970-01-01 00:00:00.000000049,0.575,1.5978354107962918,-0.24783474826568275,0.9954181429506392
1970-01-01 00:00:00.000000049,0.25,1.9177492379052246,-0.42605848795862594,0.9954181429506392
1970-01-01 00:00:00.000000049,0.03846153846153846,2.1813940126447737,-0.505744426617217,0.9954181429506392
1970-01-01 00:00:00.000000049,-0.05769230769230768,2.2298891035036617,-0.47904103070623283,0.9954181429506392
1970-01-01 00:00:00.000000049,-0.03846153846153846,2.025611781954078,-0.1783634024510704,0.9954181429506392
1970-01-01 00:00:00.000000049,-0.05288461538461538,1.9616290092564408,-0.0867708354726679,0.9954181429506405
1970-01-01 00:00:00.000000049,-0.24038461538461536,1.8133714679698218,0.08555084468903724,0.9954181429506733
1970-01-01 00:00:00.000000049,-0.5096153846153846,1.7494006259287458,0.14664364207667355,0.995418142951559
1970-01-01 00:00:00.000000049,-0.8846153846153846,1.6704454321063182,0.12382749138114833,0.9954181429754367
1970-01-01 00:00:00.000000049,-1.7884615384615383,1.6026260409418476,-0.05330137478566872,0.9954181436192507
1970-01-01 00:00:00.000000049,-1.7884615384615383,1.600457673323565,-0.06296461059420398,0.9954181609783523
1970-01-01 00:00:00.000000049,-2.471153846153846,1.6097311387944035,-0.14674311125783887,0.9954186290302826
1970-01-01 00:00:00.000000049,-2.471153846153846,1.61228307412533,-0.14909939336744477,0.9954312490732966
1970-01-01 00:00:00.000000049,-2.721153846153846,1.6719118625895044,-0.12894050966317042,0.9957715221827463
1970-01-01 00:00:00.000000049,-2.9519230769230766,1.7793372157912934,-0.08229436753815632,1.0049462760948746
1970-01-01 00:00:00.000000049,-3.2307692307692304,1.8701929637754195,-0.0930074138670505,1.2523243586128898
1970-01-01 00:00:00.000000049,-3.644230769230769,1.7158728061450383,-0.17890580687220717,1.2614991125250183
1970-01-01 00:00:00.000000049,-4.1923076923076925,1.2083728021406126,-0.23744937168254354,1.261839385634468
1970-01-01 00:00:00.000000049,-4.653846153846153,0.6601928516515049,-0.23222722855646835,1.261852005677482
1970-01-01 00:00:00.000000049,-4.9230769230769225,0.36683419245001936,-0.2826857993421014,1.2618524737294123
1970-01-01 00:00:00.000000049,-5.096153846153846,0.2443303444990192,-0.4002893536802691,1.261852491088514
1970-01-01 00:00:00.000000049,-5.278846153846153,0.23008510902349916,-0.5251267500251628,1.261852491732328
1970-01-01 00:00:00.000000049,-5.326923076923077,0.46796759913545866,-0.5281328969991285,1.2618524917562057
1970-01-01 00:00:00.000000049,-5.096153846153846,1.1550400676338828,-0.48446146895130593,1.2618524917570915
1970-01-01 00:00:00.000000049,-4.576923076923077,2.2181142269793837,-0.5523267646861323,1.261852491757124
1970-01-01 00:00:00.000000049,-4.019230769230768,3.2340440608094654,-0.6783611775742648,1.2618524917571254
1970-01-01 00:00:00.000000049,-3.567307692307692,3.851075414876187,-0.7634250298190162,1.2618524917571254
1970-01-01 00:00:00.000000049,-3.221153846153846,3.9949921408475784,-0.6841146275391712,1.2618524917571254
1970-01-01 00:00:00.000000049,-2.8942307692307687,3.7637123880084395,-0.4576699137386065,1.2618524917571254
1970-01-01 00:00:00.000000049,-2.5576923076923075,3.3752423353802885,-0.17297304340320444,1.2618524917571254
1970-01-01 00:00:00.000000049,-2.2403846153846154,2.867830667259347,0.037397741852087406,1.2618524917571254
1970-01-01 00:00:00.000000049,-1.942307692307692,2.306185680622077,0.18271207340956414,1.2618524917571254
1970-01-01 00:00:00.000000049,-1.7115384615384615,1.3991827095367373,0.395828240206144,1.2618524917571254
1970-01-01 00:00:00.000000049,-1.5576923076923077,1.3467474768698275,0.404650412156323,1.2618524917571254
1970-01-01 00:00:00.000000049,-1.4807692307692306,0.9629991659486027,0.5297328880145764,1.2618524917571254
1970-01-01 00:00:00.000000049,-1.3653846153846152,0.6542300037424467,0.6481375642372382,1.2618524917571254
1970-01-01 00:00:00.000000049,-1.2115384615384615,0.45121093509745563,0.7199813463908556,1.2618524917571254
1970-01-01 00:00:00.000000049,-1.0288461538461537,0.2784652438888566,0.7913587883158658,1.2618524917571254
1970-01-01 00:00:00.000000049,-0.7788461538461539,0.06735064990167079,0.896705938137522,1.2618524917571254
1970-01-01 00:00:00.000000049,-0.2692307692307692,-0.45999769654374606,1.1697015413972274,1.2618524917571254
1970-01-01 00:00:00.000000049,-0.2692307692307692,-0.4872884565828157,1.1852356795876213,1.2618524917571254
1970-01-01 00:00:00.000000049,-0.01923076923076923,-0.6967906311922791,1.331661807468546,1.2618524917571254
1970-01-01 00:00:00.000000049,0.22115384615384615,-0.8260585856087233,1.5196331220631227,1.2618524917571254
1970-01-01 00:00:00.000000049,0.4807692307692307,-0.8567911802432494,1.6984324882357689,1.2618524917571254
1970-01-01 00:00:00.000000049,0.75,-0.8073032809590104,1.8380440603026371,1.2618524917571254
1970-01-01 00:00:00.000000049,1.0096153846153846,-0.6903974056500295,1.9287571399354289,1.2618524917571254
1970-01-01 00:00:00.000000049,1.2692307692307692,-0.5834266715917873,1.9883987179539413,1.2618524917571254
1970-01-01 00:00:00.000000049,1.5192307692307692,-0.562122727328227,2.0080082448209855,1.2618524917571254
1970-01-01 00:00:00.000000049,1.75,-0.5938869662703412,1.9778238922126723,1.2618524917571254
1970-01-01 00:00:00.000000049,1.9519230769230766,-0.7228253619709857,1.8932368449211712,1.2618524917571254
1970-01-01 00:00:00.000000049,2.2307692307692304,-0.9223978069462755,1.6395709206589546,1.2618524917571254
1970-01-01 00:00:00.000000049,2.2307692307692304,-0.9319154255784529,1.6251780128706064,1.2618524917571254
1970-01-01 00:00:00.000000049,2.355769230769231,-0.9893186836719523,1.4902354268474156,1.2618524917571254
1970-01-01 00:00:00.000000049,2.4615384615384612,-1.029689033564258,1.3611785120096143,1.2618524917571254
1970-01-01 00:00:00.000000050,2.519230769230769,-1.0622852225630128,1.2615843974121699,1.2618524917571254
1970-01-01 00:00:00.000000050,2.5865384615384612,-1.1520119756370875,1.2016002181189709,1.2618524917571254
1970-01-01 00:00:00.000000050,2.6249999999999996,-1.2920381196383528,1.181621491800043,1.2618524917571254
1970-01-01 00:00:00.000000050,2.5769230769230766,-1.4830172545984353,1.2021800604821884,1.2618524917571254
1970-01-01 00:00:00.000000050,2.490384615384615,-1.4994277545193997,1.277240141219047,1.2618524917571254
1970-01-01 00:00:00.000000050,2.490384615384615,-1.5015321174253533,1.2833037524320847,1.2618524917571254
1970-01-01 00:00:00.000000050,2.355769230769231,-1.5419394159651372,1.3719611744472364,1.2618524917571254
1970-01-01 00:00:00.000000050,2.2115384615384612,-1.63083211363335,1.5096479576432968,1.2618524917571254
1970-01-01 00:00:00.000000050,2.0865384615384612,-1.7405276521353112,1.6385336819217768,1.2618524917571254
1970-01-01 00:00:00.000000050,1.923076923076923,-1.8634144940200512,1.7307614542446828,1.2618524917571254
1970-01-01 00:00:00.000000050,1.7115384615384615,-2.071663686406068,1.8420255826846579,1.2618524917571254
1970-01-01 00:00:00.000000050,1.2019230769230769,-2.571505038943787,2.0039292782410763,1.2618524917571254
1970-01-01 00:00:00.000000050,1.2019230769230769,-2.6089723650761876,2.014064929824404,1.2618524917571254
1970-01-01 00:00:00.000000050,0.5288461538461539,-3.120748818113284,2.1258238270178462,1.2618524917571254
1970-01-01 00:00:00.000000050,0.5288461538461539,-3.1512457239824876,2.1331783996574463,1.2618524917571254
1970-01-01 00:00:00.000000050,0.28846153846153844,-3.462885729413882,2.219992963733202,1.2618524917571254
1970-01-01 00:00:00.000000050,-0.125,-4.346668970192332,2.3066316211389943,1.2618524917571254
1970-01-01 00:00:00.000000050,-0.125,-4.397176465779085,2.309060807019645,1.2618524917571254
1970-01-01 00:00:00.000000050,-0.25961538461538464,-4.877095605842944,2.2880101683914176,1.2618524917571254
1970-01-01 00:00:00.000000050,-0.39423076923076916,-5.284404891980425,2.2172137395486304,1.2618524917571254
1970-01-01 00:00:00.000000050,-0.41346153846153844,-5.551836477628527,2.076760799421606,1.2618524917571254
1970-01-01 00:00:00.000000050,-0.3461538461538461,-5.615180003989815,1.8553278448347286,1.2618524917571254
1970-01-01 00:00:00.000000050,-0.36538461538461536,-5.558023630096461,1.5170910111160614,1.2618524917571254
1970-01-01 00:00:00.000000050,-0.46153846153846145,-5.451458008614636,1.106129455298926,1.2618524917571254
1970-01-01 00:00:00.000000050,-1.1538461538461537,-5.381342602498689,0.34840428195494244,1.2618524917571254
1970-01-01 00:00:00.000000050,-1.1538461538461537,-5.344792258849984,0.30078615748452003,1.2618524917571254
1970-01-01 00:00:00.000000050,-1.2788461538461537,-4.428048386450872,-0.22717802987290336,1.2618524917571254
1970-01-01 00:00:00.000000050,-1.3653846153846152,-4.387514175323564,-0.2595929640529122,1.2618524917571254
1970-01-01 00:00:00.000000050,-1.5192307692307692,-4.034834347285336,-0.5318319995557264,1.2618524917571254
1970-01-01 00:00:00.000000050,-1.6826923076923075,-3.803013201380501,-0.5998710239516997,1.2618524917571254
1970-01-01 00:00:00.000000050,-1.692307692307692,-3.396522089988193,-0.41468564714016765,1.2618524917571254
1970-01-01 00:00:00.000000050,-1.3942307692307692,-2.653083228300707,-0.09664144883282781,1.2618524917571254
1970-01-01 00:00:00.000000050,-0.8269230769230769,-1.4867250741308917,0.3053665286538169,1.2618524917571254
1970-01-01 00:00:00.000000050,-0.22115384615384615,-0.23849377323336626,0.5915377224858839,1.2618524917571254
1970-01-01 00:00:00.000000050,0.2115384615384615,0.797393196830001,0.6661519784650465,1.2618524917571254
1970-01-01 00:00:00.000000050,0.45192307692307687,1.51811008764339,0.6445656960703711,1.2618524917571254
1970-01-01 00:00:00.000000050,0.5192307692307693,1.941579169541527,0.4871218154349724,1.2618524917571254
1970-01-01 00:00:00.000000050,0.3894230769230769,2.154527489977839,0.007723320673884076,1.2618524917571254
1970-01-01 00:00:00.000000050,0.30769230769230765,2.10566305986013,-0.6535921572401031,1.2618524917571254
1970-01-01 00:00:00.000000050,0.30769230769230765,1.9483751262456752,-1.1547115661566654,1.2618524917571254
1970-01-01 00:00:00.000000050,0.3461538461538461,1.7504653487730983,-1.52362012898986,1.2618524917571254
1970-01-01 00:00:00.000000050,0.4423076923076923,1.5641892906279793,-1.7330319165695562,1.2618524917571254
1970-01-01 00:00:00.000000050,0.7019230769230769,1.2326454981823431,-1.768241618388155,1.2618524917571254
1970-01-01 00:00:00.000000050,0.7019230769230769,1.2172391602952841,-1.7594917799106324,1.2618524917571254
1970-01-01 00:00:00.000000050,0.8942307692307692,1.1328118297903262,-1.488036439198922,1.2618524917571254
1970-01-01 00:00:00.000000050,0.8846153846153846,1.118680244043529,-1.167492078460265,1.2618524917571254
1970-01-01 00:00:00.000000050,0.7596153846153846,1.0715547593849601,-0.7842496792282312,1.2618524917571254
1970-01-01 00:00:00.000000050,0.7596153846153846,1.0632982593503935,-0.757249260701976,1.2618524917571254
1970-01-01 00:00:00.000000050,0.6057692307692307,0.8874982430756642,-0.4114803597251194,1.2618524917571254
1970-01-01 00:00:00.000000050,0.5192307692307693,0.649154303692538,-0.10272045187624944,1.2618524917571246
1970-01-01 00:00:00.000000050,0.5769230769230769,0.38966795662286174,0.3880281590663838,1.2618524917571037
1970-01-01 00:00:00.000000050,0.6826923076923076,0.3718805251247297,0.5794807466686116,1.2618524917565372
1970-01-01 00:00:00.000000050,0.798076923076923,0.4011062217448393,0.7579520009861286,1.261852491741264
1970-01-01 00:00:00.000000050,0.8846153846153846,0.45798746198592977,0.8852232799568593,1.261852491329455
1970-01-01 00:00:00.000000050,0.8846153846153846,0.4645552518752645,0.8930765578490745,1.261852480225888
1970-01-01 00:00:00.000000050,0.9134615384615383,0.585004338646212,0.9778437819681504,1.261852180841383
1970-01-01 00:00:00.000000050,0.9038461538461537,0.8305618915724607,1.0087055552909847,1.2618441085633136
1970-01-01 00:00:00.000000050,0.846153846153846,1.34016673381023,0.757206210888432,1.2616264564399484
1970-01-01 00:00:00.000000050,0.7884615384615383,1.6039399213037513,0.5608621386966818,1.2557579213871572
1970-01-01 00:00:00.000000050,0.6442307692307692,1.9662111413910515,0.1360715339219779,1.09752512708516
1970-01-01 00:00:00.000000050,0.6442307692307692,1.983760896254639,0.11306927719672165,1.0916565920323689
1970-01-01 00:00:00.000000050,0.5769230769230769,2.095333057484201,-0.0832010496104934,1.0914389399090039
1970-01-01 00:00:00.000000050,0.25961538461538464,2.090231655818782,-0.3594976166800433,1.0914308676309343
1970-01-01 00:00:00.000000050,0.25961538461538464,2.090921649622915,-0.37323460075067566,1.0914305682464294
1970-01-01 00:00:00.000000050,0.03846153846153846,2.114652883999916,-0.4678366035881993,1.0914305571428622
1970-01-01 00:00:00.000000050,-0.3461538461538461,2.254706218374817,-0.5083536961307047,1.0914305567310534
1970-01-01 00:00:00.000000050,-0.3461538461538461,2.262415012120148,-0.5077131919408272,1.0914305567157803
1970-01-01 00:00:00.000000050,-0.4711538461538461,2.3304991088691884,-0.44990248627162877,1.0914305567152136
1970-01-01 00:00:00.000000050,-0.5288461538461539,2.4110609273479393,-0.38965393739315013,1.0914305567151927
1970-01-01 00:00:00.000000050,-0.5384615384615384,2.518145929525174,-0.320753823343424,1.0914305567151918
1970-01-01 00:00:00.000000050,-0.5288461538461539,2.5788791698317532,-0.27069929287929817,1.0914305567151918
1970-01-01 00:00:00.000000050,-0.610576923076923,2.6115916559321692,-0.2381270843976257,1.0914305567151918
1970-01-01 00:00:00.000000050,-0.7692307692307692,2.5590955403368163,-0.28373198585659615,1.0914305567151918
1970-01-01 00:00:00.000000050,-0.8942307692307692,2.4839879331618673,-0.42263653373046917,1.0914305567151918
1970-01-01 00:00:00.000000050,-1.1923076923076923,2.258578655033591,-0.6274544248660717,1.0914305567151918
1970-01-01 00:00:00.000000050,-1.6057692307692306,1.872635752745084,-0.7686329376534689,1.0914305567151918
1970-01-01 00:00:00.000000050,-2.3365384615384617,1.5525866690836818,-0.8756348917775869,1.0914305567151918
1970-01-01 00:00:00.000000050,-2.4951923076923075,1.5472043125143247,-0.8735091403413773,1.0914305567151918
1970-01-01 00:00:00.000000050,-2.923076923076923,1.5969297688030857,-0.8341118974395996,1.0914305567151918
1970-01-01 00:00:00.000000050,-3.7019230769230766,1.3198994451689887,-0.8975120905278138,1.0914305567151918
1970-01-01 00:00:00.000000050,-3.7019230769230766,1.2903552507596112,-0.8987145468113714,1.0914305567151918
1970-01-01 00:00:00.000000050,-4.278846153846153,0.7696923253405134,-0.8677806733792137,1.0914305567151918
1970-01-01 00:00:00.000000050,-4.778846153846153,0.24133753343424724,-0.7813636344273991,1.0914305567151918
1970-01-01 00:00:00.000000050,-5.230769230769231,-0.2535789226158379,-0.7290374561605618,1.0914305567151918
1970-01-01 00:00:00.000000050,-6.10576923076923,-1.087968444061872,-0.6526476819077713,1.0914305567151918
1970-01-01 00:00:00.000000050,-6.10576923076923,-1.1215690670547038,-0.6424499553492645,1.0914305567151918
1970-01-01 00:00:00.000000050,-6.326923076923077,-1.1943963664151298,-0.44350111252236923,1.0914305567151918
1970-01-01 00:00:00.000000050,-6.086538461538461,-0.6271328261538027,-0.08208008275470366,1.0914305567151918
1970-01-01 00:00:00.000000050,-4.0480769230769225,2.011810060262456,0.2273388781453713,1.0914305567151918
1970-01-01 00:00:00.000000050,-4.0480769230769225,2.196004453240106,0.22022979267972834,1.0914305567151918
1970-01-01 00:00:00.000000050,-1.9048076923076922,4.530310177220411,-0.2811344757927065,1.0914305567151918
1970-01-01 00:00:00.000000050,-1.9134615384615383,4.622370331711003,-0.31086063908280187,1.0914305567151918
1970-01-01 00:00:00.000000050,-1.4519230769230769,4.7736887789766635,-0.6121027794429438,1.0914305567151918
1970-01-01 00:00:00.000000050,-1.3749999999999998,3.517226700658904,-0.7159144058766799,1.0914305567151918
1970-01-01 00:00:00.000000051,-1.3749999999999998,3.4414321388137434,-0.7175861792274136,1.0914305567151918
1970-01-01 00:00:00.000000051,-1.2980769230769231,2.6514410473121703,-0.6589124332634884,1.0914305567151918
1970-01-01 00:00:00.000000051,-1.1153846153846152,1.3974761386148526,-0.5730495188867697,1.0914305567151918
1970-01-01 00:00:00.000000051,-1.1153846153846152,1.3304146952888491,-0.5634245766792935,1.0914305567151918
1970-01-01 00:00:00.000000051,-1.096153846153846,0.7737206341840719,-0.3894140514541543,1.0914305567151918
1970-01-01 00:00:00.000000051,-1.0769230769230769,0.31004242768109225,-0.20075481258287287,1.0914305567151918
1970-01-01 00:00:00.000000051,-1.0096153846153846,-0.15257508679458137,0.21903411171658618,1.0914305567151918
1970-01-01 00:00:00.000000051,-0.7115384615384615,-0.2795697711347889,0.439675828930699,1.0914305567151918
1970-01-01 00:00:00.000000051,-0.49038461538461536,-0.39580873384472004,0.6522132694122865,1.0914305567151918
1970-01-01 00:00:00.000000051,-0.49038461538461536,-0.407266042672652,0.6700824452010381,1.0914305567151918
1970-01-01 00:00:00.000000051,-0.25,-0.6003744183168835,0.9400127510157437,1.0914305567151918
1970-01-01 00:00:00.000000051,0.18269230769230768,-1.0528432518832074,1.4602618322240397,1.0914305567151918
1970-01-01 00:00:00.000000051,0.18269230769230768,-1.0763933825297145,1.4870567190333295,1.0914305567151918
1970-01-01 00:00:00.000000051,0.375,-1.25977807641908,1.690269581675856,1.0914305567151918
1970-01-01 00:00:00.000000051,0.5,-1.4376146807854442,1.9002219862147804,1.0914305567151918
1970-01-01 00:00:00.000000051,0.673076923076923,-1.555818304787915,2.115724046123218,1.0914305567151918
1970-01-01 00:00:00.000000051,0.9134615384615383,-1.5694795484882589,2.2243272591120906,1.0914305567151918
1970-01-01 00:00:00.000000051,1.471153846153846,-1.570129504395076,2.1911119499032283,1.0914305567151918
1970-01-01 00:00:00.000000051,1.471153846153846,-1.5740170701787917,2.1856953882750836,1.0914305567151918
1970-01-01 00:00:00.000000051,1.7596153846153846,-1.678331390432297,2.0726635335240298,1.0914305567151918
1970-01-01 00:00:00.000000051,2.2499999999999996,-1.9909304714932305,1.7762200168737203,1.0914305567151918
1970-01-01 00:00:00.000000051,2.423076923076923,-2.0767913398849296,1.6352769220664185,1.0914305567151918
1970-01-01 00:00:00.000000051,2.423076923076923,-2.082435705399858,1.6262568789195775,1.0914305567151918
1970-01-01 00:00:00.000000051,2.5576923076923075,-2.148972705911242,1.5236588087621765,1.0914305567151918
1970-01-01 00:00:00.000000051,2.6634615384615383,-2.189827354203671,1.5125309576591894,1.0914305567151918
1970-01-01 00:00:00.000000051,2.721153846153846,-2.2263658575878806,1.5646770480359353,1.0914305567151918
1970-01-01 00:00:00.000000051,2.7403846153846154,-2.1720508006691084,1.7337493393110674,1.0914305567151918
1970-01-01 00:00:00.000000051,2.7403846153846154,-2.169005760478051,1.7465551133628885,1.0914305567151918
1970-01-01 00:00:00.000000051,2.6538461538461533,-2.141104732238282,1.9232387214869247,1.0914305567151918
1970-01-01 00:00:00.000000051,2.6538461538461533,-2.1408220099555675,1.9308903667840758,1.0914305567151918
1970-01-01 00:00:00.000000051,2.5961538461538463,-2.161089536562042,1.9608011816831226,1.0914305567151918
1970-01-01 00:00:00.000000051,2.5288461538461533,-2.208595477219562,2.0107415386602376,1.0914305567151918
1970-01-01 00:00:00.000000051,2.519230769230769,-2.2209883483661286,2.0792203621432996,1.0914305567151918
1970-01-01 00:00:00.000000051,2.5384615384615383,-2.258089928665906,2.128208239208853,1.0914305567151918
1970-01-01 00:00:00.000000051,2.548076923076923,-2.2474397256133356,2.132402096495744,1.0914305567151918
1970-01-01 00:00:00.000000051,2.567307692307692,-2.1727826628941544,1.9466483661762364,1.0914305567151918
1970-01-01 00:00:00.000000051,2.567307692307692,-2.1676921725288287,1.927103790262638,1.0914305567151918
1970-01-01 00:00:00.000000051,2.490384615384615,-2.1049059953842266,1.5851539709149862,1.0914305567151918
1970-01-01 00:00:00.000000051,2.3365384615384617,-2.1647697028452875,1.3720534244419909,1.0914305567151918
1970-01-01 00:00:00.000000051,2.1249999999999996,-2.3438759814385333,1.2102884890187664,1.0914305567151918
1970-01-01 00:00:00.000000051,1.9134615384615383,-2.619881795995116,1.0557357790647042,1.0914305567151918
1970-01-01 00:00:00.000000051,1.9134615384615383,-2.6429325104296,1.0445775457282431,1.0914305567151918
1970-01-01 00:00:00.000000051,1.6538461538461537,-2.9892959856040915,0.8978579555978626,1.0914305567151918
1970-01-01 00:00:00.000000051,1.0192307692307692,-3.568059100880871,0.6975872554140478,1.0914305567151918
1970-01-01 00:00:00.000000051,1.0192307692307692,-3.598299738179431,0.6869979405814295,1.0914305567151918
1970-01-01 00:00:00.000000051,0.5576923076923076,-3.836033829963771,0.6013571402845489,1.0914305567151918
1970-01-01 00:00:00.000000051,0.10576923076923075,-3.9746136708423956,0.5496448471013897,1.0914305567151918
1970-01-01 00:00:00.000000051,-0.2019230769230769,-3.978535282780915,0.4890537314529729,1.0914305567151918
1970-01-01 00:00:00.000000051,-0.41346153846153844,-3.9458389642423004,0.404805902128878,1.0914305567151918
1970-01-01 00:00:00.000000051,-0.673076923076923,-4.059116751761187,0.19070562602673344,1.0914305567151918
1970-01-01 00:00:00.000000051,-1.0576923076923077,-4.400313333309746,-0.005753999407075142,1.0914305567151918
1970-01-01 00:00:00.000000051,-1.5,-4.749343247601943,-0.09606361001776217,1.0914305567151914
1970-01-01 00:00:00.000000051,-1.8653846153846152,-4.831954351942733,-0.08796347107250334,1.0914305567151816
1970-01-01 00:00:00.000000051,-2.365384615384615,-4.2134242548518674,-0.27895010893982786,1.0914305567149147
1970-01-01 00:00:00.000000051,-2.6730769230769225,-3.9305005290577046,-0.44368947030284894,1.091430556707718
1970-01-01 00:00:00.000000051,-2.6730769230769225,-3.9100900297061663,-0.450665589237093,1.091430556513678
1970-01-01 00:00:00.000000051,-2.942307692307692,-3.6419302730087897,-0.47428143909866083,1.0914305512817888
1970-01-01 00:00:00.000000051,-3.0288461538461533,-3.17202734153116,-0.35493326642674955,1.0914304102148253
1970-01-01 00:00:00.000000051,-2.1249999999999996,-1.502807948332526,0.1410832455764229,1.091426606638699
1970-01-01 00:00:00.000000051,-2.1249999999999996,-1.403787263447046,0.16418089699016505,1.0913240511502538
1970-01-01 00:00:00.000000051,-1.5384615384615383,-0.39944816473771727,0.2918009731580329,1.0885588565383573
1970-01-01 00:00:00.000000051,-1.1826923076923075,0.3686868155286758,0.2144453782767226,1.0140011575055983
1970-01-01 00:00:00.000000051,-1.1442307692307692,0.8539921840119648,-0.0017757596865227293,1.0112359628937018
1970-01-01 00:00:00.000000051,-1.2788461538461537,1.1891021527943733,-0.2623908898128358,1.0111334074052565
1970-01-01 00:00:00.000000051,-1.4807692307692306,1.5017659414361122,-0.5827782652600434,1.0111296038291302
1970-01-01 00:00:00.000000051,-1.6249999999999998,1.8585782659806542,-0.9726222722083376,1.0111294627621668
1970-01-01 00:00:00.000000051,-1.5576923076923077,2.429847240041548,-1.6780230843650725,1.0111294575302776
1970-01-01 00:00:00.000000051,-1.3076923076923077,2.4972972151411366,-1.8340010056486225,1.0111294573362375
1970-01-01 00:00:00.000000051,-1.3076923076923077,2.497177568769143,-1.8400040681477345,1.011129457329041
1970-01-01 00:00:00.000000051,-0.9326923076923076,2.4264971416257204,-1.8461088343402083,1.011129457328774
1970-01-01 00:00:00.000000051,-0.46153846153846145,2.2682452551253016,-1.754934459037885,1.0111294573287641
1970-01-01 00:00:00.000000051,0.02884615384615384,1.81612474675743,-1.537121559682687,1.0111294573287637
1970-01-01 00:00:00.000000051,0.9326923076923076,1.4921229073253095,-1.4723476523946717,1.0111294573287637
1970-01-01 00:00:00.000000051,0.9326923076923076,1.4711937510259296,-1.46626505497345,1.0111294573287637
1970-01-01 00:00:00.000000051,1.1826923076923075,1.2301083703747886,-1.3668088318884783,1.0111294573287637
1970-01-01 00:00:00.000000051,1.3365384615384612,0.9917322490933672,-1.1875734060154612,1.0111294573287637
1970-01-01 00:00:00.000000051,1.471153846153846,0.5466623551461262,-0.447673130528973,1.0111294573287637
1970-01-01 00:00:00.000000051,1.471153846153846,0.5181513398520413,-0.3996011182668127,1.0111294573287637
1970-01-01 00:00:00.000000051,1.567307692307692,0.19342382085898857,0.15844293732502882,1.0111294573287637
1970-01-01 00:00:00.000000051,1.7403846153846152,-0.045708176659349516,0.6775604260425905,1.0111294573287637
1970-01-01 00:00:00.000000051,1.9711538461538458,-0.17754459066142547,1.135688565824912,1.0111294573287637
1970-01-01 00:00:00.000000051,2.192307692307692,-0.2479957711991383,1.4860308512300335,1.0111294573287637
1970-01-01 00:00:00.000000051,2.365384615384615,-0.26834123171530805,1.7371444173859902,1.0111294573287637
1970-01-01 00:00:00.000000051,2.519230769230769,-0.24721748511417885,1.9168684181916995,1.0111294573287637
1970-01-01 00:00:00.000000051,2.6538461538461533,-0.15653086636752034,2.018302873789896,1.0111294573287637
1970-01-01 00:00:00.000000051,2.6634615384615383,0.020884093191129383,2.077309174135494,1.0111294573287637
1970-01-01 00:00:00.000000051,2.5769230769230766,0.2204013825280142,2.0690448278684417,1.0111294573287637
1970-01-01 00:00:00.000000051,2.413461538461538,0.42995323506525407,2.036901178312444,1.0111294573287637
1970-01-01 00:00:00.000000051,2.2115384615384612,0.6383359642338459,1.9272869865675526,1.0111294573287637
1970-01-01 00:00:00.000000051,2.0,0.8051177992485854,1.7498474590114772,1.0111294573287637
1970-01-01 00:00:00.000000051,1.7692307692307692,0.849844615477959,1.5685944067423352,1.0111294573287637
1970-01-01 00:00:00.000000051,1.5096153846153846,0.8906868186563076,1.352201523031568,1.0111294573287637
1970-01-01 00:00:00.000000051,1.173076923076923,0.9486994882423454,1.190846715110003,1.0111294573287637
1970-01-01 00:00:00.000000051,0.8173076923076922,0.9741993638870171,1.050659784938516,1.0111294573287637
1970-01-01 00:00:00.000000051,0.43269230769230765,1.104683336707119,0.9269674782299249,1.0111294573287637
1970-01-01 00:00:00.000000051,0.0673076923076923,1.352250727205193,0.727462127269455,1.0111294573287637
1970-01-01 00:00:00.000000051,-0.23076923076923073,1.6560862978330864,0.4645099580453636,1.0111294573287637
1970-01-01 00:00:00.000000051,-0.6442307692307692,2.3620793142881458,0.06430673995536201,1.0111294573287637
1970-01-01 00:00:00.000000051,-0.8846153846153846,2.620055187946855,0.021772020749411734,1.0111294573287637
1970-01-01 00:00:00.000000051,-0.8846153846153846,2.6294107602769423,0.023537820278754826,1.0111294573287637
1970-01-01 00:00:00.000000052,-1.1153846153846152,2.624035339530589,0.11374912677696866,1.0111294573287637
1970-01-01 00:00:00.000000052,-1.3365384615384612,2.469543407048969,0.2976886026993992,1.0111294573287637
1970-01-01 00:00:00.000000052,-1.5288461538461537,2.3036366507915735,0.42384314610680907,1.0111294573287637
1970-01-01 00:00:00.000000052,-1.7307692307692306,2.228646164323527,0.39607634218444643,1.0111294573287637
1970-01-01 00:00:00.000000052,-2.019230769230769,2.1198097859436626,0.27021809287324305,1.0111294573287637
1970-01-01 00:00:00.000000052,-2.346153846153846,2.0062180561553684,0.14981216539311598,1.0111294573287637
1970-01-01 00:00:00.000000052,-2.942307692307692,1.798077730251292,0.024710372740889157,1.0111294573287637
1970-01-01 00:00:00.000000052,-2.942307692307692,1.7918806606295181,0.017367898610891472,1.0111294573287637
1970-01-01 00:00:00.000000052,-3.1874999999999996,1.8327001067456967,-0.055777110246819465,1.0111294573287637
1970-01-01 00:00:00.000000052,-3.5769230769230766,1.6910222215042943,-0.14834987527501695,1.0111294573287637
1970-01-01 00:00:00.000000052,-3.8269230769230766,1.3248998738702475,-0.19966952217863812,1.0111294573287637
1970-01-01 00:00:00.000000052,-3.975961538461538,1.0812743729923924,-0.24272722354821197,1.0111294573287637
1970-01-01 00:00:00.000000052,-4.355769230769231,0.4945081969243473,-0.3539655136230858,1.0111294573287637
1970-01-01 00:00:00.000000052,-4.721153846153846,0.020446943964984754,-0.5643416442751055,1.0111294573287637
1970-01-01 00:00:00.000000052,-5.009615384615384,-0.19244070986975836,-0.6332588818047626,1.0111294573287637
1970-01-01 00:00:00.000000052,-5.076923076923077,0.2836538895515406,-0.5336481644534862,1.0111294573287637
1970-01-01 00:00:00.000000052,-4.533653846153846,1.3510957277613542,-0.5252415584393617,1.0111294573287637
1970-01-01 00:00:00.000000052,-3.9903846153846154,2.445930760005019,-0.5228739134092796,1.0111294573287637
1970-01-01 00:00:00.000000052,-3.365384615384615,3.6890347923741644,-0.592354103611187,1.0111294573287637
1970-01-01 00:00:00.000000052,-2.884615384615384,4.658008634097416,-0.7206868840927715,1.0111294573287637
1970-01-01 00:00:00.000000052,-2.5865384615384612,5.077198328256075,-0.8661917668936446,1.0111294573287637
1970-01-01 00:00:00.000000052,-2.3846153846153846,4.9263462288166115,-0.9164908220356346,1.0111294573287637
1970-01-01 00:00:00.000000052,-2.1730769230769225,4.434149849792431,-0.8790604280684857,1.0111294573287637
1970-01-01 00:00:00.000000052,-2.048076923076923,3.795699715579012,-0.8181407358134787,1.0111294573287637
1970-01-01 00:00:00.000000052,-1.9519230769230766,3.0497424708409007,-0.7107394388954376,1.0111294573287637
1970-01-01 00:00:00.000000052,-1.9134615384615383,2.2973469971253095,-0.6218241143633374,1.0111294573287637
1970-01-01 00:00:00.000000052,-1.8461538461538458,1.7286264515424594,-0.5785116489146742,1.0111294573287637
1970-01-01 00:00:00.000000052,-1.7307692307692306,1.375567194521097,-0.49799040633286845,1.0111294573287637
1970-01-01 00:00:00.000000052,-1.6153846153846152,1.1616878005271551,-0.3672293220727735,1.0111294573287637
1970-01-01 00:00:00.000000052,-1.5096153846153846,0.9900034197120935,-0.16720128963201544,1.0111294573287637
1970-01-01 00:00:00.000000052,-1.3846153846153844,0.8184045316993683,0.10279450200835709,1.0111294573287637
1970-01-01 00:00:00.000000052,-1.2788461538461537,0.6069189361708548,0.4426528438576568,1.0111294573287637
1970-01-01 00:00:00.000000052,-1.1826923076923075,0.3184067449137127,0.848832282148374,1.0111294573287637
1970-01-01 00:00:00.000000052,-0.9903846153846153,-0.009936823500612358,1.2258187741484436,1.0111294573287637
1970-01-01 00:00:00.000000052,-0.7788461538461539,-0.3367009794302464,1.4982746198596033,1.0111294573287637
1970-01-01 00:00:00.000000052,-0.5096153846153846,-0.5809896211160399,1.7275959620608452,1.0111294573287637
1970-01-01 00:00:00.000000052,-0.2115384615384615,-0.8500187907028324,1.8968163557832192,1.0111294573287637
1970-01-01 00:00:00.000000052,0.07692307692307691,-1.1195177278604345,1.986445644086076,1.0111294573287637
1970-01-01 00:00:00.000000052,0.39423076923076916,-1.3769598615288972,1.9872160345408354,1.0111294573287637
1970-01-01 00:00:00.000000052,0.6826923076923076,-1.558398533419794,1.9183872885164794,1.0111294573287637
1970-01-01 00:00:00.000000052,0.9326923076923076,-1.6998005408055425,1.8092407554041152,1.0111294573287637
1970-01-01 00:00:00.000000052,1.1538461538461537,-1.8362160683298556,1.6811131073946313,1.0111294573287637
1970-01-01 00:00:00.000000052,1.3653846153846152,-1.8780333041005577,1.5808131442509328,1.0111294573287637
1970-01-01 00:00:00.000000052,1.6057692307692306,-1.8706831423852088,1.5008417873805522,1.0111294573287637
1970-01-01 00:00:00.000000052,1.8461538461538458,-1.8804115403000776,1.441915115023979,1.0111294573287637
1970-01-01 00:00:00.000000052,2.067307692307692,-1.900428445716886,1.430866318266886,1.0111294573287637
1970-01-01 00:00:00.000000052,2.2788461538461537,-1.931156494055849,1.4414754781819406,1.0111294573287637
1970-01-01 00:00:00.000000052,2.490384615384615,-1.9907968937910387,1.488971592645513,1.0111294573287617
1970-01-01 00:00:00.000000052,2.644230769230769,-2.0703596383021985,1.5107575232469102,1.0111294573287073
1970-01-01 00:00:00.000000052,2.692307692307692,-2.1589133403683323,1.5514815350210642,1.0111294573272411
1970-01-01 00:00:00.000000052,2.7307692307692304,-2.2203005516427687,1.6292439223218185,1.011129457287713
1970-01-01 00:00:00.000000052,2.7692307692307687,-2.2892015539864126,1.6881043676680372,1.0111294562219169
1970-01-01 00:00:00.000000052,2.721153846153846,-2.3381414059903705,1.6995740047151884,1.0111294274849527
1970-01-01 00:00:00.000000052,2.721153846153846,-2.3406164077535916,1.700393759642051,1.011128652652716
1970-01-01 00:00:00.000000052,2.6346153846153846,-2.3585016033566046,1.7110575056201887,1.011107760919284
1970-01-01 00:00:00.000000052,2.509615384615384,-2.338926882874734,1.7481588921030424,1.0105444589488586
1970-01-01 00:00:00.000000052,2.3846153846153846,-2.2925242342612218,1.7392325811619609,0.9953561974808057
1970-01-01 00:00:00.000000052,1.8749999999999998,-2.309227442178255,1.711120799269906,0.9947928955103803
1970-01-01 00:00:00.000000052,1.8749999999999998,-2.306616704551653,1.711028999125505,0.9947720037769484
1970-01-01 00:00:00.000000052,1.6153846153846152,-2.219423580716378,1.7366621771187283,0.9947712289447115
1970-01-01 00:00:00.000000052,1.3653846153846152,-2.1178199747905486,1.6788497830801594,0.9947712002077473
1970-01-01 00:00:00.000000052,1.096153846153846,-2.211715738628438,1.5922819660455754,0.9947711991419513
1970-01-01 00:00:00.000000052,0.875,-2.5985049681772696,1.5627633001503725,0.9947711991024231
1970-01-01 00:00:00.000000052,0.673076923076923,-3.197918402157848,1.6023271380144806,0.994771199100957
1970-01-01 00:00:00.000000052,0.5769230769230769,-3.7452918900846246,1.7000694262406024,0.9947711991009027
1970-01-01 00:00:00.000000052,0.5,-4.174962630127022,1.7995473704817844,0.9947711991009007
1970-01-01 00:00:00.000000052,0.3461538461538461,-4.478699123344989,1.8877095767675705,0.9947711991009006
1970-01-01 00:00:00.000000052,-0.07692307692307691,-4.749913700187678,1.9186112022426187,0.9947711991009006
1970-01-01 00:00:00.000000052,-0.07692307692307691,-4.768970781722318,1.914792883783132,0.9947711991009006
1970-01-01 00:00:00.000000052,-0.5576923076923076,-5.012297406314916,1.7807966599019485,0.9947711991009006
1970-01-01 00:00:00.000000052,-1.0576923076923077,-5.313059188780431,1.6667169335694738,0.9947711991009006
1970-01-01 00:00:00.000000052,-1.442307692307692,-5.440300690756712,1.4705605464738478,0.9947711991009006
1970-01-01 00:00:00.000000052,-1.5576923076923077,-5.325059461650798,1.2884178212244166,0.9947711991009006
1970-01-01 00:00:00.000000052,-1.5480769230769231,-5.086304773814822,1.0667206265853952,0.9947711991009006
1970-01-01 00:00:00.000000052,-1.721153846153846,-5.0051694313494055,0.7630390965812515,0.9947711991009006
1970-01-01 00:00:00.000000052,-2.0576923076923075,-5.0532698726191345,0.5353349811083925,0.9947711991009006
1970-01-01 00:00:00.000000052,-2.2788461538461537,-4.933117129367228,0.44100539334534705,0.9947711991009006
1970-01-01 00:00:00.000000052,-2.2788461538461537,-4.390892620296018,0.37181063921597823,0.9947711991009006
1970-01-01 00:00:00.000000052,-1.9134615384615383,-3.3709836186252766,0.3478818654860654,0.9947711991009006
1970-01-01 00:00:00.000000052,-1.3653846153846152,-2.1256650825864547,0.2709997289077881,0.9947711991009006
1970-01-01 00:00:00.000000052,-0.846153846153846,-1.0219736112089954,0.2191108150242124,0.9947711991009006
1970-01-01 00:00:00.000000052,-0.5576923076923076,-0.21762242005641907,0.1449922767459467,0.9947711991009006
1970-01-01 00:00:00.000000052,-0.5,0.3961682696856791,-0.05431934288365124,0.9947711991009006
1970-01-01 00:00:00.000000052,-0.5961538461538461,0.9141657015697522,-0.3616145346045305,0.9947711991009006
1970-01-01 00:00:00.000000052,-0.7884615384615383,1.2863056726976299,-0.709273091438673,0.9947711991009006
1970-01-01 00:00:00.000000052,-0.9038461538461537,1.5660874612662514,-1.0387589342396426,0.9947711991009006
1970-01-01 00:00:00.000000052,-0.9326923076923076,1.748055781491157,-1.3372181330316746,0.9947711991009006
1970-01-01 00:00:00.000000052,-0.9423076923076922,1.881418638994985,-1.566130657615567,0.9947711991009006
1970-01-01 00:00:00.000000052,-0.9134615384615383,2.050247471373441,-1.6983096225886327,0.9947711991009006
1970-01-01 00:00:00.000000052,-0.8269230769230769,2.2252630880879263,-1.7882291522775184,0.9947711991009006
1970-01-01 00:00:00.000000052,-0.673076923076923,2.281855907000564,-1.8338774889043683,0.9947711991009006
1970-01-01 00:00:00.000000052,-0.41346153846153844,2.13484640092731,-1.726463048140423,0.9947711991009006
1970-01-01 00:00:00.000000052,-0.0673076923076923,1.8589969180368027,-1.5306248108870535,0.9947711991009006
1970-01-01 00:00:00.000000052,0.2788461538461538,1.5580703860663592,-1.350406845810024,0.9947711991009006
1970-01-01 00:00:00.000000052,0.5865384615384615,1.2089035057548903,-1.1803600259835927,0.9947711991009006
1970-01-01 00:00:00.000000053,0.8076923076923076,0.8323242693156763,-1.0193138557469839,0.9947711991009006
1970-01-01 00:00:00.000000053,0.9903846153846153,0.5138517657683713,-0.8411140791849714,0.9947711991009006
1970-01-01 00:00:00.000000053,1.173076923076923,0.2916734064303489,-0.6907662822472458,0.9947711991009006
1970-01-01 00:00:00.000000053,1.3557692307692306,0.11133020785104895,-0.5595755414906669,0.9947711991009006
1970-01-01 00:00:00.000000053,1.5,-0.035757794452026266,-0.41777333800075805,0.9947711991009006
1970-01-01 00:00:00.000000053,1.6538461538461537,-0.07679065805575769,-0.2203045845298017,0.9947711991009006
1970-01-01 00:00:00.000000053,1.7884615384615383,-0.03758997305343148,-0.030450444303888307,0.9947711991009006
1970-01-01 00:00:00.000000053,1.8846153846153844,0.06186138561310776,0.14814258832481708,0.9947711991009006
1970-01-01 00:00:00.000000053,1.9615384615384615,0.20784738460734098,0.2803003290739495,0.9947711991009006
1970-01-01 00:00:00.000000053,1.9615384615384615,0.30001799878509866,0.41996629667181734,0.9947711991009006
1970-01-01 00:00:00.000000053,1.923076923076923,0.39263858259032375,0.5587896810651196,0.9947711991009006
1970-01-01 00:00:00.000000053,1.894230769230769,0.5512237311536425,0.6673550920864119,0.9947711991009006
1970-01-01 00:00:00.000000053,1.894230769230769,0.7404021585580253,0.7097978052680005,0.9947711991009006
1970-01-01 00:00:00.000000053,1.894230769230769,0.9396345499130402,0.7471856501496019,0.9947711991009006
1970-01-01 00:00:00.000000053,1.8653846153846152,1.1297306890940626,0.714214748771252,0.9947711991009006
1970-01-01 00:00:00.000000053,1.5096153846153846,1.3130940556266495,0.5366125666742044,0.9947711991009006
1970-01-01 00:00:00.000000053,1.5096153846153846,1.323808812825469,0.5243245514322646,0.9947711991009006
1970-01-01 00:00:00.000000053,1.2115384615384615,1.429743890661011,0.37015032199694,0.9947711991009006
1970-01-01 00:00:00.000000053,0.8846153846153846,1.529276235021831,0.21973414248511486,0.9947711991009006
1970-01-01 00:00:00.000000053,0.5865384615384615,1.6107144549284258,0.06267152510116115,0.9947711991009006
1970-01-01 00:00:00.000000053,0.30769230769230765,1.7100140480456603,-0.027602964753763712,0.9947711991009006
1970-01-01 00:00:00.000000053,0.08653846153846152,1.8096648423044057,-0.05795157345278119,0.9947711991009006
1970-01-01 00:00:00.000000053,-0.04807692307692307,1.9009366941732948,-0.03708951847132835,0.9947711991009006
1970-01-01 00:00:00.000000053,-0.3173076923076923,2.0156259003745602,0.056534574726915865,0.9947711991009006
1970-01-01 00:00:00.000000053,-0.3173076923076923,2.0209626159398235,0.06352303609805661,0.9947711991009006
1970-01-01 00:00:00.000000053,-0.49038461538461536,2.050364730000669,0.15858739992061285,0.9947711991009006
1970-01-01 00:00:00.000000053,-0.7115384615384615,2.08888509407824,0.21833676175849065,0.9947711991009006
1970-01-01 00:00:00.000000053,-0.971153846153846,2.09953281011181,0.23650516755863424,0.9947711991009006
1970-01-01 00:00:00.000000053,-1.2788461538461537,2.0985007789406245,0.16730276232463392,0.9947711991009006
1970-01-01 00:00:00.000000053,-1.6346153846153844,2.0599882212850544,0.0306694152064813,0.9947711991009006
1970-01-01 00:00:00.000000053,-1.9711538461538458,2.021181195755846,-0.08922855174963858,0.9947711991009006
1970-01-01 00:00:00.000000053,-2.317307692307692,2.0119040641227977,-0.18984031244672256,0.9947711991009006
1970-01-01 00:00:00.000000053,-3.009615384615384,2.050228535559687,-0.2864598843118711,0.9947711991009006
1970-01-01 00:00:00.000000053,-3.144230769230769,2.0942663959887637,-0.29457656397379695,0.9947711991009006
1970-01-01 00:00:00.000000053,-3.548076923076923,2.2449641561369384,-0.29210734298064817,0.9947711991009006
1970-01-01 00:00:00.000000053,-3.9134615384615383,2.2697658197085793,-0.3423216965037029,0.9947711991009006
1970-01-01 00:00:00.000000053,-4.4230769230769225,2.0387129759947036,-0.45057846261933,0.9947711991009006
1970-01-01 00:00:00.000000053,-5.134615384615384,1.525484532148416,-0.5732967942182078,0.9947711991009006
1970-01-01 00:00:00.000000053,-5.788461538461537,0.899369392012527,-0.5284349812722818,0.9947711991009006
1970-01-01 00:00:00.000000053,-6.201923076923077,0.5074890521898147,-0.44444770013340035,0.9947711991009006
1970-01-01 00:00:00.000000053,-6.5576923076923075,0.3028350171124711,-0.47165292232952755,0.9947711991009006
1970-01-01 00:00:00.000000053,-6.490384615384615,0.544056409846907,-0.2901812027638443,0.9947711991009006
1970-01-01 00:00:00.000000053,-5.336538461538461,1.8866880487540154,0.13676044770573123,0.9947711991009006
1970-01-01 00:00:00.000000053,-3.7499999999999996,3.646520906511505,0.35771329081858777,0.9947711991009006
1970-01-01 00:00:00.000000053,-2.1249999999999996,4.819376427056629,0.2714984043961374,0.9947711991009006
1970-01-01 00:00:00.000000053,-1.908653846153846,4.7266426240174875,0.22274362787712196,0.9947711991009006
1970-01-01 00:00:00.000000053,-1.3749999999999998,4.049974421415526,0.11757954828615551,0.9947711991009011
1970-01-01 00:00:00.000000053,-1.0576923076923077,3.3726667542017243,-0.048095824150923054,0.9947711991009129
1970-01-01 00:00:00.000000053,-0.6538461538461539,2.5120279420310334,-0.41616680036107795,0.9947711991012338
1970-01-01 00:00:00.000000053,-0.5673076923076922,1.7020876806361762,-0.6884077855981818,0.9947711991098852
1970-01-01 00:00:00.000000053,-0.7115384615384615,1.1943394351457293,-0.6708434107898309,0.9947711993431523
1970-01-01 00:00:00.000000053,-0.846153846153846,0.7950770682985144,-0.4243643057272527,0.9947712056327098
1970-01-01 00:00:00.000000053,-0.875,0.5227414089141631,-0.03699284384599105,0.9947713752174974
1970-01-01 00:00:00.000000053,-0.8057692307692307,0.06894097238388969,0.6755575218854944,0.9947759477172031
1970-01-01 00:00:00.000000053,-0.798076923076923,-0.16133515454914135,1.0270459347543395,0.9948992356244712
1970-01-01 00:00:00.000000053,-0.798076923076923,-0.17499014521070522,1.0546827164816734,0.9982234366210061
1970-01-01 00:00:00.000000053,-0.7019230769230769,-0.3133987661398995,1.449387410250843,1.0878535756201781
1970-01-01 00:00:00.000000053,-0.5288461538461539,-0.28677654056658,1.8287773602910933,1.0911777766167128
1970-01-01 00:00:00.000000053,-0.3365384615384615,-0.1795678291577602,2.1776013176086724,1.091301064523981
1970-01-01 00:00:00.000000053,-0.1346153846153846,-0.06155484669294561,2.4664582151430503,1.0913056370236867
1970-01-01 00:00:00.000000053,0.0673076923076923,0.017586968448228588,2.666770491253687,1.0913058066084742
1970-01-01 00:00:00.000000053,0.25,0.03640299479511714,2.786345048706495,1.091305812898032
1970-01-01 00:00:00.000000053,0.423076923076923,-0.034706108980065986,2.8145458238216787,1.091305813131299
1970-01-01 00:00:00.000000053,0.5576923076923076,-0.22346793725689884,2.706392194478836,1.0913058131399505
1970-01-01 00:00:00.000000053,0.6923076923076922,-0.4989281969562023,2.508043427106897,1.091305813140271
1970-01-01 00:00:00.000000053,0.9038461538461537,-0.7475933805605626,2.2607803374074007,1.091305813140283
1970-01-01 00:00:00.000000053,1.1346153846153844,-0.9360930781789869,2.03302568289293,1.0913058131402835
1970-01-01 00:00:00.000000053,1.3846153846153844,-1.0269197302720843,1.8809131007017101,1.0913058131402835
1970-01-01 00:00:00.000000053,1.6538461538461537,-1.040739639167288,1.7516280360532477,1.0913058131402835
1970-01-01 00:00:00.000000053,1.8846153846153844,-1.0730505272446917,1.6630438727359773,1.0913058131402835
1970-01-01 00:00:00.000000053,2.0288461538461537,-1.1816245964393892,1.6505565278181422,1.0913058131402835
1970-01-01 00:00:00.000000053,2.0576923076923075,-1.3308135766188216,1.6519823783538687,1.0913058131402835
1970-01-01 00:00:00.000000053,2.076923076923077,-1.5003419722687945,1.7029676877363193,1.0913058131402835
1970-01-01 00:00:00.000000053,2.1057692307692304,-1.6784196746386288,1.828145190526754,1.0913058131402835
1970-01-01 00:00:00.000000053,2.1730769230769225,-1.8169892429741876,1.906952456486038,1.0913058131402835
1970-01-01 00:00:00.000000053,2.2692307692307687,-1.8802898856644323,1.9095711345962727,1.0913058131402835
1970-01-01 00:00:00.000000053,2.3846153846153846,-1.9508376699654906,1.9014681776133269,1.0913058131402835
1970-01-01 00:00:00.000000053,2.471153846153846,-2.042327203403811,1.9300696609635533,1.0913058131402835
1970-01-01 00:00:00.000000053,2.480769230769231,-2.1919968219374053,1.9604126684026129,1.0913058131402835
1970-01-01 00:00:00.000000053,2.394230769230769,-2.3915869889061256,2.0010723859069928,1.0913058131402835
1970-01-01 00:00:00.000000053,2.2115384615384612,-2.630851878527983,2.068541751086189,1.0913058131402835
1970-01-01 00:00:00.000000053,1.9326923076923073,-2.891413731349418,2.0995548934201023,1.0913058131402835
1970-01-01 00:00:00.000000053,1.6153846153846152,-3.1873188679062903,2.119440371256571,1.0913058131402835
1970-01-01 00:00:00.000000053,1.3557692307692306,-3.4161957021204223,2.1253351305073096,1.0913058131402835
1970-01-01 00:00:00.000000053,1.1346153846153844,-3.549965089345114,2.0146081524408004,1.0913058131402835
1970-01-01 00:00:00.000000053,0.8365384615384615,-3.6828617101976455,1.7690849853942932,1.0913058131402835
1970-01-01 00:00:00.000000053,0.375,-3.8873010859913073,1.5006864532051172,1.0913058131402835
1970-01-01 00:00:00.000000053,-0.3846153846153846,-4.274267611567655,1.2494492511438726,1.0913058131402835
1970-01-01 00:00:00.000000053,-1.5096153846153846,-4.767924426335387,0.9844433276794472,1.0913058131402835
1970-01-01 00:00:00.000000053,-2.7307692307692304,-5.209691899487802,0.8305205962012009,1.0913058131402835
1970-01-01 00:00:00.000000053,-3.3076923076923075,-5.143756859835252,0.9396127697529781,1.0913058131402835
1970-01-01 00:00:00.000000053,-3.2692307692307687,-4.67174331606399,1.0390241871292114,1.0913058131402835
1970-01-01 00:00:00.000000053,-2.798076923076923,-4.243312673892501,1.1140402827357323,1.0913058131402835
1970-01-01 00:00:00.000000053,-2.0,-4.147698879033544,1.2900634467355583,1.0913058131402835
1970-01-01 00:00:00.000000054,-1.2692307692307692,-4.4945570600132,1.467672779124345,1.0913058131402835
1970-01-01 00:00:00.000000054,-0.7403846153846153,-5.205341741322846,1.5871015896217573,1.0913058131402835
1970-01-01 00:00:00.000000054,-0.2115384615384615,-5.799669955703651,1.6340701406631002,1.0913058131402835
1970-01-01 00:00:00.000000054,1.0384615384615385,-5.885747062675713,1.2827922082819478,1.0913058131402835
1970-01-01 00:00:00.000000054,1.0384615384615385,-5.865500736540608,1.2513194829494922,1.0913058131402835
1970-01-01 00:00:00.000000054,1.8653846153846152,-5.232772823920725,0.7528338313543409,1.0913058131402835
1970-01-01 00:00:00.000000054,2.490384615384615,-4.419365509318967,0.07519396361771287,1.0913058131402835
1970-01-01 00:00:00.000000054,2.798076923076923,-3.5900959276913977,-0.472596813676093,1.0913058131402835
1970-01-01 00:00:00.000000054,2.798076923076923,-2.763224538348772,-0.8353079328722246,1.0913058131402835
1970-01-01 00:00:00.000000054,1.692307692307692,-1.5169666077254496,-1.0807173738739702,1.0913058131402835
1970-01-01 00:00:00.000000054,1.692307692307692,-1.444873870238368,-1.0940611617249705,1.0913058131402835
1970-01-01 00:00:00.000000054,1.0,-0.7446278887104867,-1.2089339927002354,1.0913058131402835
1970-01-01 00:00:00.000000054,-0.1346153846153846,0.8399208750552294,-1.5471566411813849,1.0913058131402835
1970-01-01 00:00:00.000000054,-0.1346153846153846,0.9224915152016748,-1.564295319197149,1.0913058131402835
1970-01-01 00:00:00.000000054,-0.3557692307692307,1.5673500353899903,-1.6888169771416353,1.0913058131402835
1970-01-01 00:00:00.000000054,-0.46153846153846145,1.8959594403280624,-1.7837630636270072,1.0913058131402835
1970-01-01 00:00:00.000000054,-0.49038461538461536,1.873554853467697,-1.7227857407875584,1.0913058131402835
1970-01-01 00:00:00.000000054,-0.45192307692307687,1.690021603299758,-1.4814519376370714,1.0913058131402835
1970-01-01 00:00:00.000000054,-0.2692307692307692,1.507028435625767,-0.7764165754133716,1.0913058131402835
1970-01-01 00:00:00.000000054,-0.2692307692307692,1.4997461585959486,-0.7317955985239648,1.0913058131402835
1970-01-01 00:00:00.000000054,-0.10576923076923075,1.4861178464648508,-0.23206458473367841,1.0913058131402835
1970-01-01 00:00:00.000000054,0.009615384615384614,1.375435695955025,0.2160518107146465,1.0913058131402835
1970-01-01 00:00:00.000000054,0.07692307692307691,1.1506459443208261,0.5654634740291342,1.0913058131402835
1970-01-01 00:00:00.000000054,0.0673076923076923,0.9420048007072812,0.8014619880719753,1.0913058131402835
1970-01-01 00:00:00.000000054,0.11538461538461536,0.7834836747757693,0.8240102039141952,1.0913058131402835
1970-01-01 00:00:00.000000054,0.28846153846153844,0.7120544182384897,0.6968135176112958,1.0913058131402835
1970-01-01 00:00:00.000000054,0.5384615384615384,0.6919856176634551,0.4899547715907942,1.0913058131402835
1970-01-01 00:00:00.000000054,0.7788461538461539,0.7215572586748011,0.2819653153401472,1.0913058131402835
1970-01-01 00:00:00.000000054,0.971153846153846,0.7900603665561747,0.12310874259317979,1.0913058131402835
1970-01-01 00:00:00.000000054,1.1153846153846152,0.8600726383419166,0.04197073467570739,1.0913058131402835
1970-01-01 00:00:00.000000054,1.1826923076923075,0.9319008686755711,0.010101093650919653,1.0913058131402835
1970-01-01 00:00:00.000000054,1.1923076923076923,1.051250815898502,-0.019241206100876807,1.0913058131402835
1970-01-01 00:00:00.000000054,1.1826923076923075,1.2018711605839743,-0.02961365837459336,1.0913058131402835
1970-01-01 00:00:00.000000054,1.173076923076923,1.3992705198688045,-0.030327570013143925,1.0913058131402835
1970-01-01 00:00:00.000000054,1.1826923076923075,1.5784328758737471,-0.03923073198029264,1.0913058131402835
1970-01-01 00:00:00.000000054,1.1538461538461537,1.7184171287223668,-0.028902193454757336,1.0913058131402835
1970-01-01 00:00:00.000000054,1.0769230769230769,1.818829599630153,0.008871508701844624,1.0913058131402835
1970-01-01 00:00:00.000000054,0.9423076923076922,1.889982061291757,0.018432928404562118,1.0913058131402835
1970-01-01 00:00:00.000000054,0.7403846153846153,1.960686055247292,-0.011182441778667528,1.0913058131402835
1970-01-01 00:00:00.000000054,0.5288461538461539,2.048541430385129,-0.07035885642858544,1.0913058131402835
1970-01-01 00:00:00.000000054,0.2980769230769231,2.099932565151193,-0.1385066817931395,1.0913058131402835
1970-01-01 00:00:00.000000054,0.08653846153846152,2.1496378286970765,-0.16932155198617993,1.0913058131402835
1970-01-01 00:00:00.000000054,-0.0673076923076923,2.1902888096698767,-0.18317522183371845,1.0913058131402835
1970-01-01 00:00:00.000000054,-0.36538461538461536,2.2381600323895956,-0.2764094375242186,1.0913058131402835
1970-01-01 00:00:00.000000054,-0.36538461538461536,2.240032064849206,-0.2798795913201831,1.0913058131402835
1970-01-01 00:00:00.000000054,-0.5288461538461539,2.242705718538952,-0.28033952812072477,1.0913058131402835
1970-01-01 00:00:00.000000054,-0.7115384615384615,2.3130223357024904,-0.2892876679393844,1.0913058131402835
1970-01-01 00:00:00.000000054,-0.8942307692307692,2.458897345428286,-0.28042750624265433,1.0913058131402835
1970-01-01 00:00:00.000000054,-1.0865384615384612,2.577205990861231,-0.2822550006122829,1.0913058131402835
1970-01-01 00:00:00.000000054,-1.3076923076923077,2.6256644078249525,-0.34045751028898363,1.0913058131402835
1970-01-01 00:00:00.000000054,-1.5576923076923077,2.5657330204124884,-0.41009777719027407,1.091305813140284
1970-01-01 00:00:00.000000054,-1.8365384615384612,2.399127143312235,-0.48218247384841817,1.0913058131402955
1970-01-01 00:00:00.000000054,-2.144230769230769,2.2106998490178613,-0.6088290167170174,1.091305813140604
1970-01-01 00:00:00.000000054,-2.490384615384615,2.0397687801700126,-0.7062009775110506,1.0913058131489235
1970-01-01 00:00:00.000000054,-2.8365384615384617,1.863057215572478,-0.7085973760813504,1.091305813373242
1970-01-01 00:00:00.000000054,-3.1634615384615383,1.7627760402868886,-0.6759281766854115,1.0913058194215242
1970-01-01 00:00:00.000000054,-3.423076923076923,1.7318958721735136,-0.5414633944247585,1.0913059825008247
1970-01-01 00:00:00.000000054,-4.144230769230768,1.4984125083979822,-0.4435834727830674,1.0913103795936543
1970-01-01 00:00:00.000000054,-4.144230769230768,1.4752418545720067,-0.43529037071806154,1.091428938020755
1970-01-01 00:00:00.000000054,-4.576923076923077,1.0831175650461997,-0.3092565366045936,1.0946256184596406
1970-01-01 00:00:00.000000054,-5.096153846153846,0.5189324016753871,-0.164636117605966,1.180817431882455
1970-01-01 00:00:00.000000054,-5.269230769230769,0.3030572801892538,-0.13591863875648835,1.1840141123213406
1970-01-01 00:00:00.000000054,-5.4230769230769225,0.16361416343446655,-0.25516712881921916,1.1841326707484412
1970-01-01 00:00:00.000000054,-5.499999999999999,0.11452513254134303,-0.25359383936242813,1.1841370678412708
1970-01-01 00:00:00.000000054,-5.230769230769231,0.4285644151817953,-0.09186653396634019,1.1841372309205713
1970-01-01 00:00:00.000000054,-4.548076923076923,1.20671407736713,0.023197422271243034,1.1841372369688534
1970-01-01 00:00:00.000000054,-3.644230769230769,2.1527156737307194,-0.031803064710098104,1.184137237193172
1970-01-01 00:00:00.000000054,-2.7884615384615383,2.916609113362279,-0.1318801694438919,1.1841372372014916
1970-01-01 00:00:00.000000054,-2.067307692307692,3.3457303870508044,-0.27896151027498184,1.1841372372018
1970-01-01 00:00:00.000000054,-1.5480769230769231,3.418111337009435,-0.40008060798061557,1.1841372372018115
1970-01-01 00:00:00.000000054,-1.1826923076923075,3.193275712203936,-0.5232149052016383,1.184137237201812
1970-01-01 00:00:00.000000054,-1.0576923076923077,2.8003328924968387,-0.7267218324636167,1.184137237201812
1970-01-01 00:00:00.000000054,-1.096153846153846,2.4157123852107154,-0.8482745713160136,1.184137237201812
1970-01-01 00:00:00.000000054,-1.1153846153846152,2.1739015081924795,-0.9266915930687512,1.184137237201812
1970-01-01 00:00:00.000000054,-1.1634615384615383,2.0296283359862386,-0.9223984415402681,1.184137237201812
1970-01-01 00:00:00.000000054,-1.1826923076923075,1.8760635634359704,-0.7280663285184831,1.184137237201812
1970-01-01 00:00:00.000000054,-1.1249999999999998,1.7490878767849571,-0.3603924284587756,1.184137237201812
1970-01-01 00:00:00.000000054,-0.9903846153846153,1.5993091097578707,-0.0025292398684588664,1.184137237201812
1970-01-01 00:00:00.000000054,-0.7740384615384616,1.1822580866775436,0.542102952010387,1.184137237201812
1970-01-01 00:00:00.000000054,-0.5961538461538461,0.6966592305358076,1.0143089441489053,1.184137237201812
1970-01-01 00:00:00.000000054,-0.5192307692307693,0.37754113778926207,1.3442385400100552,1.184137237201812
1970-01-01 00:00:00.000000054,-0.37019230769230765,-0.003048510225732,1.780131636122585,1.184137237201812
1970-01-01 00:00:00.000000054,-0.2115384615384615,-0.33485091388402627,2.0943156352997385,1.184137237201812
1970-01-01 00:00:00.000000054,-0.02884615384615384,-0.5379261646429755,2.2663905169703495,1.184137237201812
1970-01-01 00:00:00.000000054,0.18269230769230768,-0.6891555314763099,2.348228322899695,1.184137237201812
1970-01-01 00:00:00.000000054,0.41346153846153844,-0.8192731852173939,2.38577420132142,1.184137237201812
1970-01-01 00:00:00.000000054,0.7019230769230769,-0.9312204693933247,2.3176751127786495,1.184137237201812
1970-01-01 00:00:00.000000054,0.9519230769230769,-1.0736794884023746,2.1914538437021203,1.184137237201812
1970-01-01 00:00:00.000000054,1.1442307692307692,-1.3081257174707848,2.101578667178599,1.184137237201812
1970-01-01 00:00:00.000000054,1.3557692307692306,-1.4957148833088079,2.051170170120054,1.184137237201812
1970-01-01 00:00:00.000000054,1.6249999999999998,-1.576176131867028,2.030015926062863,1.184137237201812
1970-01-01 00:00:00.000000054,1.9134615384615383,-1.5610406771009446,2.0092598335772456,1.184137237201812
1970-01-01 00:00:00.000000054,2.1826923076923075,-1.5719221498584746,1.9699995805227755,1.184137237201812
1970-01-01 00:00:00.000000054,2.394230769230769,-1.6308573690778687,1.9307288405376948,1.184137237201812
1970-01-01 00:00:00.000000054,2.567307692307692,-1.7112268152439811,1.9096791139949836,1.184137237201812
1970-01-01 00:00:00.000000055,2.6634615384615383,-1.822266642509619,1.8806072373268656,1.184137237201812
1970-01-01 00:00:00.000000055,2.721153846153846,-1.9899725325157276,1.8667162938303947,1.184137237201812
1970-01-01 00:00:00.000000055,2.7884615384615383,-2.156991735415031,1.7707326960937888,1.184137237201812
1970-01-01 00:00:00.000000055,2.855769230769231,-2.2488043236901087,1.6930665007019066,1.184137237201812
