time,ax,ay,az,speed
1970-01-01 00:00:00.000000000,-0.26,-0.12475144368908538,0.32494755599251474,0.4602378320129878
1970-01-01 00:00:00.000000016,0.07692307692307691,0.13767637185664577,-0.9276746443817464,0.4602371664562847
1970-01-01 00:00:00.000000016,-0.05769230769230768,0.3420134838185215,-0.8721629542996703,0.46021952920365194
1970-01-01 00:00:00.000000016,-0.05769230769230768,0.3466876912434349,-0.8707251217093492,0.4597439889392713
1970-01-01 00:00:00.000000016,-0.18269230769230768,0.2685541797542213,-0.8874153318527581,0.44692203905362626
1970-01-01 00:00:00.000000016,-0.125,0.154275162120539,-0.5894888383151194,0.4464464988049631
1970-01-01 00:00:00.000000016,-0.05769230769230768,0.14687519750033118,-0.27878330265546747,0.44642886197670256
1970-01-01 00:00:00.000000016,-0.0673076923076923,0.06135517038840311,-0.1876603333825031,0.44642820786233056
1970-01-01 00:00:00.000000016,-0.01923076923076923,0.009714402986552973,-0.28804569867211643,0.44642818360254843
1970-01-01 00:00:00.000000016,0.008653846153846153,-0.0490662897514728,-0.33957353076464075,0.44642818270280205
1970-01-01 00:00:00.000000016,0.0,-0.059504226276318496,-0.35543963197318307,0.44642818266943224
1970-01-01 00:00:00.000000016,0.01923076923076923,-0.05754781970912657,-0.5072965325113017,0.4464281826681947
1970-01-01 00:00:00.000000016,-0.11538461538461536,0.005713094129901158,-0.5915667458319604,0.44642818266814877
1970-01-01 00:00:00.000000016,-0.09615384615384615,-0.03819863878354212,-0.7150056049516291,0.44642818266814704
1970-01-01 00:00:00.000000016,-0.09615384615384615,-0.03707634128553833,-0.7135845878620269,0.446428182668147
1970-01-01 00:00:00.000000016,-0.14423076923076922,0.03713742407400745,-0.5517782673230986,0.446428182668147
1970-01-01 00:00:00.000000016,-0.16346153846153846,0.039786791283739284,-0.4344286298616359,0.446428182668147
1970-01-01 00:00:00.000000016,-0.16346153846153846,0.03710594058695324,-0.42779473894106956,0.446428182668147
1970-01-01 00:00:00.000000016,-0.2115384615384615,-0.037926395436001924,-0.3660293215472431,0.446428182668147
1970-01-01 00:00:00.000000017,-0.25,-0.06111861735900525,-0.20499694283449466,0.446428182668147
1970-01-01 00:00:00.000000017,-0.2788461538461538,-0.11227627325713983,0.08111186501588796,0.446428182668147
1970-01-01 00:00:00.000000017,-0.30769230769230765,-0.22034076058377008,0.39501729826346954,0.446428182668147
1970-01-01 00:00:00.000000017,-0.3173076923076923,-0.33692426250465257,0.5843551880977913,0.446428182668147
1970-01-01 00:00:00.000000017,-0.3269230769230769,-0.3766143270418483,0.3825727803768937,0.446428182668147
1970-01-01 00:00:00.000000017,-0.28846153846153844,-0.3316625676252507,0.2451098820783394,0.446428182668147
1970-01-01 00:00:00.000000017,-0.28846153846153844,-0.32827499883992045,0.23539403573827025,0.446428182668147
1970-01-01 00:00:00.000000017,-0.3269230769230769,-0.2817624010526017,0.11052908285495759,0.446428182668147
1970-01-01 00:00:00.000000017,-0.3846153846153846,-0.27930982958032413,-0.001108798654414555,0.446428182668147
1970-01-01 00:00:00.000000017,-0.41346153846153844,-0.25960299761614875,-0.14046664652415047,0.446428182668147
1970-01-01 00:00:00.000000017,-0.41346153846153844,-0.2299711060556913,-0.29149065749764785,0.446428182668147
1970-01-01 00:00:00.000000017,-0.39423076923076916,-0.19961686588751576,-0.47978110591234147,0.446428182668147
1970-01-01 00:00:00.000000017,-0.3557692307692307,-0.15968427290723386,-0.6625992021355723,0.446428182668147
1970-01-01 00:00:00.000000017,-0.2788461538461538,-0.11185850260779874,-0.9103973517481104,0.446428182668147
1970-01-01 00:00:00.000000017,-0.2788461538461538,-0.11049529750333252,-0.9181292950634075,0.446428182668147
1970-01-01 00:00:00.000000017,-0.23076923076923073,-0.12151452998217908,-0.8790936149638883,0.446428182668147
1970-01-01 00:00:00.000000017,-0.24038461538461536,-0.17039701201550292,-0.8173983089615747,0.446428182668147
1970-01-01 00:00:00.000000017,-0.2692307692307692,-0.2292047944363999,-0.6906607269986298,0.446428182668147
1970-01-01 00:00:00.000000017,-0.2692307692307692,-0.26813243776729434,-0.5804413200014341,0.446428182668147
1970-01-01 00:00:00.000000017,-0.25961538461538464,-0.260371025280546,-0.4812549130400919,0.446428182668147
1970-01-01 00:00:00.000000017,-0.25,-0.2618852448074471,-0.41344133208104844,0.446428182668147
1970-01-01 00:00:00.000000017,-0.23076923076923073,-0.3105305845205253,-0.4316610531482173,0.446428182668147
1970-01-01 00:00:00.000000017,-0.23076923076923073,-0.3724405372467353,-0.49140710292081813,0.446428182668147
1970-01-01 00:00:00.000000017,-0.25961538461538464,-0.4953639211413293,-0.5863307257138726,0.446428182668147
1970-01-01 00:00:00.000000017,-0.25961538461538464,-0.5023853335691559,-0.5895224913537422,0.446428182668147
1970-01-01 00:00:00.000000017,-0.3365384615384615,-0.5690400852258808,-0.5807765408371669,0.446428182668147
1970-01-01 00:00:00.000000017,-0.43269230769230765,-0.6116969675296279,-0.5914441112497636,0.446428182668147
1970-01-01 00:00:00.000000017,-0.5740384615384615,-0.6967780380740722,-0.6382144629064517,0.446428182668147
1970-01-01 00:00:00.000000017,-0.5769230769230769,-0.7013100604703238,-0.6403463872244306,0.446428182668147
1970-01-01 00:00:00.000000017,-0.6442307692307692,-0.7385935946246726,-0.6511379921531731,0.446428182668147
1970-01-01 00:00:00.000000017,-0.6826923076923076,-0.7407169943958337,-0.6903794009112459,0.446428182668147
1970-01-01 00:00:00.000000017,-0.7115384615384615,-0.760765254062836,-0.739105832450468,0.446428182668147
1970-01-01 00:00:00.000000017,-0.7019230769230769,-0.7999448653007406,-0.7654780752513924,0.446428182668147
1970-01-01 00:00:00.000000017,-0.6826923076923076,-0.837746109057158,-0.6788021993371253,0.446428182668147
1970-01-01 00:00:00.000000017,-0.6923076923076922,-0.8192000792425256,-0.5621813068509872,0.446428182668147
1970-01-01 00:00:00.000000017,-0.721153846153846,-0.7806560304910335,-0.5000930856395274,0.446428182668147
1970-01-01 00:00:00.000000017,-0.75,-0.7585127440153779,-0.44033200541625317,0.446428182668147
1970-01-01 00:00:00.000000017,-0.7596153846153846,-0.6991880579241695,-0.3888710605993082,0.446428182668147
1970-01-01 00:00:00.000000017,-0.75,-0.6195648199372003,-0.3091866307650669,0.446428182668147
1970-01-01 00:00:00.000000017,-0.7788461538461539,-0.5290620803802363,-0.20916797005749768,0.446428182668147
1970-01-01 00:00:00.000000017,-0.8076923076923076,-0.41511135032917745,-0.08834856078737081,0.446428182668147
1970-01-01 00:00:00.000000017,-0.8173076923076922,-0.1789443785075542,0.07375682879848554,0.446428182668147
1970-01-01 00:00:00.000000017,-0.8173076923076922,-0.16638686937478533,0.07978293834648048,0.446428182668147
1970-01-01 00:00:00.000000017,-0.8124999999999999,-0.06350109461164957,0.08038250655648735,0.446428182668147
1970-01-01 00:00:00.000000017,-0.7307692307692307,-0.04814268513975334,-0.03445526132132213,0.446428182668147
1970-01-01 00:00:00.000000017,-0.5432692307692306,0.013648595838309489,-0.1356745622321848,0.446428182668147
1970-01-01 00:00:00.000000017,-0.4711538461538461,0.1666547727741096,-0.12875791894766667,0.446428182668147
1970-01-01 00:00:00.000000017,-0.4038461538461538,0.4860302690626493,-0.09078924935481489,0.446428182668147
1970-01-01 00:00:00.000000017,-0.24038461538461536,0.8311624919174212,-0.07255181363233577,0.446428182668147
1970-01-01 00:00:00.000000017,-0.09615384615384615,0.9553570127077234,-0.11810971871825102,0.446428182668147
1970-01-01 00:00:00.000000017,-0.09615384615384615,0.9634768511911111,-0.11641059176044156,0.446428182668147
1970-01-01 00:00:00.000000017,0.11538461538461536,1.0585179694522775,-0.024976258813671152,0.446428182668147
1970-01-01 00:00:00.000000017,0.2788461538461538,1.1165083240203804,0.19205160379132033,0.446428182668147
1970-01-01 00:00:00.000000017,0.39423076923076916,1.0872067790979858,0.4603695611793196,0.446428182668147
1970-01-01 00:00:00.000000017,0.5384615384615384,0.9880747116252362,0.7379265480503079,0.446428182668147
1970-01-01 00:00:00.000000017,0.6826923076923076,0.8408104347833931,0.9636472361789925,0.446428182668147
1970-01-01 00:00:00.000000017,0.8269230769230769,0.7138070275263805,1.0305488287824882,0.446428182668147
1970-01-01 00:00:00.000000017,0.9807692307692307,0.6819793084288808,1.111171140948192,0.446428182668147
1970-01-01 00:00:00.000000017,1.0865384615384612,0.699634300053397,1.2210719768186895,0.446428182668147
1970-01-01 00:00:00.000000017,1.1634615384615383,0.7081467930128379,1.3577722331564213,0.446428182668147
1970-01-01 00:00:00.000000017,1.2019230769230769,0.6703291112932253,1.4387783184046807,0.446428182668147
1970-01-01 00:00:00.000000017,1.2115384615384615,0.6407392119042419,1.4892423637699588,0.446428182668147
1970-01-01 00:00:00.000000017,1.2403846153846154,0.6296296101213046,1.5207655033842062,0.446428182668147
1970-01-01 00:00:00.000000017,1.2596153846153846,0.6092602613709807,1.5714262276036086,0.446428182668147
1970-01-01 00:00:00.000000017,1.2788461538461537,0.5703974468951749,1.6577426419132273,0.446428182668147
1970-01-01 00:00:00.000000017,1.2980769230769231,0.5414708047987431,1.6876251040535306,0.446428182668147
1970-01-01 00:00:00.000000017,1.3076923076923077,0.5493142826708881,1.6581351675321,0.446428182668147
1970-01-01 00:00:00.000000017,1.3269230769230766,0.5400148273152351,1.5820244193131738,0.446428182668147
1970-01-01 00:00:00.000000017,1.3173076923076923,0.5310860548404565,1.3065241539235923,0.446428182668147
1970-01-01 00:00:00.000000017,1.2884615384615383,0.5493086533770888,1.1941277366238165,0.44642818266814693
1970-01-01 00:00:00.000000017,1.2884615384615383,0.5502475863409388,1.1849247349194558,0.4464281826681449
1970-01-01 00:00:00.000000017,1.221153846153846,0.5573761778282563,1.0488401062014898,0.4464281826680898
1970-01-01 00:00:00.000000017,1.0769230769230769,0.49890921502198105,0.8837581325207708,0.446428182666606
1970-01-01 00:00:00.000000017,1.0307692307692307,0.41317262776522995,0.8126294718593245,0.4464281826265972
1970-01-01 00:00:00.000000017,1.0288461538461537,0.4067517346392285,0.8072376076809912,0.4464281815478447
1970-01-01 00:00:00.000000017,0.971153846153846,0.31912420749393905,0.7327859355274361,0.44642815246153417
1970-01-01 00:00:00.000000017,0.9134615384615383,0.20960186769712558,0.7279826515597839,0.4464273682099032
1970-01-01 00:00:00.000000017,0.7692307692307692,0.09012622032845159,0.9227456565867298,0.44640622250217743
1970-01-01 00:00:00.000000017,0.548076923076923,-0.026193918828932454,0.9361500762819215,0.4458360726452128
1970-01-01 00:00:00.000000017,0.3269230769230769,-0.04736202870962794,1.1033064030251476,0.4304631722148941
1970-01-01 00:00:00.000000017,0.0673076923076923,-0.0025808563310217724,1.3531228053970623,0.015965010453252854
1970-01-01 00:00:00.000000017,-0.18269230769230768,-0.022321092227959916,1.4310093426955335,0.000592110022934163
1970-01-01 00:00:00.000000017,-0.3269230769230769,-0.10008863382389599,1.2841294473823435,2.1960165969553855e-05
1970-01-01 00:00:00.000000017,-0.36538461538461536,-0.1800720210172318,0.990485736627741,8.144582437915808e-07
1970-01-01 00:00:00.000000017,-0.3846153846153846,-0.26185593364136306,0.7089854415666631,3.020661281885302e-08
1970-01-01 00:00:00.000000017,-0.3846153846153846,-0.3900381872995713,0.40212118567216354,1.1203023174526178e-09
1970-01-01 00:00:00.000000017,-0.36538461538461536,-0.519175123447061,0.14828657158175257,4.154975236767904e-11
1970-01-01 00:00:00.000000017,-0.3269230769230769,-0.6276901457710757,-0.14838375296484402,1.5409964747202906e-12
1970-01-01 00:00:00.000000017,-0.28846153846153844,-0.6784588123719829,-0.40464790163254194,5.715244976881212e-14
1970-01-01 00:00:00.000000017,-0.2980769230769231,-0.69069778827246,-0.5271095911137882,2.1196690376397465e-15
1970-01-01 00:00:00.000000017,-0.36538461538461536,-0.7203814709844377,-0.5773110584397391,7.861424746101469e-17
1970-01-01 00:00:00.000000017,-0.4711538461538461,-0.7596019283073591,-0.5602889867591687,2.915643807649943e-18
1970-01-01 00:00:00.000000017,-0.6923076923076922,-0.7888705933142566,-0.550491584057814,1.0813534553393955e-19
1970-01-01 00:00:00.000000017,-0.6923076923076922,-0.7899040911775664,-0.552983782801807,4.010521766432597e-21
1970-01-01 00:00:00.000000017,-0.721153846153846,-0.7885398684800352,-0.6300705515909764,1.4874215974074246e-22
1970-01-01 00:00:00.000000018,-0.75,-0.7506723577833839,-0.7089211101545537,5.516546567460805e-24
1970-01-01 00:00:00.000000018,-0.7596153846153846,-0.7296137916713323,-0.7607994225819752,2.0459758069942677e-25
1970-01-01 00:00:00.000000018,-0.7596153846153846,-0.6989000173425882,-0.8326632995587765,7.588111423724675e-27
1970-01-01 00:00:00.000000018,-0.75,-0.6406866765785517,-0.9711096655049922,2.8142774113957216e-28
1970-01-01 00:00:00.000000018,-0.6923076923076922,-0.599640250278309,-1.137297669076013,1.0437587043766052e-29
1970-01-01 00:00:00.000000018,-0.6346153846153846,-0.5496000809357908,-1.2359273995473667,3.8710904211167813e-31
1970-01-01 00:00:00.000000018,-0.6634615384615383,-0.4895619349880437,-1.232742118702889,1.4357093249260348e-32
1970-01-01 00:00:00.000000018,-0.6826923076923076,-0.41857216374138834,-1.2981098054306395,5.324756183517178e-34
1970-01-01 00:00:00.000000018,-0.6538461538461539,-0.31188648602944197,-1.316222627924374,1.9748446236054905e-35
1970-01-01 00:00:00.000000018,-0.6346153846153846,-0.2523629590535446,-1.2399011485274591,7.324300217643813e-37
1970-01-01 00:00:00.000000018,-0.6346153846153846,-0.25191340841626186,-1.1611083823170227,2.7164351583384984e-38
1970-01-01 00:00:00.000000018,-0.5673076923076922,-0.2992990681855255,-1.110025174032155,1.0074709870141438e-39
1970-01-01 00:00:00.000000018,-0.4807692307692307,-0.3291614325929256,-1.0595713165511609,3.7365065996865946e-41
1970-01-01 00:00:00.000000018,-0.423076923076923,-0.3380596118234642,-0.9984003728491899,1.3857949012387286e-42
1970-01-01 00:00:00.000000018,-0.41346153846153844,-0.29844808664060674,-0.8972387503769665,5.139633657974355e-44
1970-01-01 00:00:00.000000018,-0.43269230769230765,-0.22003872747291908,-0.7270458873289056,1.906186414351098e-45
1970-01-01 00:00:00.000000018,-0.49038461538461536,-0.14259755512820857,-0.4830002075034857,7.069660773621677e-47
1970-01-01 00:00:00.000000018,-0.5576923076923076,-0.13009526098871235,-0.31395971526520927,2.6219945267577205e-48
1970-01-01 00:00:00.000000018,-0.548076923076923,-0.11997449156702528,-0.24391210465716412,9.724448624181384e-50
1970-01-01 00:00:00.000000018,-0.4807692307692307,-0.10921601132097011,-0.27166711047822284,3.60660177125844e-51
1970-01-01 00:00:00.000000018,-0.4038461538461538,-0.07885781409916787,-0.3410998782548516,1.3376158216414585e-52
1970-01-01 00:00:00.000000018,-0.3461538461538461,-0.01994496935656227,-0.4380296024027709,4.9609471734974647e-54
1970-01-01 00:00:00.000000018,-0.2980769230769231,0.04034364147198672,-0.48569938661996215,1.8399152028592963e-55
1970-01-01 00:00:00.000000018,-0.2788461538461538,0.1092232891002037,-0.4258538363362068,6.823874222643937e-57
1970-01-01 00:00:00.000000018,-0.3173076923076923,0.15868516423351303,-0.262354194457622,2.530837254570228e-58
1970-01-01 00:00:00.000000018,-0.3557692307692307,0.17527614520464788,-0.15770941401958613,9.386364695682898e-60
1970-01-01 00:00:00.000000018,-0.4423076923076923,0.07377075629197946,0.2542000159287972,3.4812132641584524e-61
1970-01-01 00:00:00.000000018,-0.4423076923076923,0.06653427467879755,0.27110984409711036,1.2911117544928304e-62
1970-01-01 00:00:00.000000018,-0.45192307692307687,-0.027345339964445697,0.3157657746931811,4.788472972202506e-64
1970-01-01 00:00:00.000000018,-0.3846153846153846,-0.05485845371883129,0.25456607261878045,1.7759480018459678e-65
1970-01-01 00:00:00.000000018,-0.28846153846153844,0.04616708955600085,0.05751818601389013,6.586632781619272e-67
1970-01-01 00:00:00.000000018,-0.28846153846153844,0.051369871730854104,0.048424949756253936,2.4428491912379994e-68
1970-01-01 00:00:00.000000018,-0.2788461538461538,0.09081944717705989,-4.4542595033867944e-05,9.060034723334115e-70
1970-01-01 00:00:00.000000018,-0.2692307692307692,0.15075520204976312,-0.04962759982216827,3.3601840622187954e-71
1970-01-01 00:00:00.000000018,-0.23076923076923073,0.22957100816654402,-0.08990065260350935,1.2462244656645359e-72
1970-01-01 00:00:00.000000018,-0.18269230769230768,0.297662018446925,-0.12769002047258413,4.621995075458249e-74
1970-01-01 00:00:00.000000018,-0.125,0.3073034899004326,-0.10772990015626252,1.7142047091948905e-75
1970-01-01 00:00:00.000000018,-0.09615384615384615,0.2495322088647554,-0.031017283746503848,6.357639367961911e-77
1970-01-01 00:00:00.000000018,-0.05769230769230768,0.1800661494479639,0.020263239000658458,2.3579201548246168e-78
1970-01-01 00:00:00.000000018,-0.02884615384615384,0.11225382623026971,0.07812473676428214,8.745050064565815e-80
1970-01-01 00:00:00.000000018,-0.01923076923076923,0.10078715876931833,0.08910465363495904,3.2433626081562862e-81
1970-01-01 00:00:00.000000018,-0.009615384615384614,0.1089994605413254,0.07770091137961185,1.2028977456184128e-82
1970-01-01 00:00:00.000000018,0.02884615384615384,0.09219827584646732,0.008819953614560873,4.461305013429861e-84
1970-01-01 00:00:00.000000018,0.07692307692307691,0.1303539873132924,-0.08956216378646831,1.6546080076508997e-85
1970-01-01 00:00:00.000000018,0.15384615384615383,0.17735938161242698,-0.17699837584920547,6.1366072275737685e-87
1970-01-01 00:00:00.000000018,0.27499999999999997,0.15834931622223605,-0.18939398414207895,2.2759437940213318e-88
1970-01-01 00:00:00.000000018,0.2692307692307692,0.1480721563879469,-0.1866391959869255,8.44101628383376e-90
1970-01-01 00:00:00.000000018,0.2980769230769231,0.0895989062523306,-0.0998643075049096,3.13060261378665e-91
1970-01-01 00:00:00.000000018,0.2980769230769231,0.02109831242497952,-0.009697106645633686,1.1610773390187681e-92
1970-01-01 00:00:00.000000018,0.2788461538461538,-0.019944470777883423,0.08804242807279979,4.306201564025058e-94
1970-01-01 00:00:00.000000018,0.2788461538461538,-0.05959902342783177,0.13684266461122785,1.5970832680003022e-95
1970-01-01 00:00:00.000000018,0.2788461538461538,-0.08922916177357446,0.10670951643035176,5.923259575760247e-97
1970-01-01 00:00:00.000000018,0.375,-0.09958834445867887,-0.0056857209917305215,2.1968174549699722e-98
1970-01-01 00:00:00.000000018,0.375,-0.09965613861075474,-0.010223983207075888,8.147552658691874e-100
1970-01-01 00:00:00.000000018,0.39423076923076916,-0.09112739803169927,-0.020361825599318425,3.0217628768369586e-101
1970-01-01 00:00:00.000000018,0.41346153846153844,-0.11078360824512547,-0.039545307974521535,1.1207108767918048e-102
1970-01-01 00:00:00.000000018,0.46153846153846145,-0.15003002458668835,-0.0473614897127631,4.1564905009163785e-104
1970-01-01 00:00:00.000000018,0.4807692307692307,-0.1900270555954602,0.010785085729917996,1.541558455617406e-105
1970-01-01 00:00:00.000000018,0.46153846153846145,-0.23070047649073655,0.08855880442054895,5.717329250630078e-107
1970-01-01 00:00:00.000000018,0.4423076923076923,-0.28888580965442656,0.13030263362490344,2.12044205271597e-108
1970-01-01 00:00:00.000000018,0.423076923076923,-0.31921638417878134,0.17961230345184412,7.864291703037387e-110
1970-01-01 00:00:00.000000018,0.39423076923076916,-0.3299565631726685,0.21922955957488807,2.9167071041269808e-111
1970-01-01 00:00:00.000000018,0.36538461538461536,-0.33961082148326865,0.23958580507013388,1.0817478105471498e-112
1970-01-01 00:00:00.000000018,0.3365384615384615,-0.33953561687558503,0.24958717731872687,4.011984350323737e-114
1970-01-01 00:00:00.000000018,0.2980769230769231,-0.32785083415752586,0.24926798253549215,1.4879640402601022e-115
1970-01-01 00:00:00.000000018,0.23076923076923073,-0.2624369053776136,0.23064835113956156,5.518558378545304e-117
1970-01-01 00:00:00.000000018,0.23076923076923073,-0.25794561103804153,0.2282374982326697,2.046721947130454e-118
1970-01-01 00:00:00.000000018,0.18269230769230768,-0.20209459264950805,0.18176410114252042,7.590878706930937e-120
1970-01-01 00:00:00.000000018,0.18269230769230768,-0.1986083904986759,0.17939323261538231,2.815303740897672e-121
1970-01-01 00:00:00.000000018,0.15384615384615383,-0.160331950814741,0.1618531794728026,1.0441393492792297e-122
1970-01-01 00:00:00.000000018,0.1346153846153846,-0.13035428149933154,0.1906426131502877,3.8725021562527e-124
1970-01-01 00:00:00.000000018,0.009615384615384614,-0.10923364966721041,0.23549737558496456,1.4362329090014452e-125
1970-01-01 00:00:00.000000018,0.0,-0.06895425951534956,0.16778652764375546,5.326698051202174e-127
1970-01-01 00:00:00.000000018,0.0,-0.00253135724722741,0.04473887079643234,1.9755648231461435e-128
1970-01-01 00:00:00.000000018,0.0,0.0006076138402093184,0.040162983859917546,7.326971292415614e-130
1970-01-01 00:00:00.000000018,-0.02884615384615384,0.018936930932879015,0.039661693421341446,2.7174258060734396e-131
1970-01-01 00:00:00.000000018,-0.05769230769230768,0.010689521347524053,0.030702738516301568,1.007838398269384e-132
1970-01-01 00:00:00.000000018,-0.07692307692307691,0.019680145450270428,0.03931224651880092,3.7378692538947127e-134
1970-01-01 00:00:00.000000018,-0.10576923076923075,0.02067440580977746,0.03072791749132321,1.3863002821883867e-135
1970-01-01 00:00:00.000000018,-0.125,0.038528811413721054,0.04034152574692585,5.141508013939039e-137
1970-01-01 00:00:00.000000018,-0.15384615384615383,0.019603502360690975,0.05849327767567465,1.9068815751569643e-138
1970-01-01 00:00:00.000000018,-0.17307692307692304,-0.009234247675064698,0.038976971496289765,7.072238984778583e-140
1970-01-01 00:00:00.000000018,-0.2019230769230769,-0.018928189587437742,-0.006115047275850857,2.6229507332517392e-141
1970-01-01 00:00:00.000000018,-0.25961538461538464,-0.001826871185754282,-0.004083247944262908,9.727995001120904e-143
1970-01-01 00:00:00.000000018,-0.3365384615384615,-0.030397332427927904,0.020867352780752378,3.6079170509052314e-144
1970-01-01 00:00:00.000000018,-0.4038461538461538,-0.0689011043682992,0.06750177302457708,1.3381036323222618e-145
1970-01-01 00:00:00.000000018,-0.45192307692307687,-0.07993248551615025,0.05168051888282848,4.962756364880357e-147
1970-01-01 00:00:00.000000018,-0.46153846153846145,-0.08927600456775744,0.07787223681179191,1.8405861954366897e-148
1970-01-01 00:00:00.000000018,-0.4807692307692307,-0.20551963781330074,0.05086987503555302,6.826362798718162e-150
1970-01-01 00:00:00.000000018,-0.4807692307692307,-0.20975421639136282,0.045614389148139534,2.5317602172207636e-151
1970-01-01 00:00:00.000000018,-0.46153846153846145,-0.20784420475349552,-0.06928136803578568,9.389787777914997e-153
1970-01-01 00:00:00.000000018,-0.4423076923076923,-0.152039311953016,-0.1662113261143526,3.482482816286145e-154
1970-01-01 00:00:00.000000018,-0.4423076923076923,-0.1472172179779369,-0.16842443705173382,1.2915826057595143e-155
1970-01-01 00:00:00.000000018,-0.46153846153846145,-0.07282557345128082,-0.13124847428246075,4.790219264540563e-157
1970-01-01 00:00:00.000000019,-0.46153846153846145,-0.06907326520664524,-0.12528436857470657,1.776595666436836e-158
1970-01-01 00:00:00.000000019,-0.5192307692307693,-0.04215258712814034,-0.0014294772346160724,6.589034838898696e-160
1970-01-01 00:00:00.000000019,-0.5576923076923076,-0.06904658725314385,0.08668848324007257,2.4437400658133544e-161
1970-01-01 00:00:00.000000019,-0.5576923076923076,-0.07210526870674332,0.09201852471657535,9.06333879737022e-163
1970-01-01 00:00:00.000000019,-0.548076923076923,-0.12779566782892546,0.14781168410746204,3.36140947660798e-164
1970-01-01 00:00:00.000000019,-0.548076923076923,-0.12837776267424375,0.1488969461848994,1.24667894713463e-165
1970-01-01 00:00:00.000000019,-0.5,-0.08840392437565517,0.12240586288482229,4.623680655523926e-167
1970-01-01 00:00:00.000000019,-0.5,-0.008528195468446248,0.15606135170530247,1.714829856829005e-168
1970-01-01 00:00:00.000000019,-0.5576923076923076,0.10814264672760625,0.0912506331583441,6.359957914392271e-170
1970-01-01 00:00:00.000000019,-0.5961538461538461,0.17837965711381457,0.05770574356998843,2.358780056911169e-171
1970-01-01 00:00:00.000000019,-0.6634615384615383,0.2081080953453872,-0.03319555676865647,8.748239267890666e-173
1970-01-01 00:00:00.000000019,-0.6634615384615383,0.190538917211641,-0.20398577632371337,3.2445454193165786e-174
1970-01-01 00:00:00.000000019,-0.6634615384615383,0.18644266936892007,-0.22442040397160543,1.2033364264105713e-175
1970-01-01 00:00:00.000000019,-0.41346153846153844,0.09341315574920098,-0.6053651309096335,4.462931991969373e-177
1970-01-01 00:00:00.000000019,-0.41346153846153844,0.08571253585950661,-0.6204381305884992,1.6552114211614393e-178
1970-01-01 00:00:00.000000019,-0.2115384615384615,-0.029174687542522268,-0.6464643949798426,6.1388451665254056e-180
1970-01-01 00:00:00.000000019,-0.09615384615384615,-0.12342909950760789,-0.5841005338672544,2.2767738004205502e-181
1970-01-01 00:00:00.000000019,-0.03846153846153846,-0.30341099916289066,-0.37425001943602654,8.444094610086758e-183
1970-01-01 00:00:00.000000019,-0.05769230769230768,-0.3186678778904396,-0.2706499909054627,3.1317443028782983e-184
1970-01-01 00:00:00.000000019,-0.08653846153846152,-0.30062170387897874,-0.18329973501146643,1.1615007684654435e-185
1970-01-01 00:00:00.000000019,-0.08653846153846152,-0.29811812684198574,-0.1784428544041315,4.307771978401648e-187
1970-01-01 00:00:00.000000019,-0.15384615384615383,-0.24856772085463555,-0.1346573339000842,1.5976657030041893e-188
1970-01-01 00:00:00.000000019,-0.1346153846153846,-0.16321033623317452,-0.20730516089814185,5.925419709663837e-190
1970-01-01 00:00:00.000000019,-0.1346153846153846,-0.1581113574410758,-0.21258201034974647,2.1976186050468553e-191
1970-01-01 00:00:00.000000019,-0.09807692307692306,-0.1057963146758722,-0.2824091185450129,8.15052396266808e-193
1970-01-01 00:00:00.000000019,-0.09615384615384615,-0.1483891388074735,-0.33746419036560243,3.0228648735256795e-194
1970-01-01 00:00:00.000000019,-0.07692307692307691,-0.15071043312591312,-0.32912402132625246,1.1211195851271649e-195
1970-01-01 00:00:00.000000019,-0.04903846153846153,-0.17079255559218037,-0.2988843854432141,4.1580063176615664e-197
1970-01-01 00:00:00.000000019,-0.03846153846153846,-0.21068856786295656,-0.2407543856405281,1.542120641461499e-198
1970-01-01 00:00:00.000000019,-0.03846153846153846,-0.2677987767076466,-0.20148402685104458,5.719414284485922e-200
1970-01-01 00:00:00.000000019,-0.03846153846153846,-0.26987840324350265,-0.19931433933767573,2.1212153497005326e-201
1970-01-01 00:00:00.000000019,-0.01923076923076923,-0.2689181108669238,-0.18000313526619943,7.86715970551445e-203
1970-01-01 00:00:00.000000019,-0.02884615384615384,-0.24091059016344005,-0.16077031284970875,2.9177707883741273e-204
1970-01-01 00:00:00.000000019,-0.02884615384615384,-0.23566782354595814,-0.16079531167593636,1.0821423095710097e-205
1970-01-01 00:00:00.000000019,-0.09615384615384615,-0.12212064557743037,-0.18070310240057316,4.013447467599783e-207
1970-01-01 00:00:00.000000019,-0.09615384615384615,-0.061589607044662105,-0.21818845313953908,1.488506680934478e-208
1970-01-01 00:00:00.000000019,-0.09615384615384615,-0.04079874462844647,-0.21038513236698203,5.520570923310563e-210
1970-01-01 00:00:00.000000019,-0.09615384615384615,-0.03997649792339269,-0.21221012076897633,2.0474683593740292e-211
1970-01-01 00:00:00.000000019,-0.09615384615384615,-0.038566699303156135,-0.2692881283953793,7.593646999328582e-213
1970-01-01 00:00:00.000000019,-0.07692307692307691,-0.0013243832618227858,-0.308569345906265,2.8163304446883585e-214
1970-01-01 00:00:00.000000019,-0.07692307692307691,0.0028083512339409046,-0.3120842110737767,1.044520132997996e-215
1970-01-01 00:00:00.000000019,0.009615384615384614,0.07714986657822727,-0.36770435308570587,3.873914406229682e-217
1970-01-01 00:00:00.000000019,0.009615384615384614,0.08023804637819544,-0.3659333222402829,1.4367566840210154e-218
1970-01-01 00:00:00.000000019,0.02884615384615384,0.08927738563304964,-0.2624953474019318,5.328640627060549e-220
1970-01-01 00:00:00.000000019,0.03846153846153846,0.08025136571414486,-0.2214410576118759,1.9762852853340094e-221
1970-01-01 00:00:00.000000019,0.03846153846153846,0.07750948864886138,-0.21641320811871834,7.32964334129294e-223
1970-01-01 00:00:00.000000019,0.05769230769230768,0.012504827805112617,-0.12171556159351907,2.718416815084468e-224
1970-01-01 00:00:00.000000019,0.04807692307692307,0.01012086208917936,-0.06990695490629671,1.0082059435146309e-225
1970-01-01 00:00:00.000000019,0.04807692307692307,0.01075844860273009,-0.015772220876491702,3.739232405044711e-227
1970-01-01 00:00:00.000000019,0.03846153846153846,0.030357250184533096,0.019056991241020636,1.386805847443764e-228
1970-01-01 00:00:00.000000019,0.04807692307692307,0.05888730637966351,0.030310984384048858,5.143383053456462e-230
1970-01-01 00:00:00.000000019,0.0673076923076923,0.059600022066381736,0.04933958712829863,1.907576989478748e-231
1970-01-01 00:00:00.000000019,0.08942307692307691,0.0503132894126435,0.05185786808001399,7.074818136174829e-233
1970-01-01 00:00:00.000000019,0.08653846153846152,0.0488587920749926,0.050822851032079196,2.623907288461554e-234
1970-01-01 00:00:00.000000019,0.09615384615384615,0.018874096612156707,0.07035910978612424,9.73154267137692e-236
1970-01-01 00:00:00.000000019,0.11538461538461536,-0.03925818354676148,0.09887311319327506,3.609232810217005e-237
1970-01-01 00:00:00.000000019,0.125,-0.07884505237471655,0.0992149464323024,1.3385916209011325e-238
1970-01-01 00:00:00.000000019,0.1346153846153846,-0.0895582305705856,0.07993044047888943,4.964566216051282e-240
1970-01-01 00:00:00.000000019,0.1346153846153846,-0.0892271730310948,0.0589069464977124,1.8412574327161514e-241
1970-01-01 00:00:00.000000019,0.1346153846153846,-0.06957544126897398,0.010557114959345472,6.828852282343023e-243
1970-01-01 00:00:00.000000019,0.15384615384615383,-0.039309741231202636,-0.023864842595384614,2.532683516463524e-244
1970-01-01 00:00:00.000000019,0.18269230769230768,0.008212428026502794,-0.15490786503473009,9.39321210849971e-246
1970-01-01 00:00:00.000000019,0.18269230769230768,0.011045297946777981,-0.1586475133423272,3.483752831402635e-247
1970-01-01 00:00:00.000000019,0.18269230769230768,0.04001061653650272,-0.12857499520810506,1.2920536287393913e-248
1970-01-01 00:00:00.000000019,0.15384615384615383,0.06924134853879546,-0.06287735727650887,4.791966193728185e-250
1970-01-01 00:00:00.000000019,0.0,0.07950579401097428,0.18088634874236603,1.777243567222356e-251
1970-01-01 00:00:00.000000019,0.0,0.07741508975750991,0.19680877332039115,6.591437772176407e-253
1970-01-01 00:00:00.000000019,-0.07692307692307691,0.010701629441793249,0.3829505309081952,2.4446312652788028e-254
1970-01-01 00:00:00.000000019,-0.125,-0.038471094829092056,0.3928555612008771,9.066644076358113e-256
1970-01-01 00:00:00.000000019,-0.05769230769230768,-0.04942118982727875,0.2241496215154855,3.362635337889479e-257
1970-01-01 00:00:00.000000019,0.02884615384615384,-0.045901030507434104,-0.09081578028276868,1.2471335943480634e-258
1970-01-01 00:00:00.000000019,0.0673076923076923,0.060093366126558176,-0.4261756891502386,4.625366850298184e-260
1970-01-01 00:00:00.000000019,0.009615384615384614,0.16842191592450445,-0.41592782677367396,1.7154552324461293e-261
1970-01-01 00:00:00.000000019,-0.04807692307692307,0.23729836383506103,-0.3038756337389588,6.362277306365625e-263
1970-01-01 00:00:00.000000019,-0.04807692307692307,0.23863390762214343,-0.2887142841782144,2.359640272592548e-264
1970-01-01 00:00:00.000000019,-0.18846153846153846,0.20581714196281184,0.00858996092717065,8.751429634275473e-266
1970-01-01 00:00:00.000000019,-0.1923076923076923,0.19342892537377673,0.020643229211820394,3.2457286618323354e-267
1970-01-01 00:00:00.000000019,-0.24038461538461536,0.01676384312915968,0.048777227791979925,1.203775267183769e-268
1970-01-01 00:00:00.000000019,-0.24038461538461536,0.00919483911353456,0.04634192117163756,4.464559563846279e-270
1970-01-01 00:00:00.000000019,-0.22115384615384615,-0.018503187063726584,-0.047545356157765784,1.6558150547288542e-271
1970-01-01 00:00:00.000000019,-0.23076923076923073,-0.008780889834152266,-0.08006653743131378,6.141083921623577e-273
1970-01-01 00:00:00.000000019,-0.23076923076923073,0.03141916154161543,-0.11425115448770613,2.27760410951205e-274
1970-01-01 00:00:00.000000019,-0.23076923076923073,0.10709825145776874,-0.25471463373675185,8.447174058964352e-276
1970-01-01 00:00:00.000000019,-0.23076923076923073,0.11023362781814076,-0.2630439564045931,3.132886408328758e-277
1970-01-01 00:00:00.000000019,-0.1923076923076923,0.11920969963203189,-0.3474721891872624,1.1619243523312007e-278
1970-01-01 00:00:00.000000019,-0.125,0.10842826224672035,-0.3687051516514924,4.3093429654874557e-280
1970-01-01 00:00:00.000000019,-0.0673076923076923,0.05835338102941759,-0.3575669054030324,1.5982483504143684e-281
1970-01-01 00:00:00.000000019,-0.01923076923076923,-0.03288697445244547,-0.2856012942303819,5.927580631339469e-283
1970-01-01 00:00:00.000000019,0.01923076923076923,-0.19630169124544514,-0.10366803881727851,2.1984200472924844e-284
1970-01-01 00:00:00.000000019,0.0,-0.26725868917457246,-0.013435753836137512,8.153496350239179e-286
1970-01-01 00:00:00.000000019,0.0,-0.2696829164680107,-0.009097314758434637,3.023967272097886e-287
1970-01-01 00:00:00.000000019,-0.009615384615384614,-0.2641800554617146,0.017808255358402376,1.121528442512996e-288
1970-01-01 00:00:00.000000019,-0.03846153846153846,-0.11317858099828257,-0.010079790564701265,4.159522687204895e-290
1970-01-01 00:00:00.000000019,-0.009615384615384614,-0.04164163149191543,-0.03996260060533648,1.5426830323272623e-291
1970-01-01 00:00:00.000000019,0.007692307692307692,-0.011145469283433952,-0.06891042577938367,5.721500078725767e-293
1970-01-01 00:00:00.000000019,0.0,-0.009286039160801337,-0.07061889543802247,2.1219889286961796e-294
1970-01-01 00:00:00.000000019,0.009615384615384614,0.010422411941797834,-0.08779975104722246,7.870028753913723e-296
1970-01-01 00:00:00.000000019,0.009615384615384614,0.04069116158934281,-0.04997438283698372,2.9188348605327192e-297
1970-01-01 00:00:00.000000019,-0.009615384615384614,0.08823895097045797,-0.01150858555133812,1.0825369524633959e-298
1970-01-01 00:00:00.000000019,-0.009615384615384614,0.09176051461302247,-0.01075742704914547,4.014911118455173e-300
1970-01-01 00:00:00.000000020,-0.01923076923076923,0.1392949435811488,-0.028941944775589604,1.4890495195026654e-301
1970-01-01 00:00:00.000000020,-0.009615384615384614,0.16920296207799465,-0.0206750818917738,5.522584202024021e-303
1970-01-01 00:00:00.000000020,0.0,0.17918503252470683,-0.029285266302303003,2.0482150438241845e-304
1970-01-01 00:00:00.000000020,0.02884615384615384,0.16879291608908994,-0.020027108270407337,7.596416301285522e-306
1970-01-01 00:00:00.000000020,0.05769230769230768,0.12822370188072107,-0.011446656998695142,2.817357522904204e-307
1970-01-01 00:00:00.000000020,0.125,0.043247034690378994,-0.03903263069436153,1.044901055583495e-308
1970-01-01 00:00:00.000000020,0.125,0.0394462347595116,-0.04243437174906616,3.87532717123535e-310
1970-01-01 00:00:00.000000020,0.15384615384615383,0.0218013038164344,-0.10669540653042474,1.4372806500544e-311
1970-01-01 00:00:00.000000020,0.15384615384615383,0.049188968284217295,-0.08834160457240173,5.33058391135e-313
1970-01-01 00:00:00.000000020,0.1394230769230769,0.05630083985743231,-0.02852791692442222,1.9770060104e-314
1970-01-01 00:00:00.000000020,0.14519230769230768,-0.029066292133544936,0.0680878476130018,7.3323164e-316
1970-01-01 00:00:00.000000020,0.15384615384615383,-0.0910907274631455,0.1168998024754704,2.719408e-317
1970-01-01 00:00:00.000000020,0.19711538461538458,-0.1803833493713835,0.08820681922469868,1.008576e-318
1970-01-01 00:00:00.000000020,0.18269230769230768,-0.1792597055642097,0.039684316591394146,3.7406e-320
1970-01-01 00:00:00.000000020,0.15384615384615383,-0.15962870086227837,-0.016730271257056655,1.39e-321
1970-01-01 00:00:00.000000020,0.1346153846153846,-0.1307152177173062,0.008598359468076296,5.4e-323
1970-01-01 00:00:00.000000020,0.07692307692307691,-0.11968217750498963,-0.0011140231048834422,0.0
1970-01-01 00:00:00.000000020,0.07692307692307691,-0.100703574917414,-0.03867698329992924,0.0
1970-01-01 00:00:00.000000020,0.0923076923076923,-0.09931434526518808,-0.043164525993205874,0.0
1970-01-01 00:00:00.000000020,0.08653846153846152,-0.08078374724266414,-0.12676521851662934,0.0
1970-01-01 00:00:00.000000020,0.08653846153846152,-0.08184683028674371,-0.12949637395578634,0.0
1970-01-01 00:00:00.000000020,0.03846153846153846,-0.12908067049941582,-0.11963687828960175,0.0
1970-01-01 00:00:00.000000020,0.02884615384615384,-0.15333127319748324,-0.10069933986346111,0.0
1970-01-01 00:00:00.000000020,0.01923076923076923,-0.16086370583263224,-0.09924529802384811,0.0
1970-01-01 00:00:00.000000020,0.0,-0.1899887842835876,-0.07892370678043802,0.0
1970-01-01 00:00:00.000000020,-0.09615384615384615,-0.21883346982423246,-0.031694785047978374,0.0
1970-01-01 00:00:00.000000020,-0.09615384615384615,-0.21851490097068854,-0.026835489514978283,0.0
1970-01-01 00:00:00.000000020,-0.1923076923076923,-0.1810688563843575,0.05713656814356478,0.0
1970-01-01 00:00:00.000000020,-0.24038461538461536,-0.17034422140696376,0.06952282939122714,0.0
1970-01-01 00:00:00.000000020,-0.24038461538461536,-0.16822512160366365,0.06997982541956792,0.0
1970-01-01 00:00:00.000000020,-0.3365384615384615,-0.12173406189195414,0.06993245693710665,0.0
1970-01-01 00:00:00.000000020,-0.3365384615384615,-0.11859454947909841,0.06819651188231128,0.0
1970-01-01 00:00:00.000000020,-0.3557692307692307,-0.08031877404370305,0.02137336388529745,0.0
1970-01-01 00:00:00.000000020,-0.3846153846153846,-0.05001234970088409,0.008884313020719854,0.0
1970-01-01 00:00:00.000000020,-0.4038461538461538,-0.020014667880167526,-0.031496912325861375,0.0
1970-01-01 00:00:00.000000020,-0.41346153846153844,0.009616316936360838,-0.10930094581897701,0.0
1970-01-01 00:00:00.000000020,-0.423076923076923,0.029655225161910163,-0.16962862478651766,0.0
1970-01-01 00:00:00.000000020,-0.41346153846153844,0.04107476243521351,-0.22067192341699987,0.0
1970-01-01 00:00:00.000000020,-0.4038461538461538,0.07936336058885475,-0.2885133074724795,0.0
1970-01-01 00:00:00.000000020,-0.41346153846153844,0.10173597346386477,-0.3191873783399468,0.0
1970-01-01 00:00:00.000000020,-0.39423076923076916,0.16750792293549432,-0.329545907706084,0.0
1970-01-01 00:00:00.000000020,-0.39423076923076916,0.17097794579448167,-0.32855212972432135,0.0
1970-01-01 00:00:00.000000020,-0.3461538461538461,0.19889661351551013,-0.29136159485059276,0.0
1970-01-01 00:00:00.000000020,-0.3461538461538461,0.19923061912429166,-0.2882109312416849,0.0
1970-01-01 00:00:00.000000020,-0.2980769230769231,0.18033010284036438,-0.24033354867490075,0.0
1970-01-01 00:00:00.000000020,-0.2788461538461538,0.16968215756554686,-0.2007948829806361,0.0
1970-01-01 00:00:00.000000020,-0.25961538461538464,0.1510881514294003,-0.18112829180227402,0.0
1970-01-01 00:00:00.000000020,-0.25961538461538464,0.15969793102826108,-0.18966899568076243,0.0
1970-01-01 00:00:00.000000020,-0.25961538461538464,0.16075598633364885,-0.1899345915783113,0.0
1970-01-01 00:00:00.000000020,-0.24038461538461536,0.18071369998025813,-0.1885649769336423,0.0
1970-01-01 00:00:00.000000020,-0.18269230769230768,0.21851391313332122,-0.1513197856300307,0.0
1970-01-01 00:00:00.000000020,-0.18269230769230768,0.21916195461941496,-0.14706923507718678,0.0
1970-01-01 00:00:00.000000020,-0.15384615384615383,0.1988588615908824,-0.06954956145401237,0.0
1970-01-01 00:00:00.000000020,-0.14423076923076922,0.1500273083344092,0.019231075818852847,0.0
1970-01-01 00:00:00.000000020,-0.125,0.10187846343816631,0.08878860856303908,0.0
1970-01-01 00:00:00.000000020,-0.11538461538461536,0.1006912044960813,0.12806135538320218,0.0
1970-01-01 00:00:00.000000020,-0.10576923076923075,0.11678405795602827,0.11886798678341962,0.0
1970-01-01 00:00:00.000000020,-0.04807692307692307,0.052478360316682064,0.08137428776912756,0.0
1970-01-01 00:00:00.000000020,-0.04807692307692307,0.050131670594387355,0.07823778298302456,0.0
1970-01-01 00:00:00.000000020,-0.02884615384615384,0.05107674573177642,0.031045852772535493,0.0
1970-01-01 00:00:00.000000020,0.009615384615384614,0.07894046416357603,0.010000241875433781,0.0
1970-01-01 00:00:00.000000020,0.02884615384615384,0.08031578668477656,-0.011039322135823478,0.0
1970-01-01 00:00:00.000000020,0.04807692307692307,0.08958577632539098,-0.05806193954266768,0.0
1970-01-01 00:00:00.000000020,0.05769230769230768,0.08850017410077984,-0.05663304551620378,0.0
1970-01-01 00:00:00.000000020,0.03846153846153846,0.04991892439566502,0.02896971060516547,0.0
1970-01-01 00:00:00.000000020,0.01923076923076923,0.009310784582175585,0.08881523185567147,0.0
1970-01-01 00:00:00.000000020,0.0,-0.04852774067692421,0.11904154949796421,0.0
1970-01-01 00:00:00.000000020,-0.03846153846153846,-0.06955978285912919,0.12530660458936224,0.0
1970-01-01 00:00:00.000000020,-0.01923076923076923,-0.07958639651956355,0.014236774414816472,0.0
1970-01-01 00:00:00.000000020,-0.01923076923076923,-0.07927292316908667,0.009086304610682775,0.0
1970-01-01 00:00:00.000000020,-0.009615384615384614,-0.060782529045776516,-0.01890654992638155,0.0
1970-01-01 00:00:00.000000020,-0.009615384615384614,-0.06185536106687937,-0.019563152622984706,0.0
1970-01-01 00:00:00.000000020,-0.01923076923076923,-0.10931221975996644,-0.009298570894205457,0.0
1970-01-01 00:00:00.000000020,-0.03846153846153846,-0.13957457245221444,0.01850173847943738,0.0
1970-01-01 00:00:00.000000020,-0.05769230769230768,-0.15920123644982337,0.008845509839014602,0.0
1970-01-01 00:00:00.000000020,-0.09615384615384615,-0.15885881169301605,-0.02967297282604312,0.0
1970-01-01 00:00:00.000000020,-0.125,-0.12998667926161034,-0.060015776142178776,0.0
1970-01-01 00:00:00.000000020,-0.125,-0.1007815283704633,-0.0907529830127838,0.0
1970-01-01 00:00:00.000000020,-0.1346153846153846,-0.09111458674089853,-0.1403147652029837,0.0
1970-01-01 00:00:00.000000020,-0.08653846153846152,-0.10931231363379722,-0.19774567746777608,0.0
1970-01-01 00:00:00.000000020,-0.08653846153846152,-0.11031788137162638,-0.19881852642696984,0.0
1970-01-01 00:00:00.000000020,-0.11538461538461536,-0.11927048340011502,-0.17035453606040926,0.0
1970-01-01 00:00:00.000000020,-0.1346153846153846,-0.10998517043147936,-0.15075394720407964,0.0
1970-01-01 00:00:00.000000020,-0.125,-0.10032911824982742,-0.15000203844974075,0.0
1970-01-01 00:00:00.000000020,-0.125,-0.09890102231386082,-0.14930109093892094,0.0
1970-01-01 00:00:00.000000020,-0.1346153846153846,-0.06999848422441457,-0.13112741690112512,0.0
1970-01-01 00:00:00.000000020,-0.1346153846153846,-0.04105805174533264,-0.14113916539145688,0.0
1970-01-01 00:00:00.000000020,-0.1346153846153846,-0.0385689128995666,-0.17963004866821025,0.0
1970-01-01 00:00:00.000000020,-0.11538461538461536,-0.00030259654296537885,-0.2088721486502207,0.0
1970-01-01 00:00:00.000000020,-0.11538461538461536,0.03039880623950125,-0.20991796488774914,0.0
1970-01-01 00:00:00.000000020,-0.1346153846153846,0.07107036500949912,-0.2089129033190058,0.0
1970-01-01 00:00:00.000000020,-0.15384615384615383,0.1385010490169747,-0.1807304247254077,0.0
1970-01-01 00:00:00.000000020,-0.15384615384615383,0.1684579584488172,-0.17080856426700192,0.0
1970-01-01 00:00:00.000000020,-0.1346153846153846,0.15986382910108904,-0.18110081048364354,0.0
1970-01-01 00:00:00.000000020,-0.09615384615384615,0.1478654272805866,-0.21891331879137363,0.0
1970-01-01 00:00:00.000000021,-0.01923076923076923,0.08250270747474968,-0.2295587968834449,0.0
1970-01-01 00:00:00.000000021,-0.01923076923076923,0.07970767453765486,-0.22917419706163863,0.0
1970-01-01 00:00:00.000000021,0.01923076923076923,0.0696045050419313,-0.20814452378079784,0.0
1970-01-01 00:00:00.000000021,0.02884615384615384,0.049613961594489976,-0.14072794501990346,0.0
1970-01-01 00:00:00.000000021,0.03846153846153846,0.01997245800929807,-0.09150999175659531,0.0
1970-01-01 00:00:00.000000021,0.04807692307692307,-0.010357595343442029,-0.08004183240817003,0.0
1970-01-01 00:00:00.000000021,0.07692307692307691,-0.04962753228223291,-0.06961948326399556,0.0
1970-01-01 00:00:00.000000021,0.11538461538461536,-0.0795857762768465,-0.04968421571970985,0.0
1970-01-01 00:00:00.000000021,0.11538461538461536,-0.09918842719262277,-0.02185434116817026,0.0
1970-01-01 00:00:00.000000021,0.11538461538461536,-0.09850175792396845,-0.04038299582088717,0.0
1970-01-01 00:00:00.000000021,0.1346153846153846,-0.06035903675452524,-0.0684865459957832,0.0
1970-01-01 00:00:00.000000021,0.125,-0.03119223444821297,-0.05875374606525901,0.0
1970-01-01 00:00:00.000000021,0.09615384615384615,-0.03183129334722506,-0.017864597766210126,0.0
1970-01-01 00:00:00.000000021,0.03846153846153846,-0.07825268592686371,0.0764096063775858,0.0
1970-01-01 00:00:00.000000021,0.03846153846153846,-0.08099122667809515,0.08092396996102619,0.0
1970-01-01 00:00:00.000000021,0.02884615384615384,-0.10851043438170521,0.10853758257012094,0.0
1970-01-01 00:00:00.000000021,0.02884615384615384,-0.09879050162794552,0.09959075943223941,0.0
1970-01-01 00:00:00.000000021,0.02884615384615384,-0.05883310957282352,0.08041292210034315,0.0
1970-01-01 00:00:00.000000021,0.03846153846153846,0.010296543161710414,0.07155813727702572,0.0
1970-01-01 00:00:00.000000021,0.0,0.08683977493900451,0.10165678437935105,0.0
1970-01-01 00:00:00.000000021,-0.08653846153846152,0.08437738019141132,0.423175040965453,0.0
1970-01-01 00:00:00.000000021,-0.1923076923076923,-0.05865050977089896,0.5740693216878799,0.0
1970-01-01 00:00:00.000000021,-0.17307692307692304,-0.16794114400568314,0.5766966446073089,0.0
1970-01-01 00:00:00.000000021,-0.10576923076923075,-0.2257603783825453,0.2467400827094582,0.0
1970-01-01 00:00:00.000000021,-0.01923076923076923,-0.17758907232304033,-0.16471441145193694,0.0
1970-01-01 00:00:00.000000021,0.01923076923076923,-0.06914457433954324,-0.44402919191175466,0.0
1970-01-01 00:00:00.000000021,0.01923076923076923,0.06068556515537276,-0.5740737701654389,0.0
1970-01-01 00:00:00.000000021,-0.009615384615384614,0.2076548335346078,-0.5559626025550959,0.0
1970-01-01 00:00:00.000000021,-0.03846153846153846,0.2959949402790385,-0.43691649882214745,0.0
1970-01-01 00:00:00.000000021,-0.07692307692307691,0.28420855399943207,-0.2407828656428846,0.0
1970-01-01 00:00:00.000000021,-0.10576923076923075,0.12763601770562788,-0.06422087353573681,0.0
1970-01-01 00:00:00.000000021,-0.10576923076923075,-0.08803607594747945,0.006819280177990597,0.0
1970-01-01 00:00:00.000000021,-0.07692307692307691,-0.2546100682875729,-0.001658561658517035,0.0
1970-01-01 00:00:00.000000021,-0.05769230769230768,-0.28643576781698793,-0.051600444957950575,0.0
1970-01-01 00:00:00.000000021,-0.02884615384615384,-0.22915566277110064,-0.14155345220614837,0.0
1970-01-01 00:00:00.000000021,0.0,-0.15076712700272912,-0.27034276460805506,0.0
1970-01-01 00:00:00.000000021,0.03846153846153846,-0.09155676630258562,-0.40770119221133705,0.0
1970-01-01 00:00:00.000000021,0.09615384615384615,-0.07126556316708267,-0.4875894250980448,0.0
1970-01-01 00:00:00.000000021,0.1346153846153846,-0.0826134392086465,-0.5072132854358737,0.0
1970-01-01 00:00:00.000000021,0.18269230769230768,-0.15929729546637283,-0.4571692816705448,0.0
1970-01-01 00:00:00.000000021,0.1923076923076923,-0.21841353838341995,-0.3363573196688362,0.0
1970-01-01 00:00:00.000000021,0.1923076923076923,-0.23786824088596578,-0.12447834938803204,0.0
1970-01-01 00:00:00.000000021,0.1923076923076923,-0.20402896553765637,-0.024558113808029507,0.0
1970-01-01 00:00:00.000000021,0.1875,-0.14591382863075691,-0.038590723428764594,0.0
1970-01-01 00:00:00.000000021,0.2115384615384615,-0.11064440749278046,-0.017391418768614563,0.0
1970-01-01 00:00:00.000000021,0.17307692307692304,-0.0914851736743156,0.06902241667617147,0.0
1970-01-01 00:00:00.000000021,0.16346153846153846,-0.10945528171374078,0.13099666902524434,0.0
1970-01-01 00:00:00.000000021,0.15384615384615383,-0.11380743259668538,0.21788764700542632,0.0
1970-01-01 00:00:00.000000021,0.12980769230769232,-0.08834539839676406,0.2519698001212657,0.0
1970-01-01 00:00:00.000000021,0.07692307692307691,-0.021518324115944083,0.2102969562687474,0.0
1970-01-01 00:00:00.000000021,0.0673076923076923,0.007350647266273735,0.17604801913491375,0.0
1970-01-01 00:00:00.000000021,0.04807692307692307,-0.030014199694665195,0.16799956037392394,0.0
1970-01-01 00:00:00.000000021,0.05769230769230768,-0.06773403902223399,0.10994011096103204,0.0
1970-01-01 00:00:00.000000021,0.04807692307692307,-0.0488048539056521,0.0503834355739411,0.0
1970-01-01 00:00:00.000000021,0.05769230769230768,2.9835696274218594e-06,0.00041264953537752916,0.0
1970-01-01 00:00:00.000000021,0.0673076923076923,0.04888541028559247,-0.039241898118747696,0.0
1970-01-01 00:00:00.000000021,0.07692307692307691,0.06990309414136921,-0.059943898741565305,0.0
1970-01-01 00:00:00.000000021,0.08653846153846152,0.08849813153137606,-0.07924336790351541,0.0
1970-01-01 00:00:00.000000021,0.08653846153846152,0.06954645720578455,-0.07962703465335065,0.0
1970-01-01 00:00:00.000000021,0.07692307692307691,0.03925621302480647,-0.07068656773695223,0.0
1970-01-01 00:00:00.000000021,0.08653846153846152,-0.009628705536009963,-0.07891029424435929,0.0
1970-01-01 00:00:00.000000021,0.07692307692307691,-0.049231262497075434,-0.05989137686074839,0.0
1970-01-01 00:00:00.000000021,0.0673076923076923,-0.06961538188502682,-0.03815688099584727,0.0
1970-01-01 00:00:00.000000021,0.04807692307692307,-0.08038404839864834,0.029655589972872327,0.0
1970-01-01 00:00:00.000000021,0.03846153846153846,-0.10075392487847815,0.08885781026339999,0.0
1970-01-01 00:00:00.000000021,0.01923076923076923,-0.13997192332026154,0.11950528713892763,0.0
1970-01-01 00:00:00.000000021,0.0,-0.17848800476858293,0.13778494248764625,0.0
1970-01-01 00:00:00.000000021,0.0,-0.17920420543147797,0.10068816002752096,0.0
1970-01-01 00:00:00.000000021,0.0,-0.16002554188132204,0.08079537825541937,0.0
1970-01-01 00:00:00.000000021,-0.02884615384615384,-0.14148542536421654,0.08078705286880168,0.0
1970-01-01 00:00:00.000000021,-0.04807692307692307,-0.1600809429525248,0.10045504920222582,0.0
1970-01-01 00:00:00.000000021,-0.08653846153846152,-0.18070003435395307,0.13149927559129526,0.0
1970-01-01 00:00:00.000000021,-0.125,-0.21881998460420868,0.20002539176274664,0.0
1970-01-01 00:00:00.000000021,-0.17307692307692304,-0.22743954995968063,0.26918630200286353,0.0
1970-01-01 00:00:00.000000021,-0.3269230769230769,-0.17204786430716854,0.31800476231456754,0.0
1970-01-01 00:00:00.000000021,-0.3269230769230769,-0.1678527863338689,0.31694228049045997,0.0
1970-01-01 00:00:00.000000021,-0.3365384615384615,-0.10997736670729198,0.23943681092785138,0.0
1970-01-01 00:00:00.000000021,-0.28846153846153844,-0.05153611476301499,0.14785161456152826,0.0
1970-01-01 00:00:00.000000021,-0.3269230769230769,-0.03149773189411274,0.0025567822334116265,0.0
1970-01-01 00:00:00.000000021,-0.3557692307692307,-0.048902646378029074,-0.07881849425941394,0.0
1970-01-01 00:00:00.000000021,-0.3557692307692307,-0.03887372031267223,-0.1306561272375879,0.0
1970-01-01 00:00:00.000000021,-0.3846153846153846,-0.0006878020641210192,-0.19889694115545964,0.0
1970-01-01 00:00:00.000000021,-0.4038461538461538,0.02030306458140475,-0.23956128395982218,0.0
1970-01-01 00:00:00.000000021,-0.423076923076923,0.0488705457620493,-0.2692577257597395,0.0
1970-01-01 00:00:00.000000021,-0.41346153846153844,0.04920167099392609,-0.2803973115531442,0.0
1970-01-01 00:00:00.000000021,-0.4038461538461538,0.029574571073955034,-0.30146968617515324,0.0
1970-01-01 00:00:00.000000021,-0.375,-0.0006882519971401597,-0.35928421517599324,0.0
1970-01-01 00:00:00.000000021,-0.3269230769230769,-0.04815737499673938,-0.39920412357666446,0.0
1970-01-01 00:00:00.000000021,-0.2788461538461538,-0.04956087291482313,-0.41922712139394613,0.0
1970-01-01 00:00:00.000000021,-0.2692307692307692,-0.03998619370348505,-0.41992815405988265,0.0
1970-01-01 00:00:00.000000021,-0.2692307692307692,-0.03006635707927336,-0.4188330382228856,0.0
1970-01-01 00:00:00.000000021,-0.28846153846153844,-0.021805447436895626,-0.3885638779580289,0.0
1970-01-01 00:00:00.000000022,-0.2692307692307692,-0.058680723716908495,-0.3223916666438926,0.0
1970-01-01 00:00:00.000000022,-0.2692307692307692,-0.06257409291963374,-0.3160111214270725,0.0
1970-01-01 00:00:00.000000022,-0.25,-0.13081978511320266,-0.209908611887064,0.0
1970-01-01 00:00:00.000000022,-0.25,-0.2195601051368386,-0.10152139952365563,0.0
1970-01-01 00:00:00.000000022,-0.25,-0.29730305358143994,-0.031169175251637808,0.0
1970-01-01 00:00:00.000000022,-0.24038461538461536,-0.3076223415620401,0.009953667729434618,0.0
1970-01-01 00:00:00.000000022,-0.25,-0.2585001685936427,0.04991820394637241,0.0
1970-01-01 00:00:00.000000022,-0.23076923076923073,-0.17188221046631424,0.0878378388226205,0.0
1970-01-01 00:00:00.000000022,-0.1923076923076923,-0.13231951399684155,0.07170344426438087,0.0
1970-01-01 00:00:00.000000022,-0.15384615384615383,-0.1507446674484081,0.09815515631566285,0.0
1970-01-01 00:00:00.000000022,-0.1346153846153846,-0.1877865071101764,0.07848577625851597,0.0
1970-01-01 00:00:00.000000022,-0.11538461538461536,-0.16949102452635373,0.02096080266426808,0.0
1970-01-01 00:00:00.000000022,-0.07692307692307691,-0.1384711551013739,-0.012544104323277894,0.0
1970-01-01 00:00:00.000000022,-0.04807692307692307,-0.06923016321074142,-0.1096516193927712,0.0
1970-01-01 00:00:00.000000022,-0.02884615384615384,0.019256748411355717,-0.1980496192815444,0.0
1970-01-01 00:00:00.000000022,-0.02884615384615384,0.08916237031734552,-0.23768810120892736,0.0
1970-01-01 00:00:00.000000022,-0.02884615384615384,0.13812725015697297,-0.2195291133594939,0.0
1970-01-01 00:00:00.000000022,-0.04807692307692307,0.14027338392092414,-0.18959795949740796,0.0
1970-01-01 00:00:00.000000022,-0.0673076923076923,0.14925411570797872,-0.14961579307052109,0.0
1970-01-01 00:00:00.000000022,-0.08653846153846152,0.13958774019450143,-0.10002845340666122,0.0
1970-01-01 00:00:00.000000022,-0.08653846153846152,0.11961486954355964,-0.05115244890933219,0.0
1970-01-01 00:00:00.000000022,-0.09615384615384615,0.09001373748160897,-0.03108766714530795,0.0
1970-01-01 00:00:00.000000022,-0.08653846153846152,0.060756042459882816,-0.03821456401398253,0.0
1970-01-01 00:00:00.000000022,-0.11538461538461536,0.05039940893522715,-0.0007055612322203946,0.0
1970-01-01 00:00:00.000000022,-0.14423076923076922,0.05002799879125034,0.01916441074403188,0.0
1970-01-01 00:00:00.000000022,-0.14423076923076922,0.05035655842853194,0.01814465132108119,0.0
1970-01-01 00:00:00.000000022,-0.11538461538461536,0.05959907877911208,-0.029258825074839758,0.0
1970-01-01 00:00:00.000000022,-0.11538461538461536,0.058818568607494244,-0.05813292834175465,0.0
1970-01-01 00:00:00.000000022,-0.11538461538461536,0.028502273623232426,-0.04033024015253577,0.0
1970-01-01 00:00:00.000000022,-0.125,-0.03925718078021874,-0.030783555776711137,0.0
1970-01-01 00:00:00.000000022,-0.11538461538461536,-0.08844615468913827,-0.040825765818664914,0.0
1970-01-01 00:00:00.000000022,-0.09615384615384615,-0.0987889958265148,-0.07151212132724152,0.0
1970-01-01 00:00:00.000000022,-0.07692307692307691,-0.07885673262676149,-0.1400015100168559,0.0
1970-01-01 00:00:00.000000022,-0.0673076923076923,-0.030342785096045596,-0.20852864912786753,0.0
1970-01-01 00:00:00.000000022,-0.03846153846153846,0.00960153503353043,-0.2402720164355678,0.0
1970-01-01 00:00:00.000000022,-0.02884615384615384,0.03958423100136708,-0.2788157946324635,0.0
1970-01-01 00:00:00.000000022,-0.01923076923076923,0.059172702003380505,-0.2877544386409459,0.0
1970-01-01 00:00:00.000000022,-0.009615384615384614,0.05807872308990666,-0.24055404867307567,0.0
1970-01-01 00:00:00.000000022,-0.009615384615384614,0.008952821424099264,-0.2072048755320976,0.0
1970-01-01 00:00:00.000000022,-0.009615384615384614,-0.06635254463922666,-0.10397759069355919,0.0
1970-01-01 00:00:00.000000022,0.009615384615384614,-0.050471526683218776,-0.10019007319400046,0.0
1970-01-01 00:00:00.000000022,0.009615384615384614,-0.04637867580768033,-0.10115438554445319,0.0
1970-01-01 00:00:00.000000022,0.03846153846153846,0.0482472798758502,-0.13097833650623547,0.0
1970-01-01 00:00:00.000000022,0.05769230769230768,0.09905523245563562,-0.18526070012390486,0.0
1970-01-01 00:00:00.000000022,0.09615384615384615,0.12624399642631148,-0.12106056683919611,0.0
1970-01-01 00:00:00.000000022,0.125,0.0595326710547745,-0.08337460453439027,0.0
1970-01-01 00:00:00.000000022,0.16346153846153846,-0.018861877947399977,-0.13005375558934112,0.0
1970-01-01 00:00:00.000000022,0.2019230769230769,-0.06880337563457363,-0.1780767963778199,0.0
1970-01-01 00:00:00.000000022,0.23076923076923073,-0.0888292641860877,-0.17801974661179595,0.0
1970-01-01 00:00:00.000000022,0.23076923076923073,-0.07958675738979457,-0.12845636214067108,0.0
1970-01-01 00:00:00.000000022,0.22115384615384615,-0.060013185338365485,-0.0403020311863225,0.0
1970-01-01 00:00:00.000000022,0.2115384615384615,-0.04076924674607372,0.040301520109963816,0.0
1970-01-01 00:00:00.000000022,0.18269230769230768,-0.040756476805624976,0.12844307415534573,0.0
1970-01-01 00:00:00.000000022,0.16346153846153846,-0.05965562700580074,0.17766148208437077,0.0
1970-01-01 00:00:00.000000022,0.14423076923076922,-0.06994545235099502,0.16841694212266556,0.0
1970-01-01 00:00:00.000000022,0.1346153846153846,-0.0788715864710643,0.11959595522759864,0.0
1970-01-01 00:00:00.000000022,0.1346153846153846,-0.05958738236774116,0.060673849022497624,0.0
1970-01-01 00:00:00.000000022,0.14423076923076922,-0.02998773745794701,0.018597968379837307,0.0
1970-01-01 00:00:00.000000022,0.14423076923076922,-8.15289968281608e-05,-0.05852870276689025,0.0
1970-01-01 00:00:00.000000022,0.125,0.027786454543586622,-0.09887294308587413,0.0
1970-01-01 00:00:00.000000022,0.125,0.00031580167366689255,-0.11104076055171093,0.0
1970-01-01 00:00:00.000000022,0.1346153846153846,-0.019259809354580527,-0.14922759181032091,0.0
1970-01-01 00:00:00.000000022,0.11538461538461536,-0.020330654247341137,-0.1681042183269537,0.0
1970-01-01 00:00:00.000000022,0.10576923076923075,-0.029667855323630157,-0.13958630301742866,0.0
1970-01-01 00:00:00.000000022,0.08653846153846152,-0.030701439490673096,-0.10072596314361978,0.0
1970-01-01 00:00:00.000000022,0.08653846153846152,-0.049271010924543474,-0.08001470186030522,0.0
1970-01-01 00:00:00.000000022,0.0673076923076923,-0.049615855472000744,-0.05967098708462119,0.0
1970-01-01 00:00:00.000000022,0.009615384615384614,-0.0403570868194764,-0.03110194942446688,0.0
1970-01-01 00:00:00.000000022,0.009615384615384614,-0.040025488653861956,-0.030081647375984566,0.0
1970-01-01 00:00:00.000000022,-0.009615384615384614,-0.040331106834796314,-0.031102529727116468,0.0
1970-01-01 00:00:00.000000022,-0.03846153846153846,-0.048914395885638465,-0.0596866552561601,0.0
1970-01-01 00:00:00.000000022,-0.05769230769230768,-0.030357582077442248,-0.08043716218920616,0.0
1970-01-01 00:00:00.000000022,-0.04807692307692307,-0.020740320205302313,-0.112116723852406,0.0
1970-01-01 00:00:00.000000022,-0.0673076923076923,-0.029631063465720274,-0.19671438182575557,0.0
1970-01-01 00:00:00.000000022,-0.0673076923076923,-0.02929839336914511,-0.1991715854429938,0.0
1970-01-01 00:00:00.000000022,-0.08173076923076923,-0.011425557501197652,-0.18091842513507692,0.0
1970-01-01 00:00:00.000000022,-0.09134615384615384,-0.029191659163191577,-0.18562589320408254,0.0
1970-01-01 00:00:00.000000022,-0.08653846153846152,-0.02674923990497493,-0.20598069137515196,0.0
1970-01-01 00:00:00.000000022,-0.08653846153846152,-0.06803781827113152,-0.25085277392502114,0.0
1970-01-01 00:00:00.000000022,-0.0673076923076923,-0.06027185341557583,-0.3170442046004189,0.0
1970-01-01 00:00:00.000000022,-0.07692307692307691,-0.059302223949415964,-0.30934075028628866,0.0
1970-01-01 00:00:00.000000022,-0.08173076923076923,-0.04088819321865538,-0.28515605312937503,0.0
1970-01-01 00:00:00.000000022,-0.1923076923076923,-0.04467899295427949,-0.014872684206836533,0.0
1970-01-01 00:00:00.000000022,-0.17307692307692304,-0.1654446165468909,0.1335935795447881,0.0
1970-01-01 00:00:00.000000022,-0.17307692307692304,-0.17232565381177528,0.1218993319161144,0.0
1970-01-01 00:00:00.000000022,-0.02884615384615384,-0.2373480363710415,-0.34231161780969943,0.0
1970-01-01 00:00:00.000000022,-0.02884615384615384,-0.2360713282063458,-0.3643130127779976,0.0
1970-01-01 00:00:00.000000022,-0.009615384615384614,-0.13657782520029493,-0.4941397271962366,0.0
1970-01-01 00:00:00.000000022,-0.009615384615384614,0.0484700477983835,-0.47745962152039173,0.0
1970-01-01 00:00:00.000000022,0.0,0.19526911575664968,-0.397270053854341,0.0
1970-01-01 00:00:00.000000022,0.009615384615384614,0.22379607763115755,-0.2488318325468143,0.0
1970-01-01 00:00:00.000000022,0.01923076923076923,0.09722498028460416,-0.07118942490964417,0.0
1970-01-01 00:00:00.000000022,0.01923076923076923,-0.09872160994684538,0.07671735998642189,0.0
1970-01-01 00:00:00.000000022,0.03846153846153846,-0.2627084488494291,0.14255814454303548,0.0
1970-01-01 00:00:00.000000023,0.04807692307692307,-0.24440650898774005,0.022352542675535905,0.0
1970-01-01 00:00:00.000000023,0.06634615384615385,-0.08626729381955194,-0.03903949230356565,0.0
1970-01-01 00:00:00.000000023,0.05769230769230768,-0.08481042414016231,-0.051418834871808435,0.0
1970-01-01 00:00:00.000000023,0.05769230769230768,0.04638584203516997,-0.09926904923526203,0.0
1970-01-01 00:00:00.000000023,0.0673076923076923,0.08722815908975094,-0.12884549448026605,0.0
1970-01-01 00:00:00.000000023,0.08653846153846152,0.0587744533881054,-0.1295593017319218,0.0
1970-01-01 00:00:00.000000023,0.09615384615384615,-0.0003179176109052921,-0.11925565228162227,0.0
1970-01-01 00:00:00.000000023,0.11538461538461536,-0.06735822888254833,-0.09034330987187933,0.0
1970-01-01 00:00:00.000000023,0.11538461538461536,-0.06835426221789936,-0.07001371425911979,0.0
1970-01-01 00:00:00.000000023,0.125,-0.028206851000734445,-0.050026975124354875,0.0
1970-01-01 00:00:00.000000023,0.04807692307692307,0.05676928519806926,-0.03071461409846188,0.0
1970-01-01 00:00:00.000000023,0.04807692307692307,0.06097755134860443,-0.02926760553411586,0.0
1970-01-01 00:00:00.000000023,0.009615384615384614,0.08962460121425048,-0.00951073532266635,0.0
1970-01-01 00:00:00.000000023,-0.01923076923076923,0.10888668143615818,0.02247775182212434,0.0
1970-01-01 00:00:00.000000023,-0.09615384615384615,0.10031579756202029,0.11641003452002359,0.0
1970-01-01 00:00:00.000000023,-0.09615384615384615,0.09963985273838948,0.12059318021851263,0.0
1970-01-01 00:00:00.000000023,-0.1346153846153846,0.08996022637449551,0.13960583137981736,0.0
1970-01-01 00:00:00.000000023,-0.14423076923076922,0.07928625937298954,0.14876426703655543,0.0
1970-01-01 00:00:00.000000023,-0.14423076923076922,0.0507687766962222,0.12702937860717967,0.0
1970-01-01 00:00:00.000000023,-0.14423076923076922,0.04147071142500973,0.031028955357295326,0.0
1970-01-01 00:00:00.000000023,-0.1346153846153846,0.06894043177904058,-0.03924758396020567,0.0
1970-01-01 00:00:00.000000023,-0.11538461538461536,0.06992094660908571,-0.09071372228284846,0.0
1970-01-01 00:00:00.000000023,-0.09615384615384615,0.06892512666627318,-0.16002291767670299,0.0
1970-01-01 00:00:00.000000023,-0.08653846153846152,0.04105747338029016,-0.22990505498813216,0.0
1970-01-01 00:00:00.000000023,-0.04807692307692307,0.039626654601560986,-0.2974135670028653,0.0
1970-01-01 00:00:00.000000023,0.0,0.02886220086185652,-0.30026125408923104,0.0
1970-01-01 00:00:00.000000023,0.02884615384615384,-0.01034723133143491,-0.3096402934063731,0.0
1970-01-01 00:00:00.000000023,0.0673076923076923,-0.05823744681059908,-0.31002666788284283,0.0
1970-01-01 00:00:00.000000023,0.10576923076923075,-0.06206383255473999,-0.31107973943038364,0.0
1970-01-01 00:00:00.000000023,0.09615384615384615,0.1325139678326199,-0.33912629673751543,0.0
1970-01-01 00:00:00.000000023,0.09615384615384615,0.13994096403547696,-0.34533027248253123,0.0
1970-01-01 00:00:00.000000023,0.2019230769230769,0.14589206112525735,-0.48479106029082775,0.0
1970-01-01 00:00:00.000000023,0.3269230769230769,0.04914468634647183,-0.494028355369818,0.0
1970-01-01 00:00:00.000000023,0.423076923076923,-0.06898552977051776,-0.3539745346942577,0.0
1970-01-01 00:00:00.000000023,0.4038461538461538,-0.16175399015045117,-0.06328408137513994,0.0
1970-01-01 00:00:00.000000023,0.375,-0.29837220429166317,0.14530433756547936,0.0
1970-01-01 00:00:00.000000023,0.375,-0.39429552572445425,0.23650119564308275,0.0
1970-01-01 00:00:00.000000023,0.39423076923076916,-0.3476069902686014,0.24022794479775475,0.0
1970-01-01 00:00:00.000000023,0.46153846153846145,-0.24109321152778593,0.2496533138962956,0.0
1970-01-01 00:00:00.000000023,0.4807692307692307,-0.1619097209816192,0.25041153040222713,0.0
1970-01-01 00:00:00.000000023,0.4423076923076923,-0.13046925497593315,0.26145800696383686,0.0
1970-01-01 00:00:00.000000023,0.4038461538461538,-0.11076016336857523,0.30895465762136803,0.0
1970-01-01 00:00:00.000000023,0.3557692307692307,-0.11005515597559817,0.33031774881309955,0.0
1970-01-01 00:00:00.000000023,0.3365384615384615,-0.11072904797257521,0.35962456033231843,0.0
1970-01-01 00:00:00.000000023,0.3173076923076923,-0.12962913928393266,0.3795453801594984,0.0
1970-01-01 00:00:00.000000023,0.28846153846153844,-0.13925771269360623,0.38810070397413776,0.0
1970-01-01 00:00:00.000000023,0.2692307692307692,-0.13032910344343537,0.34917362714222044,0.0
1970-01-01 00:00:00.000000023,0.25961538461538464,-0.12962808027914843,0.2895872288658142,0.0
1970-01-01 00:00:00.000000023,0.25,-0.11962906409357255,0.21968155223476268,0.0
1970-01-01 00:00:00.000000023,0.22115384615384615,-0.1003566502473104,0.14181468147277762,0.0
1970-01-01 00:00:00.000000023,0.1923076923076923,-0.0900004925838083,0.10931484753023268,0.0
1970-01-01 00:00:00.000000023,0.14423076923076922,-0.07965664951551336,0.05968620184350453,0.0
1970-01-01 00:00:00.000000023,0.05769230769230768,-0.06072904433505269,0.0022126022443896775,0.0
1970-01-01 00:00:00.000000023,0.05769230769230768,-0.06002754753090934,5.4058755016832735e-05,0.0
1970-01-01 00:00:00.000000023,0.01923076923076923,-0.06001473899949958,-0.000753015858935196,0.0
1970-01-01 00:00:00.000000023,-0.02884615384615384,-0.060370405455579354,-0.020385486946267135,0.0
1970-01-01 00:00:00.000000023,-0.0673076923076923,-0.06998620830114302,-0.04965513169027736,0.0
1970-01-01 00:00:00.000000023,-0.10576923076923075,-0.07925721867528182,-0.07030306869122162,0.0
1970-01-01 00:00:00.000000023,-0.15384615384615383,-0.06995869593146602,-0.09852772297270644,0.0
1970-01-01 00:00:00.000000023,-0.2019230769230769,-0.05962757147430054,-0.08994545157185212,0.0
1970-01-01 00:00:00.000000023,-0.24038461538461536,-0.03998573387464853,-0.07999946946730087,0.0
1970-01-01 00:00:00.000000023,-0.2788461538461538,-0.01998724314120979,-0.07004022404527145,0.0
1970-01-01 00:00:00.000000023,-0.3365384615384615,0.000330169061984207,-0.06108657975502794,0.0
1970-01-01 00:00:00.000000023,-0.4038461538461538,0.02890180781478334,-0.07929742934048285,0.0
1970-01-01 00:00:00.000000023,-0.4038461538461538,0.030018641937165972,-0.07994401243800914,0.0
1970-01-01 00:00:00.000000023,-0.43269230769230765,0.031601524488697894,-0.07919090648576389,0.0
1970-01-01 00:00:00.000000023,-0.4807692307692307,0.07322251925767725,-0.05821046267761598,0.0
1970-01-01 00:00:00.000000023,-0.5673076923076922,0.1954064954685877,0.007508414190132193,0.0
1970-01-01 00:00:00.000000023,-0.5673076923076922,0.20275285839419124,0.010937645811185398,0.0
1970-01-01 00:00:00.000000023,-0.6057692307692307,0.27892068117457613,0.03780802271187357,0.0
1970-01-01 00:00:00.000000023,-0.6442307692307692,0.32810553331936365,0.009878967409400898,0.0
1970-01-01 00:00:00.000000023,-0.6442307692307692,0.32992871844824306,-0.021075902658049386,0.0
1970-01-01 00:00:00.000000023,-0.625,0.32996986478319845,-0.07892833917673431,0.0
1970-01-01 00:00:00.000000023,-0.5865384615384615,0.3292576306981148,-0.10998925511377704,0.0
1970-01-01 00:00:00.000000023,-0.5673076923076922,0.3099861640659011,-0.14078154889524572,0.0
1970-01-01 00:00:00.000000023,-0.548076923076923,0.2903687990812161,-0.1911125650578577,0.0
1970-01-01 00:00:00.000000023,-0.5192307692307693,0.2799714111269338,-0.2692577076669122,0.0
1970-01-01 00:00:00.000000023,-0.4807692307692307,0.26885930134599584,-0.328845541948772,0.0
1970-01-01 00:00:00.000000023,-0.43269230769230765,0.22922972521495302,-0.3595719249499324,0.0
1970-01-01 00:00:00.000000023,-0.39423076923076916,0.17034327945773495,-0.3795964316994023,0.0
1970-01-01 00:00:00.000000023,-0.3557692307692307,0.12003882014388986,-0.3895317309339313,0.0
1970-01-01 00:00:00.000000023,-0.30769230769230765,0.07070486442729143,-0.38776030351674157,0.0
1970-01-01 00:00:00.000000023,-0.15384615384615383,0.03899251939297854,-0.32999646401808946,0.0
1970-01-01 00:00:00.000000023,-0.10576923076923075,-0.01790684081687093,-0.2721442249716746,0.0
1970-01-01 00:00:00.000000023,-0.10576923076923075,-0.02247722144849346,-0.267897610217125,0.0
1970-01-01 00:00:00.000000023,-0.07692307692307691,-0.08897813829245255,-0.21109125089069994,0.0
1970-01-01 00:00:00.000000023,-0.01923076923076923,-0.12993251244772525,-0.18156616383177374,0.0
1970-01-01 00:00:00.000000023,0.02884615384615384,-0.16919969779612895,-0.19119517256719132,0.0
1970-01-01 00:00:00.000000023,0.0673076923076923,-0.18845932804775606,-0.23070349548239177,0.0
1970-01-01 00:00:00.000000023,0.10576923076923075,-0.16920215949328418,-0.28779920545738585,0.0
1970-01-01 00:00:00.000000023,0.1346153846153846,-0.1299989782709165,-0.28987505186702717,0.0
1970-01-01 00:00:00.000000023,0.15384615384615383,-0.0907702538214611,-0.2888271949523473,0.0
1970-01-01 00:00:00.000000023,0.16346153846153846,-0.07079787490853358,-0.25845921184635096,0.0
1970-01-01 00:00:00.000000023,0.18269230769230768,-0.07077236870894521,-0.1895715248991283,0.0
1970-01-01 00:00:00.000000023,0.1923076923076923,-0.09005608023298695,-0.10997196043011268,0.0
1970-01-01 00:00:00.000000023,0.1923076923076923,-0.11074179758170245,-0.02967140671391396,0.0
1970-01-01 00:00:00.000000023,0.2019230769230769,-0.14997245447297908,0.058843979154435753,0.0
1970-01-01 00:00:00.000000023,0.2019230769230769,-0.1885144731887328,0.11845884388367939,0.0
1970-01-01 00:00:00.000000023,0.2019230769230769,-0.18991832162280636,0.13954480570490788,0.0
1970-01-01 00:00:00.000000023,0.2019230769230769,-0.1892802106270392,0.149250910148833,0.0
1970-01-01 00:00:00.000000024,0.2115384615384615,-0.17064736530725197,0.1402297683135823,0.0
1970-01-01 00:00:00.000000024,0.2115384615384615,-0.16819865266876408,0.1369528343178889,0.0
1970-01-01 00:00:00.000000024,0.2019230769230769,-0.12071625674937803,0.0574967582694176,0.0
1970-01-01 00:00:00.000000024,0.24038461538461536,-0.09114027956444294,-0.08454036104361375,0.0
1970-01-01 00:00:00.000000024,0.24038461538461536,-0.0900712914905814,-0.09008650644698832,0.0
1970-01-01 00:00:00.000000024,0.23076923076923073,-0.09078459068125512,-0.0977953130250711,0.0
1970-01-01 00:00:00.000000024,0.22115384615384615,-0.11111265690330689,-0.05038694522993131,0.0
1970-01-01 00:00:00.000000024,0.2115384615384615,-0.15925714570803093,-0.012652208183074437,0.0
1970-01-01 00:00:00.000000024,0.2019230769230769,-0.1888302772135277,-0.04122267571307857,0.0
1970-01-01 00:00:00.000000024,0.22115384615384615,-0.18916033905721702,-0.10036003607004688,0.0
1970-01-01 00:00:00.000000024,0.2788461538461538,-0.16849887733133223,-0.16849829817818726,0.0
1970-01-01 00:00:00.000000024,0.28846153846153844,-0.11030934888875268,-0.19909401474100866,0.0
1970-01-01 00:00:00.000000024,0.2692307692307692,-0.05985354266499034,-0.20704009982904614,0.0
1970-01-01 00:00:00.000000024,0.2019230769230769,-0.0057363030659865685,-0.1409886806432377,0.0
1970-01-01 00:00:00.000000024,0.1346153846153846,0.02997335988335284,-0.09965427753837128,0.0
1970-01-01 00:00:00.000000024,0.11538461538461536,0.06501701991651326,-0.049676812892786526,0.0
1970-01-01 00:00:00.000000024,0.01442307692307692,0.1004861778625052,0.008380329433135002,0.0
1970-01-01 00:00:00.000000024,-0.04326923076923076,0.1481097823711272,0.02594570758743141,0.0
1970-01-01 00:00:00.000000024,-0.0673076923076923,0.1484779461579295,0.06715377542751304,0.0
1970-01-01 00:00:00.000000024,-0.08653846153846152,0.1107947638929699,0.037206228955420376,0.0
1970-01-01 00:00:00.000000024,-0.0673076923076923,0.09298067895225742,-0.0625855936311628,0.0
1970-01-01 00:00:00.000000024,-0.03846153846153846,0.1496835678179806,-0.22701725699681571,0.0
1970-01-01 00:00:00.000000024,-0.01923076923076923,0.19847565213321866,-0.31688034528286135,0.0
1970-01-01 00:00:00.000000024,0.0,0.20915903977892297,-0.32875206564044174,0.0
1970-01-01 00:00:00.000000024,0.009615384615384614,0.1988184218977013,-0.3094254270090641,0.0
1970-01-01 00:00:00.000000024,0.01923076923076923,0.15893835145901133,-0.2757344636042893,0.0
1970-01-01 00:00:00.000000024,-0.009615384615384614,0.09251706749560484,-0.13540509030674697,0.0
1970-01-01 00:00:00.000000024,-0.009615384615384614,0.0890224709223196,-0.13020297467787872,0.0
1970-01-01 00:00:00.000000024,-0.009615384615384614,0.061089647407024626,-0.13007522599597804,0.0
1970-01-01 00:00:00.000000024,-0.009615384615384614,0.06039800906734559,-0.13182812721352755,0.0
1970-01-01 00:00:00.000000024,0.01923076923076923,0.06965659741130635,-0.17928420876926535,0.0
1970-01-01 00:00:00.000000024,0.03846153846153846,0.07033012103792549,-0.20884550955663725,0.0
1970-01-01 00:00:00.000000024,0.03846153846153846,0.07925667061268171,-0.20954454925994076,0.0
1970-01-01 00:00:00.000000024,0.05769230769230768,0.06959998550448052,-0.19885732046176402,0.0
1970-01-01 00:00:00.000000024,0.05769230769230768,0.049942938008291894,-0.15960310320768747,0.0
1970-01-01 00:00:00.000000024,0.05769230769230768,0.028859340719400616,-0.110426466145798,0.0
1970-01-01 00:00:00.000000024,0.08653846153846152,-0.02074073858447526,-0.07191148272885868,0.0
1970-01-01 00:00:00.000000024,0.11538461538461536,-0.08885928250023284,-0.08118356753338649,0.0
1970-01-01 00:00:00.000000024,0.14423076923076922,-0.12845988892181176,-0.12004484067257634,0.0
1970-01-01 00:00:00.000000024,0.18269230769230768,-0.12955771838868432,-0.16002713062617469,0.0
1970-01-01 00:00:00.000000024,0.2115384615384615,-0.11959850757266417,-0.20068768623414063,0.0
1970-01-01 00:00:00.000000024,0.24038461538461536,-0.09960198607324822,-0.2585403976956221,0.0
1970-01-01 00:00:00.000000024,0.25961538461538464,-0.06965511640503733,-0.27990305154765616,0.0
1970-01-01 00:00:00.000000024,0.2692307692307692,-0.03108615686275959,-0.2988419940910946,0.0
1970-01-01 00:00:00.000000024,0.2692307692307692,-0.019671118889471696,-0.28883078891189684,0.0
1970-01-01 00:00:00.000000024,0.2692307692307692,-3.40531529762194e-05,-0.24958930653012112,6.4e-323
1970-01-01 00:00:00.000000024,0.1923076923076923,0.018751683759113773,-0.20008048740137319,1.734e-321
1970-01-01 00:00:00.000000024,0.125,0.006329514649048077,0.09741614669304462,4.6803e-320
1970-01-01 00:00:00.000000024,0.05769230769230768,-0.09785478823481578,0.3303164481135764,1.26199e-318
1970-01-01 00:00:00.000000024,0.03846153846153846,-0.1484087969890737,0.3211279523735182,3.4026983e-317
1970-01-01 00:00:00.000000024,0.125,-0.1591827304701738,0.090138265971415,9.17466505e-316
1970-01-01 00:00:00.000000024,0.2019230769230769,-0.14952492570561923,-0.1373947711453132,2.473756872e-314
1970-01-01 00:00:00.000000024,0.22115384615384615,-0.1279902635815461,-0.2997970868948705,6.66996888943e-313
1970-01-01 00:00:00.000000024,0.2115384615384615,-0.05621219099612586,-0.4571265750161913,1.79841784327e-311
1970-01-01 00:00:00.000000024,0.23076923076923073,0.11026110668614798,-0.542620438542294,4.8490582079398e-310
1970-01-01 00:00:00.000000024,0.23076923076923073,0.2832620715221217,-0.443625265625748,1.3074472983004817e-308
1970-01-01 00:00:00.000000024,0.23076923076923073,0.28781482441113787,-0.43526173335290186,3.525258647203363e-307
1970-01-01 00:00:00.000000024,0.1923076923076923,0.23773818757860055,-0.30844153490260207,9.505123874466082e-306
1970-01-01 00:00:00.000000024,0.15384615384615383,0.1311162402110777,-0.14265970901735328,2.5628581874586405e-304
1970-01-01 00:00:00.000000024,0.09615384615384615,0.052400298120497395,-0.04337060856593602,6.910211982263868e-303
1970-01-01 00:00:00.000000024,0.125,0.033691809042352125,-0.028346722262919025,1.863194377023787e-301
1970-01-01 00:00:00.000000024,0.24519230769230768,0.10727854602301015,0.028009107467122377,5.023714605981965e-300
1970-01-01 00:00:00.000000024,0.24038461538461536,0.11282893357892212,0.03459262387522317,1.3545397492381077e-298
1970-01-01 00:00:00.000000024,0.09615384615384615,0.18910266060788702,0.15599173716390333,3.652233608336911e-297
1970-01-01 00:00:00.000000024,0.01923076923076923,0.2429429028340278,0.17718427955016622,9.847485345017286e-296
1970-01-01 00:00:00.000000024,-0.05769230769230768,0.37035571591086386,0.12798381069058445,2.6551688095463322e-294
1970-01-01 00:00:00.000000024,-0.1346153846153846,0.5066614267592958,0.028378609095613905,7.159108300430085e-293
1970-01-01 00:00:00.000000024,-0.14423076923076922,0.5595028065901225,-0.11176136510900889,1.930304072306578e-291
1970-01-01 00:00:00.000000024,-0.1346153846153846,0.5999143511740104,-0.045935467038853844,5.204661886927334e-290
1970-01-01 00:00:00.000000024,-0.2692307692307692,0.6381846751081576,0.12150375505995531,1.4033284053980746e-288
1970-01-01 00:00:00.000000024,-0.4423076923076923,0.631071876746244,0.3265368536576474,3.7837820326878765e-287
1970-01-01 00:00:00.000000024,-0.6442307692307692,0.6507559970404284,0.44499129369652246,1.0202178204203293e-285
1970-01-01 00:00:00.000000024,-0.7403846153846153,0.6893400433453221,0.4382280761484574,2.750804333102203e-284
1970-01-01 00:00:00.000000024,-0.7403846153846153,0.711425173283268,0.38716676231182606,7.416969521171751e-283
1970-01-01 00:00:00.000000024,-0.75,0.7691396353029166,0.26527450627084503,1.9998309663832718e-281
1970-01-01 00:00:00.000000024,-0.721153846153846,0.8053449798954815,0.025244907000989518,5.392126639713666e-280
1970-01-01 00:00:00.000000024,-0.6538461538461539,0.7251748218750812,-0.33366201724412786,1.4538743617563075e-278
1970-01-01 00:00:00.000000024,-0.5096153846153846,0.5243752107317121,-0.7841193725924415,3.9200686501023197e-277
1970-01-01 00:00:00.000000024,0.15384615384615383,0.18295586788114604,-0.8375610427517879,1.0569646611658707e-275
1970-01-01 00:00:00.000000024,0.15384615384615383,0.16543322205923092,-0.8300287817058323,2.8498845164977505e-274
1970-01-01 00:00:00.000000024,0.16346153846153846,0.03374112771808871,-0.5732160633056838,7.684118547932273e-273
1970-01-01 00:00:00.000000024,-0.18269230769230768,-0.004422773670835614,-0.646804927547627,2.0718621234252173e-271
1970-01-01 00:00:00.000000024,-0.3461538461538461,0.09684398316934995,-0.6405169804802422,5.586343614700159e-270
1970-01-01 00:00:00.000000024,-0.28846153846153844,0.11921031924328351,-0.6471535454189117,1.5062409138456188e-268
1970-01-01 00:00:00.000000024,-0.22115384615384615,0.12183463639930497,-0.5826287458303732,4.061264123768473e-267
1970-01-01 00:00:00.000000024,-0.2019230769230769,0.1703248635379509,-0.5838225920011652,1.095035072503643e-265
1970-01-01 00:00:00.000000024,-0.14423076923076922,0.2269366791253693,-0.6805812382010871,2.9525334316360697e-264
1970-01-01 00:00:00.000000024,-0.04807692307692307,0.20696547284702005,-0.7918708394281861,7.960889914692357e-263
1970-01-01 00:00:00.000000024,0.08653846153846152,0.11113108774417216,-0.9499314263599364,2.146487743535302e-261
1970-01-01 00:00:00.000000024,0.15384615384615383,0.04357389624562827,-1.1062776722901009,5.787556017630627e-260
1970-01-01 00:00:00.000000024,0.1346153846153846,0.0653641108877911,-1.1695657254727836,1.560493637016735e-258
1970-01-01 00:00:00.000000024,0.11538461538461536,0.22125709772473143,-0.9719969154750571,4.207545263927557e-257
1970-01-01 00:00:00.000000024,0.11538461538461536,0.4085775276799574,-0.5743509923537586,1.1344767276234245e-255
1970-01-01 00:00:00.000000024,-0.01923076923076923,0.5603361496341203,-0.5354798780764228,3.058879619319321e-254
1970-01-01 00:00:00.000000025,-0.23076923076923073,0.7204985124412883,-0.633605715709656,8.247630204885937e-253
1970-01-01 00:00:00.000000025,-0.1346153846153846,0.8931236862806621,-0.3218744460842868,2.2238012756998854e-251
1970-01-01 00:00:00.000000025,-0.1346153846153846,0.8938410171365876,-0.3070043285660877,5.996015814184809e-250
1970-01-01 00:00:00.000000025,-0.125,0.7405837764072035,-0.21724242520008227,1.6167004685541995e-248
1970-01-01 00:00:00.000000025,-0.1346153846153846,0.6019209458579073,-0.058541151836133905,4.359095249282157e-247
1970-01-01 00:00:00.000000025,-0.09615384615384615,0.511281761756294,0.13663132562446703,1.175339016837629e-245
1970-01-01 00:00:00.000000025,-0.05769230769230768,0.4526866215620303,0.24758694369674278,3.1690562502123185e-244
1970-01-01 00:00:00.000000025,-0.10576923076923075,0.46125702041852334,0.29821615418758785,8.54469848540489e-243
1970-01-01 00:00:00.000000025,-0.125,0.5012529297381002,0.30424921936812965,2.3038995348091095e-241
1970-01-01 00:00:00.000000025,-0.07692307692307691,0.5725720825101805,0.16651276875191187,6.211984045499195e-240
1970-01-01 00:00:00.000000025,-0.02884615384615384,0.7081932980367743,-0.058404463066509586,1.674931792749975e-238
1970-01-01 00:00:00.000000025,-0.0673076923076923,0.7986469644827267,-0.24343327154767083,4.516103856379436e-237
1970-01-01 00:00:00.000000025,-0.07692307692307691,0.8552747429968439,-0.26429386872060245,1.2176731094296986e-235
1970-01-01 00:00:00.000000025,0.01923076923076923,1.043771096432058,-0.39250118390859556,3.283201291603809e-234
1970-01-01 00:00:00.000000025,0.14423076923076922,1.0765448606687158,-0.5832380968114774,8.852466756235993e-233
1970-01-01 00:00:00.000000025,0.3173076923076923,1.0229401416232655,-0.6049274300012959,2.386882822892116e-231
1970-01-01 00:00:00.000000025,0.5769230769230769,1.5428389631594532,-0.49980251322351316,6.435731155052481e-230
1970-01-01 00:00:00.000000025,-0.01923076923076923,0.8837118636819661,-0.8897404270335595,1.735260529041279e-228
1970-01-01 00:00:00.000000025,-0.423076923076923,-0.18261864374636702,-1.0231890166825925,4.678767697256404e-227
1970-01-01 00:00:00.000000025,-0.0673076923076923,0.18558475516613057,-0.7363630233964387,1.2615320177301888e-225
1970-01-01 00:00:00.000000025,0.11538461538461536,0.6934070332318925,-0.3586126150212501,3.401457680174256e-224
1970-01-01 00:00:00.000000025,0.0673076923076923,0.7864051420949684,-0.44617758217731407,9.171320416293195e-223
1970-01-01 00:00:00.000000025,-0.03846153846153846,0.7895318033322505,-0.6881821037662298,2.47285505471899e-221
1970-01-01 00:00:00.000000025,-0.16346153846153846,0.7809535478757942,-0.6347392195108917,6.667537327324985e-220
1970-01-01 00:00:00.000000025,-0.2980769230769231,0.7962139893141909,-0.4497768230278462,1.7977622233230282e-218
1970-01-01 00:00:00.000000025,-0.39423076923076916,0.716824163607358,-0.2592350022409565,4.847290465644855e-217
1970-01-01 00:00:00.000000025,-0.3269230769230769,0.0580384280844735,0.4504317625220221,1.3069706635007888e-215
1970-01-01 00:00:00.000000025,0.2692307692307692,0.10021339467342683,-0.32910740966444907,3.5239735009864875e-214
1970-01-01 00:00:00.000000025,1.5288461538461537,0.6477232280980513,-2.3363318234621477,9.501658746028515e-213
1970-01-01 00:00:00.000000025,1.6826923076923075,0.8883137639739558,-2.7518518238135368,2.5619238879267146e-211
1970-01-01 00:00:00.000000025,1.221153846153846,0.8367483991987541,-2.4636674195033472,6.907692838656106e-210
1970-01-01 00:00:00.000000025,1.1923076923076923,0.9538930143924051,-2.5171685027768427,1.8625151425492232e-208
1970-01-01 00:00:00.000000025,1.0384615384615385,1.168362989396185,-2.4998821554714064,5.02188319204425e-207
1970-01-01 00:00:00.000000025,0.7884615384615383,1.0919076993045955,-2.479649694951131,1.3540459467093993e-205
1970-01-01 00:00:00.000000025,0.43269230769230765,0.8131448918278912,-2.2006596082091314,3.650902172923336e-204
1970-01-01 00:00:00.000000025,0.24038461538461536,0.6130043800484655,-1.4381597266954154,9.843895407425922e-203
1970-01-01 00:00:00.000000025,0.7115384615384615,0.7379733694806792,-0.629653012567089,2.6542008578320774e-201
1970-01-01 00:00:00.000000025,2.3269230769230766,1.3122765959298732,0.18752838738400865,7.156498420739189e-200
1970-01-01 00:00:00.000000025,2.5961538461538463,1.4434947206258997,-0.5570805280646792,1.9296003727417502e-198
1970-01-01 00:00:00.000000025,1.8269230769230766,1.6620808609694175,-2.228702645130347,5.20276450798199e-197
1970-01-01 00:00:00.000000025,1.6057692307692306,2.9326885255483726,-2.6178908904546985,1.4028168167823966e-195
1970-01-01 00:00:00.000000025,2.0384615384615383,4.020509328836635,-1.704351397146515,3.782402640804491e-194
1970-01-01 00:00:00.000000025,1.673076923076923,3.6210633530407743,-1.6495968325012103,1.019845896200431e-192
1970-01-01 00:00:00.000000025,1.5288461538461537,-0.2517987967357148,2.665236919613845,2.7498015171003613e-191
1970-01-01 00:00:00.000000025,1.5288461538461537,-0.41963086490506907,2.8609936620749985,7.414265637208976e-190
1970-01-01 00:00:00.000000025,0.9903846153846153,-1.0782345557011495,3.831591956411115,1.9991019205293248e-188
1970-01-01 00:00:00.000000025,1.8269230769230766,1.4322978609740387,1.0919891610250971,5.390160919791972e-187
1970-01-01 00:00:00.000000025,1.7596153846153846,2.2502768020001938,-1.5978846087334935,1.453344346423304e-185
1970-01-01 00:00:00.000000025,1.3942307692307692,2.0751757930311987,-3.4848735968294267,3.9186395744231317e-184
1970-01-01 00:00:00.000000025,1.8076923076923075,1.7794696098421663,-5.243702505661015,1.056579340747823e-182
1970-01-01 00:00:00.000000025,1.3942307692307692,0.3455036727072892,-6.220094056017972,2.848845580444701e-181
1970-01-01 00:00:00.000000025,1.033653846153846,-0.45087044674535703,-6.073837006824234,7.681317273793219e-180
1970-01-01 00:00:00.000000025,1.1490384615384615,-0.14400573483192744,-6.023505128236323,2.071106818343726e-178
1970-01-01 00:00:00.000000025,1.221153846153846,0.3127156062833164,-5.935801455556499,5.584307092254271e-177
1970-01-01 00:00:00.000000025,1.3076923076923077,-0.16267289551852976,-5.493134171789128,1.5056918080903104e-175
1970-01-01 00:00:00.000000025,1.6346153846153844,-0.9548837852836202,-5.1288211827499675,4.0597835747515865e-174
1970-01-01 00:00:00.000000025,2.009615384615384,-1.869189307139219,-4.985037762459992,1.094635873374839e-172
1970-01-01 00:00:00.000000025,2.317307692307692,-2.513227507475298,-4.967198403669809,2.9514570745373156e-171
1970-01-01 00:00:00.000000025,2.2307692307692304,-2.737953394693826,-4.62931913662486,7.95798774251701e-170
1970-01-01 00:00:00.000000025,1.9615384615384615,-2.4115141492580148,-3.5244182852013926,2.145705233405057e-168
1970-01-01 00:00:00.000000025,1.346153846153846,-1.37292863527257,-1.7799745638127302,5.7854461424511405e-167
1970-01-01 00:00:00.000000025,0.2019230769230769,0.0924409968986229,0.7151050622576771,1.559924753228404e-165
1970-01-01 00:00:00.000000025,-0.9038461538461537,1.8688355515353874,4.087811244770011,4.2060113875742424e-164
1970-01-01 00:00:00.000000025,-1.75,3.6161188945568306,7.155798546532617,1.134063149891818e-162
1970-01-01 00:00:00.000000025,-2.221153846153846,5.266374601499025,9.118749511610668,3.0577644933203363e-161
1970-01-01 00:00:00.000000025,-2.6249999999999996,7.325995345916848,9.550438266955414,8.244623500465996e-160
1970-01-01 00:00:00.000000025,-3.0865384615384612,9.535499738255865,9.493083696185504,2.2229905806325e-158
1970-01-01 00:00:00.000000025,-3.6057692307692304,12.382497586991523,10.512821530053227,5.993829944207288e-157
1970-01-01 00:00:00.000000025,-3.6057692307692304,12.541935110515224,10.603097615251597,1.6161110943553364e-155
1970-01-01 00:00:00.000000025,-3.932692307692307,13.999750396919527,12.020814081739916,4.357506124815204e-154
1970-01-01 00:00:00.000000025,-4.528846153846153,14.701325606312023,13.458882591726164,1.1749105426057505e-152
1970-01-01 00:00:00.000000025,-5.10576923076923,14.6860409735051,13.369015894866504,3.167900958910714e-151
1970-01-01 00:00:00.000000025,-4.98076923076923,14.321780678325736,10.75454656966938,8.541583483632876e-150
1970-01-01 00:00:00.000000025,-4.913461538461538,14.502037341289757,7.253741486206733,2.3030596396219674e-148
1970-01-01 00:00:00.000000025,-5.6826923076923075,15.48322753649766,5.346473557912399,6.209719443495683e-147
1970-01-01 00:00:00.000000025,-7.365384615384615,16.545106144147066,5.851044577428033,1.6743211901042138e-145
1970-01-01 00:00:00.000000025,-9.528846153846153,16.4846383554732,8.131730032644489,4.514457493837885e-144
1970-01-01 00:00:00.000000025,-12.519230769230768,13.290129453629406,13.205666303973173,1.2172292021461257e-142
1970-01-01 00:00:00.000000025,-12.519230769230768,13.098856892520764,13.421260174631165,3.282004388300704e-141
1970-01-01 00:00:00.000000025,-12.548076923076923,11.129006644431227,14.168358411068256,8.849239556390445e-140
1970-01-01 00:00:00.000000025,-11.874999999999998,8.884322507122382,12.874416924211726,2.3860126758371214e-138
1970-01-01 00:00:00.000000025,-10.48076923076923,6.747701047873112,10.190898542648355,6.433384985203842e-137
1970-01-01 00:00:00.000000025,-8.663461538461538,4.553605785451666,7.5298437272939,1.7346279333292015e-135
1970-01-01 00:00:00.000000025,-6.846153846153846,2.4496551593218596,5.364882094286954,4.677062035003644e-134
1970-01-01 00:00:00.000000025,-5.336538461538461,0.837083516238538,3.3219728184538733,1.2610721215176556e-132
1970-01-01 00:00:00.000000025,-4.3076923076923075,-0.348400220881325,1.8283840039676322,3.400217666062669e-131
1970-01-01 00:00:00.000000025,-3.288461538461538,-1.4938894800343092,1.544395288672198,9.167976977154036e-130
1970-01-01 00:00:00.000000025,-2.519230769230769,-2.986615740045026,1.8702887901817136,2.4719535661655287e-128
1970-01-01 00:00:00.000000025,-1.9519230769230766,-5.144735501181399,2.7034020462340607,6.665106651669779e-127
1970-01-01 00:00:00.000000025,-1.1057692307692306,-7.921242791852753,3.871566458137916,1.797106842384676e-125
1970-01-01 00:00:00.000000025,0.46153846153846145,-10.728819878842922,4.328892323489674,4.845523367786958e-124
1970-01-01 00:00:00.000000025,2.1057692307692304,-13.506893936906126,3.5085262760832867,1.306494202460095e-122
1970-01-01 00:00:00.000000025,3.6923076923076916,-16.707316417622458,1.651317130759066,3.522688823274472e-121
1970-01-01 00:00:00.000000025,5.673076923076923,-19.840649338900242,-0.922963745588501,9.49819488081648e-120
1970-01-01 00:00:00.000000026,7.769230769230768,-22.240215732684003,-3.321338261648595,2.5609899289971767e-118
1970-01-01 00:00:00.000000026,9.336538461538462,-23.64517544356785,-4.253169318923557,6.905174613411565e-117
1970-01-01 00:00:00.000000026,10.33653846153846,-24.17952124364795,-2.514233349287426,1.8618361556921266e-115
1970-01-01 00:00:00.000000026,10.33653846153846,-24.20189813492691,-2.3811311118369396,5.020052445755334e-114
1970-01-01 00:00:00.000000026,10.778846153846153,-24.271728399378652,-0.5263066703099373,1.353552324198249e-112
1970-01-01 00:00:00.000000026,11.067307692307692,-24.134768648296685,-0.5791489865313635,3.6495712228895196e-111
1970-01-01 00:00:00.000000026,11.067307692307692,-24.11702510463192,-0.6107159660368774,9.840306778559727e-110
1970-01-01 00:00:00.000000026,10.932692307692307,-23.77490917676512,-1.410182096464327,2.6532332589882388e-108
1970-01-01 00:00:00.000000026,10.365384615384613,-22.80552266802631,-1.9642006384999504,7.15388949248969e-107
1970-01-01 00:00:00.000000026,9.326923076923075,-21.224202859945333,-2.1232351430343295,1.9288969297132294e-105
1970-01-01 00:00:00.000000026,7.740384615384615,-18.99795455049768,-1.8631482234269416,5.2008678207332336e-104
1970-01-01 00:00:00.000000026,5.778846153846153,-16.470570003492096,-1.181766889493098,1.4023054146682609e-102
1970-01-01 00:00:00.000000026,3.817307692307692,-13.9574355437889,-0.5445577928867029,3.781023751783574e-101
1970-01-01 00:00:00.000000026,1.9807692307692306,-11.880189678808222,-0.02129351844788167,1.0194741075668974e-99
1970-01-01 00:00:00.000000026,-0.375,-11.057685784033087,0.46963279479389813,2.7487990666788414e-98
1970-01-01 00:00:00.000000026,-7.807692307692307,-5.927326490085119,1.9513789778831323,7.411562738957208e-97
1970-01-01 00:00:00.000000026,-7.807692307692307,-5.480129448265121,1.9675996080506848,1.9983731404517687e-95
1970-01-01 00:00:00.000000026,-14.48076923076923,1.4638313869268547,0.92381043948536,5.388195916480823e-94
1970-01-01 00:00:00.000000026,-20.67307692307692,11.253576895290179,0.2252822580540303,1.4528145243093713e-92
1970-01-01 00:00:00.000000026,-25.596153846153843,20.38274478590797,-0.09118947202654058,3.917211019718825e-91
1970-01-01 00:00:00.000000026,-31.980769230769226,23.580532324225025,0.5626019972293753,1.056194160799774e-89
1970-01-01 00:00:00.000000026,-34.47115384615385,24.791627968167727,3.5314433972196753,2.847807023139673e-88
1970-01-01 00:00:00.000000026,-30.249999999999996,25.793422816303615,5.786369727701852,7.678517020869126e-87
1970-01-01 00:00:00.000000026,-23.48076923076923,23.630788072029834,4.450539250730332,2.0703517886115258e-85
1970-01-01 00:00:00.000000026,-15.846153846153845,18.73785512850192,0.8781900420170856,5.582271312230255e-84
1970-01-01 00:00:00.000000026,-8.73076923076923,13.04130039752201,-2.7394081162690145,1.5051429025135583e-82
1970-01-01 00:00:00.000000026,-3.519230769230769,8.377255604592351,-4.34220918128047,4.05830356547438e-81
1970-01-01 00:00:00.000000026,1.2980769230769231,5.644600926471467,-3.2502397783036767,1.0942368197755698e-79
1970-01-01 00:00:00.000000026,1.2980769230769231,5.551969410137284,-3.1642648329188043,2.950381109828566e-78
1970-01-01 00:00:00.000000026,2.0961538461538463,6.00857314723519,-1.9349107105040395,7.955086628339379e-77
1970-01-01 00:00:00.000000026,2.9807692307692304,6.179505565212863,-0.828324350690268,2.1449230085418055e-75
1970-01-01 00:00:00.000000026,4.0480769230769225,5.338077113512113,0.0701532418668,5.7833370364345395e-74
1970-01-01 00:00:00.000000026,7.086538461538461,2.9485764996141626,0.22246188109386617,1.559356076828785e-72
1970-01-01 00:00:00.000000026,8.442307692307692,1.5234883760702729,-1.063682452332416,4.204478070401288e-71
1970-01-01 00:00:00.000000026,8.442307692307692,1.4356096542832106,-1.1918880940690941,1.1336497229315198e-69
1970-01-01 00:00:00.000000026,10.971153846153845,0.4879722895764148,-3.3672960875331253,3.056649773844704e-68
1970-01-01 00:00:00.000000026,10.971153846153845,0.48964216427998963,-3.4751062693252854,8.241617892151392e-67
1970-01-01 00:00:00.000000026,11.346153846153847,1.4823661459833055,-4.210573184249574,2.222180181107033e-65
1970-01-01 00:00:00.000000026,11.249999999999998,2.5342437772692636,-4.710369705413207,5.991644871096842e-64
1970-01-01 00:00:00.000000026,11.615384615384615,3.6922158402868224,-5.21940886190702,1.6155219350150415e-62
1970-01-01 00:00:00.000000026,12.807692307692307,2.9055839104749337,-5.713669566076338,4.3559175796695186e-61
1970-01-01 00:00:00.000000026,14.134615384615383,1.508549742536382,-5.299669422154112,1.1744822245757558e-59
1970-01-01 00:00:00.000000026,14.528846153846152,0.8252591380073846,-3.6274048320846872,3.1667460887748733e-58
1970-01-01 00:00:00.000000026,14.009615384615383,0.7734469836630025,-1.390261044132444,8.538469617446407e-57
1970-01-01 00:00:00.000000026,13.288461538461538,1.557809420893684,0.34035664050870834,2.3022200506217565e-55
1970-01-01 00:00:00.000000026,11.221153846153845,4.537407380466465,0.3298903378675683,6.2074556670613e-54
1970-01-01 00:00:00.000000026,11.221153846153845,4.702189851700858,0.31668248191563486,1.6737108100559305e-52
1970-01-01 00:00:00.000000026,9.663461538461538,6.171718615456698,-0.029463326145428854,4.5128117314839547e-51
1970-01-01 00:00:00.000000026,7.346153846153845,7.934212765629992,-0.11219228784221424,1.2167854566906127e-49
1970-01-01 00:00:00.000000026,4.384615384615384,10.052026056553096,0.2502715544056451,3.2808079213331724e-48
1970-01-01 00:00:00.000000026,-3.567307692307692,13.220490761303624,2.619524256794633,8.846013533032665e-47
1970-01-01 00:00:00.000000026,-7.596153846153846,15.151224498644781,3.2268833790494416,2.385142845997488e-45
1970-01-01 00:00:00.000000026,-7.596153846153846,15.362570702105444,3.256326977540286,6.431039670660189e-44
1970-01-01 00:00:00.000000026,-12.019230769230768,19.138184458202186,3.443945014538282,1.7339955682322548e-42
1970-01-01 00:00:00.000000026,-15.365384615384615,26.368409669353532,4.980188414993323,4.675356994556431e-41
1970-01-01 00:00:00.000000026,-20.08653846153846,30.80887661434313,7.521142190281436,1.2606123929620051e-39
1970-01-01 00:00:00.000000026,-28.644230769230766,27.471258917910905,12.090650722605467,3.39897810400286e-38
1970-01-01 00:00:00.000000026,-31.682692307692307,25.915114169251346,16.676427320066168,9.164634756878108e-37
1970-01-01 00:00:00.000000026,-31.644230769230763,20.736823651875547,16.922886919180986,2.471052406253088e-35
1970-01-01 00:00:00.000000026,-27.624999999999996,12.729124431388376,13.991519497820434,6.662676862126464e-34
1970-01-01 00:00:00.000000026,-22.009615384615383,5.199535995610603,9.84813952197073,1.7964517003678937e-32
1970-01-01 00:00:00.000000026,-17.057692307692303,-0.3416525499021083,7.408247595389278,4.84375691413119e-31
1970-01-01 00:00:00.000000026,-13.721153846153845,-3.174154842967528,6.924545553539781,1.3060179151150544e-29
1970-01-01 00:00:00.000000026,-11.298076923076922,-4.3605282102211405,7.554482350184828,3.5214046138965186e-28
1970-01-01 00:00:00.000000026,-9.307692307692307,-5.810106833003283,7.796477901450575,9.494732278369456e-27
1970-01-01 00:00:00.000000026,-7.374999999999999,-7.762356280867485,6.9504209889807,2.5600563105458586e-25
1970-01-01 00:00:00.000000026,-5.413461538461537,-9.773512750418833,5.364888801028333,6.902657306195454e-24
1970-01-01 00:00:00.000000026,-2.7307692307692304,-11.122487980440983,3.6515766387842885,1.861157416362228e-22
1970-01-01 00:00:00.000000026,-0.02884615384615384,-12.783662721487715,2.2276804461474486,5.018222366871824e-21
1970-01-01 00:00:00.000000026,2.346153846153846,-14.53640549972738,1.4957954071968107,1.3530588816390312e-19
1970-01-01 00:00:00.000000026,4.240384615384615,-16.199285771151583,1.158795548166442,3.648240758058515e-18
1970-01-01 00:00:00.000000026,5.326923076923077,-18.3443103213654,1.2916843932971243,9.836719457941606e-17
1970-01-01 00:00:00.000000026,5.961538461538461,-20.347092905714128,1.9666830708559087,2.652266012886177e-15
1970-01-01 00:00:00.000000026,6.384615384615384,-22.527198132916038,3.308758519812409,7.151281515334741e-14
1970-01-01 00:00:00.000000026,6.384615384615384,-22.637256683018865,3.3697969640791476,1.9281937431274953e-12
1970-01-01 00:00:00.000000026,6.326923076923077,-23.42873230859336,3.675759510324584,5.198971824928906e-11
1970-01-01 00:00:00.000000026,6.5480769230769225,-24.438515649001868,3.375709814684618,1.4017941989876782e-09
1970-01-01 00:00:00.000000026,7.1201923076923075,-26.66119021445714,1.2184054861600917,3.779645365441805e-08
1970-01-01 00:00:00.000000026,8.644230769230768,-28.788620141340903,-0.7287616883621331,1.0191024544703003e-06
1970-01-01 00:00:00.000000026,8.831730769230768,-28.38155360174718,-0.3949710719376834,2.747796981704371e-05
1970-01-01 00:00:00.000000026,7.403846153846153,-25.26332710583302,2.064542746044683,0.0007408860826057104
1970-01-01 00:00:00.000000026,5.615384615384615,-22.228278255744335,3.3876252151441086,0.019976446260537153
1970-01-01 00:00:00.000000026,3.1538461538461533,-16.900185799264083,2.4013380628462517,0.5386231629518978
1970-01-01 00:00:00.000000026,1.8365384615384612,-13.201738324385895,-0.6764975182953088,1.0572698796432585
1970-01-01 00:00:00.000000026,-4.865384615384615,-5.921748959155036,-12.166771056819591,1.07650543982119
1970-01-01 00:00:00.000000026,-11.798076923076922,-0.9354835728000925,-14.076321015833617,1.0772188479339786
1970-01-01 00:00:00.000000026,-20.096153846153843,5.163692493552544,-8.393896370688052,1.0772453068013412
1970-01-01 00:00:00.000000026,-24.88461538461538,13.60518089871878,0.6911190072561713,1.0772462881073421
1970-01-01 00:00:00.000000026,-30.25961538461538,20.176191771854548,7.0541095666046445,1.0772463245020014
1970-01-01 00:00:00.000000026,-34.29807692307692,26.401996941354053,8.269839291069237,1.077246325851806
1970-01-01 00:00:00.000000026,-34.29807692307692,26.677725644704825,8.231551292264776,1.0772463259018674
1970-01-01 00:00:00.000000026,-30.096153846153843,27.896595465676242,5.98204560007971,1.0772463259037242
1970-01-01 00:00:00.000000026,-14.807692307692307,17.530351928553735,4.283679909887413,1.077246325903793
1970-01-01 00:00:00.000000026,-14.807692307692307,16.922906605274616,4.17731196688044,1.0772463259037957
1970-01-01 00:00:00.000000027,-7.144230769230768,10.888126413860856,3.0037431958844665,1.0772463259037957
1970-01-01 00:00:00.000000027,-2.1057692307692304,7.556506568968504,1.6737543220001627,1.0772463259037957
1970-01-01 00:00:00.000000027,0.7403846153846153,6.887550948288748,-1.0623765018800744,1.0772463259037957
1970-01-01 00:00:00.000000027,2.0384615384615383,7.1573690348277035,-2.1079198727621664,1.0772463259037957
1970-01-01 00:00:00.000000027,2.6730769230769225,7.361412992059237,-2.351460062698424,1.0772463259037957
1970-01-01 00:00:00.000000027,3.798076923076923,7.100781750771688,-3.131501820095283,1.0772463259037957
1970-01-01 00:00:00.000000027,5.230769230769231,6.1096942787763355,-3.449089079874213,1.0772463259037957
1970-01-01 00:00:00.000000027,6.788461538461537,4.610963776189374,-3.243903336508452,1.0772463259037957
1970-01-01 00:00:00.000000027,8.25,3.1363276783367633,-2.886301005853993,1.0772463259037957
1970-01-01 00:00:00.000000027,9.73076923076923,2.0698835389032326,-2.186223821549363,1.0772463259037957
1970-01-01 00:00:00.000000027,11.08653846153846,1.5005278720505264,-1.6417421759788025,1.0772463259037957
1970-01-01 00:00:00.000000027,12.576923076923077,1.1943690064609787,-1.3908149298783035,1.0772463259037957
1970-01-01 00:00:00.000000027,14.173076923076922,0.7474353023959013,-0.9102609307353962,1.0772463259037957
1970-01-01 00:00:00.000000027,17.365384615384613,-1.763615841771644,-1.4362301999773954,1.0772463259037957
1970-01-01 00:00:00.000000027,18.557692307692307,-4.8650630302302895,-3.1179544686542826,1.0772463259037957
1970-01-01 00:00:00.000000027,20.29807692307692,-6.593085974446181,-4.498540453688225,1.0772463259037957
1970-01-01 00:00:00.000000027,20.29807692307692,-6.648258279816582,-4.592637780927786,1.0772463259037957
1970-01-01 00:00:00.000000027,21.46153846153846,-6.409887580601529,-5.752679631362015,1.0772463259037957
1970-01-01 00:00:00.000000027,20.326923076923077,-5.668706396424692,-5.979712265846607,1.0772463259037957
1970-01-01 00:00:00.000000027,17.999999999999996,-3.645185122865175,-4.199551546496371,1.0772463259037957
1970-01-01 00:00:00.000000027,15.778846153846153,-1.5012919209350373,-1.6581794895553905,1.0772463259037957
1970-01-01 00:00:00.000000027,11.769230769230768,-0.13969674238082785,3.1787053285008255,1.0772463259037957
1970-01-01 00:00:00.000000027,11.769230769230768,-0.020520123347312888,3.483223359077688,1.0772463259037957
1970-01-01 00:00:00.000000027,8.865384615384615,1.835653412003381,6.868325366596769,1.0772463259037957
1970-01-01 00:00:00.000000027,4.9230769230769225,5.083162247438597,11.461561539035083,1.0772463259037957
1970-01-01 00:00:00.000000027,-0.4038461538461538,8.909727268838752,14.843836187350467,1.0772463259037957
1970-01-01 00:00:00.000000027,-6.5576923076923075,13.229474011207692,16.072015519427538,1.0772463259037957
1970-01-01 00:00:00.000000027,-13.278846153846153,16.78607103376894,16.350582837193116,1.0772463259037957
1970-01-01 00:00:00.000000027,-18.451923076923077,20.24444390055374,16.643721084786545,1.0772463259037957
1970-01-01 00:00:00.000000027,-22.374999999999996,24.313914281182083,16.529886452043613,1.0772463259037957
1970-01-01 00:00:00.000000027,-36.64423076923077,24.23124169136241,20.163213120391017,1.0772463259037957
1970-01-01 00:00:00.000000027,-36.64423076923077,24.17961138560299,20.376867798513864,1.0772463259037957
1970-01-01 00:00:00.000000027,-37.25,22.868265719918295,22.512217439483262,1.0772463259037957
1970-01-01 00:00:00.000000027,-29.490384615384613,8.513563052190957,13.203003067534235,1.0772463259037957
1970-01-01 00:00:00.000000027,-29.490384615384613,7.747936689237565,12.718865383941107,1.0772463259037957
1970-01-01 00:00:00.000000027,-23.682692307692303,1.4307275572232925,8.956362298875646,1.0772463259037957
1970-01-01 00:00:00.000000027,-18.81730769230769,-2.868292644208671,6.352916685701322,1.0772463259037957
1970-01-01 00:00:00.000000027,-15.144230769230768,-6.3746289508574,4.0723882150600295,1.0772463259037957
1970-01-01 00:00:00.000000027,-8.33653846153846,-11.746689028941132,-0.1484348790805444,1.0772463259037957
1970-01-01 00:00:00.000000027,-8.33653846153846,-12.035974830553158,-0.3301299502347208,1.0772463259037957
1970-01-01 00:00:00.000000027,-5.019230769230768,-14.47463139599415,-1.0150737772569174,1.0772463259037957
1970-01-01 00:00:00.000000027,-2.1346153846153846,-16.279072861288874,-1.0768620357020449,1.0772463259037957
1970-01-01 00:00:00.000000027,1.471153846153846,-16.810335858805455,-1.0602011866982926,1.0772463259037957
1970-01-01 00:00:00.000000027,1.471153846153846,-16.849995326458476,-1.0485700051518552,1.0772463259037957
1970-01-01 00:00:00.000000027,2.490384615384615,-17.38953795557349,-0.7511889524017935,1.0772463259037957
1970-01-01 00:00:00.000000027,3.221153846153846,-18.9175294740258,-0.9835317096965687,1.0772463259037957
1970-01-01 00:00:00.000000027,4.740384615384615,-22.883757843123213,-1.3041672094055614,1.0772463259037957
1970-01-01 00:00:00.000000027,4.740384615384615,-23.193932290300943,-1.2289829442535931,1.0772463259037957
1970-01-01 00:00:00.000000027,6.163461538461538,-27.602413995002177,1.1216277145585507,1.0772463259037957
1970-01-01 00:00:00.000000027,6.163461538461538,-27.821245574757828,1.2629312373344588,1.0772463259037957
1970-01-01 00:00:00.000000027,7.10576923076923,-29.321216523459164,2.727515693471839,1.0772463259037957
1970-01-01 00:00:00.000000027,7.884615384615383,-30.35160055863958,3.3799924864052,1.0772463259037957
1970-01-01 00:00:00.000000027,8.240384615384615,-30.671998559809417,3.28228143946856,1.0772463259037957
1970-01-01 00:00:00.000000027,8.432692307692307,-30.2923605562147,2.991606379245919,1.0772463259037957
1970-01-01 00:00:00.000000027,8.307692307692308,-29.47173645798748,2.241090800171257,1.0772463259037957
1970-01-01 00:00:00.000000027,8.192307692307692,-27.694523809447183,2.1428452253780335,1.0772463259037957
1970-01-01 00:00:00.000000027,5.846153846153846,-22.28040639708651,0.3657302850356533,1.0772463259037957
1970-01-01 00:00:00.000000027,3.8076923076923075,-19.1264489118885,-0.268127529415396,1.0772463259037957
1970-01-01 00:00:00.000000027,3.8076923076923075,-18.883714223902913,-0.35517357925134474,1.0772463259037957
1970-01-01 00:00:00.000000027,2.1634615384615383,-15.483835133490139,-2.071559110370914,1.0772463259037957
1970-01-01 00:00:00.000000027,0.673076923076923,-12.679834380330798,-4.076922400763335,1.0772463259037957
1970-01-01 00:00:00.000000027,-0.8846153846153846,-10.621693135441355,-5.0053457102391405,1.0772463259037957
1970-01-01 00:00:00.000000027,-3.413461538461538,-8.35588027658573,-5.067411775693468,1.0772463259037957
1970-01-01 00:00:00.000000027,-8.942307692307692,-4.2370743323733615,-5.314772233484511,1.0772463259037957
1970-01-01 00:00:00.000000027,-17.64423076923077,1.204873302504977,-6.431438528388326,1.0772463259037957
1970-01-01 00:00:00.000000027,-31.288461538461537,19.51865350000777,-2.5840680330002948,1.0772463259037957
1970-01-01 00:00:00.000000027,-31.288461538461537,20.29877119770476,-2.3383983626196443,1.0772463259037957
1970-01-01 00:00:00.000000027,-38.66346153846153,23.048168838020835,0.44731224226989347,1.0772463259037957
1970-01-01 00:00:00.000000027,-41.22596153846153,25.751787428857707,6.415828903906771,1.0772463259037957
1970-01-01 00:00:00.000000027,-31.403846153846146,26.500091741137293,5.780068163212903,1.0772463259037957
1970-01-01 00:00:00.000000027,-22.06730769230769,20.000689581849272,2.646011502841618,1.0772463259037957
1970-01-01 00:00:00.000000027,-12.961538461538462,13.018526968793026,0.16224241351078064,1.0772463259037957
1970-01-01 00:00:00.000000027,-6.1730769230769225,7.749538575562455,-0.26546633805053377,1.0772463259037957
1970-01-01 00:00:00.000000027,-2.1826923076923075,6.219014571393264,0.9201664591248111,1.0772463259037957
1970-01-01 00:00:00.000000027,-0.2980769230769231,6.913854852055671,-0.14003926557956975,1.0772463259037983
1970-01-01 00:00:00.000000027,1.1538461538461537,6.955066434109845,-0.9512266297731936,1.0772463259038698
1970-01-01 00:00:00.000000027,2.1249999999999996,6.372938868910149,-1.2930797382966555,1.0772463259057936
1970-01-01 00:00:00.000000027,3.4519230769230766,5.614283026464177,-1.461926304236505,1.0772463259576635
1970-01-01 00:00:00.000000027,4.7980769230769225,4.212702845622644,-0.9289304760889746,1.0772463273562276
1970-01-01 00:00:00.000000027,7.4326923076923075,1.8786938053472046,0.3808034498341892,1.0772463650655912
1970-01-01 00:00:00.000000027,7.4326923076923075,1.762029898751887,0.4606236216120794,1.0772473818198467
1970-01-01 00:00:00.000000027,8.423076923076922,0.9461134609537374,1.3060343336919562,1.0772747964753762
1970-01-01 00:00:00.000000027,11.192307692307692,-0.9669664530009799,2.3023033880707353,1.0780139754204154
1970-01-01 00:00:00.000000027,11.192307692307692,-1.054207691980193,2.356157144217903,1.0979443922809484
1970-01-01 00:00:00.000000027,12.846153846153845,-1.4966412304642318,2.8139395058126513,1.6353264685702982
1970-01-01 00:00:00.000000027,15.865384615384613,-1.3551055305540687,4.1202095127236875,1.6552568854308312
1970-01-01 00:00:00.000000027,15.865384615384613,-1.3412080944956155,4.181717337726917,1.6559960643758704
1970-01-01 00:00:00.000000027,16.5,-1.1075130208275479,4.536158605903054,1.6560234790313997
1970-01-01 00:00:00.000000027,16.682692307692307,-1.3116434678481776,4.544565021655559,1.6560244957856551
1970-01-01 00:00:00.000000027,16.307692307692307,-1.806860611073247,3.9170969787970216,1.6560245334950188
1970-01-01 00:00:00.000000027,16.182692307692303,-1.9735930311294907,3.4670534058640268,1.6560245348935831
1970-01-01 00:00:00.000000027,16.182692307692303,-1.980151229423004,3.4433449795316915,1.656024534945453
1970-01-01 00:00:00.000000027,15.894230769230768,-1.9904901632916194,3.2532610414916387,1.6560245349473766
1970-01-01 00:00:00.000000027,15.307692307692307,-1.0130831794507236,2.894703140742567,1.6560245349474478
1970-01-01 00:00:00.000000027,13.980769230769228,1.1372443181220824,2.403723758557678,1.6560245349474507
1970-01-01 00:00:00.000000027,9.326923076923075,7.7186797687469495,2.0058383403147455,1.6560245349474507
1970-01-01 00:00:00.000000027,9.326923076923075,8.142109438045551,2.0039114299404464,1.6560245349474507
1970-01-01 00:00:00.000000027,5.4230769230769225,13.118275058482933,2.3497702680773056,1.6560245349474507
1970-01-01 00:00:00.000000027,-0.14423076923076922,18.801317140993667,3.1898858081467947,1.6560245349474507
1970-01-01 00:00:00.000000028,-7.653846153846153,23.7672877483461,4.277146551886143,1.6560245349474507
1970-01-01 00:00:00.000000028,-15.269230769230768,27.16545206435108,6.043071092779083,1.6560245349474507
1970-01-01 00:00:00.000000028,-25.240384615384613,28.949917989133095,12.63577295314911,1.6560245349474507
1970-01-01 00:00:00.000000028,-29.00480769230769,23.98233364224248,14.622798642246835,1.6560245349474507
1970-01-01 00:00:00.000000028,-27.249999999999996,13.448090351413938,11.42979038751538,1.6560245349474507
1970-01-01 00:00:00.000000028,-21.038461538461537,-0.6338941540661505,8.731541820668426,1.6560245349474507
1970-01-01 00:00:00.000000028,-13.874999999999998,-8.313232511199983,4.821838770532141,1.6560245349474507
1970-01-01 00:00:00.000000028,-9.173076923076922,-11.073383648333364,1.0831049836993645,1.6560245349474507
1970-01-01 00:00:00.000000028,-9.173076923076922,-11.168125993800869,0.9219957893506877,1.6560245349474507
1970-01-01 00:00:00.000000028,-7.884615384615383,-10.966018184290094,0.3107813287692056,1.6560245349474507
1970-01-01 00:00:00.000000028,-6.865384615384614,-11.164364982031664,0.21910008741786274,1.6560245349474507
1970-01-01 00:00:00.000000028,-5.528846153846153,-11.47183633056483,0.6049210315130884,1.6560245349474507
1970-01-01 00:00:00.000000028,-3.6249999999999996,-12.325215943218787,1.3637677634355254,1.6560245349474507
1970-01-01 00:00:00.000000028,-1.7692307692307692,-13.8089941363424,2.2168085812460956,1.6560245349474507
1970-01-01 00:00:00.000000028,1.3942307692307692,-16.267625738026016,3.4900639302090517,1.6560245349474507
1970-01-01 00:00:00.000000028,1.3942307692307692,-16.41690079036004,3.5149175343983066,1.6560245349474507
1970-01-01 00:00:00.000000028,3.1249999999999996,-17.988695601694985,2.912709498545221,1.6560245349474507
1970-01-01 00:00:00.000000028,4.975961538461537,-19.777880455404535,0.8782389263226524,1.6560245349474507
1970-01-01 00:00:00.000000028,6.249999999999999,-20.88907669422744,-0.4502584878336,1.6560245349474507
1970-01-01 00:00:00.000000028,7.403846153846153,-21.7271902887364,-0.5352180978298519,1.6560245349474507
1970-01-01 00:00:00.000000028,7.403846153846153,-21.74506110165522,-0.500630153572401,1.6560245349474507
1970-01-01 00:00:00.000000028,7.278846153846153,-21.38945945595446,0.5182039513750238,1.6560245349474507
1970-01-01 00:00:00.000000028,6.663461538461537,-19.645344209115194,1.6171368406980469,1.6560245349474507
1970-01-01 00:00:00.000000028,6.663461538461537,-19.53483419015579,1.6444907474722408,1.6560245349474507
1970-01-01 00:00:00.000000028,6.4230769230769225,-18.29517892509118,1.2841133410524537,1.6560245349474507
1970-01-01 00:00:00.000000028,6.038461538461538,-16.68499678730602,0.7765694609440104,1.6560245349474507
1970-01-01 00:00:00.000000028,5.0,-13.44973433217133,0.9332621044358271,1.6560245349474507
1970-01-01 00:00:00.000000028,4.567307692307692,-12.457830181319894,1.1715073588233205,1.6560245349474507
1970-01-01 00:00:00.000000028,4.567307692307692,-12.411680563465803,1.197436583793827,1.6560245349474507
1970-01-01 00:00:00.000000028,4.009615384615384,-12.15754503225679,1.6592804036100068,1.6560245349474507
1970-01-01 00:00:00.000000028,3.1634615384615383,-11.84203530746756,2.35313431367636,1.6560245349474507
1970-01-01 00:00:00.000000028,0.5769230769230769,-10.827408269367371,0.8753460656517104,1.6560245349474507
1970-01-01 00:00:00.000000028,-14.923076923076922,-5.497987965451467,-2.7187905410801783,1.6560245349474507
1970-01-01 00:00:00.000000028,-14.923076923076922,-4.8682667978222565,-2.7826906748165166,1.6560245349474507
1970-01-01 00:00:00.000000028,-22.990384615384613,6.804784424250544,-0.9138576789657658,1.6560245349474507
1970-01-01 00:00:00.000000028,-29.201923076923077,19.847446252586952,0.1085333427408383,1.6560245349474507
1970-01-01 00:00:00.000000028,-37.95192307692307,21.326264395597132,2.094257932968397,1.6560245349474507
1970-01-01 00:00:00.000000028,-41.96153846153846,20.961692428535613,7.936430847405889,1.6560245349474507
1970-01-01 00:00:00.000000028,-37.33653846153846,24.8894311748645,12.689374946990581,1.6560245349474507
1970-01-01 00:00:00.000000028,-22.85576923076923,18.80294929280597,9.426692721339814,1.6560245349474507
1970-01-01 00:00:00.000000028,-13.701923076923075,12.04019973089678,4.581328529184378,1.6560245349474507
1970-01-01 00:00:00.000000028,-13.701923076923075,11.532443441407166,4.269177566638404,1.6560245349474507
1970-01-01 00:00:00.000000028,-5.990384615384615,4.585773187096692,0.6864657700525112,1.6560245349474507
1970-01-01 00:00:00.000000028,-0.6538461538461539,0.5334326102035074,-0.7346017752205989,1.6560245349474507
1970-01-01 00:00:00.000000028,1.7980769230769231,0.06690728839802115,0.2292862989913222,1.6560245349474507
1970-01-01 00:00:00.000000028,2.298076923076923,1.7730641765430657,2.4253318479862993,1.6560245349474507
1970-01-01 00:00:00.000000028,2.4615384615384612,3.555825478264754,3.7546735966387694,1.6560245349474507
1970-01-01 00:00:00.000000028,2.923076923076923,4.234223736605298,3.7008552612604646,1.6560245349474507
1970-01-01 00:00:00.000000028,3.798076923076923,4.018215410078288,2.6684184573937726,1.6560245349474507
1970-01-01 00:00:00.000000028,6.296153846153846,3.257592335508489,0.846443088371388,1.6560245349474507
1970-01-01 00:00:00.000000028,7.634615384615384,3.2117776486509113,0.4355449286337034,1.6560245349474507
1970-01-01 00:00:00.000000028,7.634615384615384,3.210404178066126,0.41326998473860543,1.6560245349474507
1970-01-01 00:00:00.000000028,8.740384615384615,3.2191351591344826,0.22274465930864376,1.6560245349474507
1970-01-01 00:00:00.000000028,9.874999999999998,3.2062451185648966,-0.14916418340522386,1.6560245349474507
1970-01-01 00:00:00.000000028,11.173076923076922,3.3494830421177166,-0.7501776112496881,1.6560245349474507
1970-01-01 00:00:00.000000028,12.384615384615385,2.979797018613453,-1.105631320336354,1.6560245349474507
1970-01-01 00:00:00.000000028,13.35576923076923,2.35503646044551,-1.101868037831866,1.6560245349474507
1970-01-01 00:00:00.000000028,14.038461538461537,2.1061874134153094,-0.6448057011240224,1.6560245349474507
1970-01-01 00:00:00.000000028,14.471153846153845,2.012023701767841,-0.05788589251673809,1.6560245349474507
1970-01-01 00:00:00.000000028,14.682692307692307,2.46845253431639,-0.4181133968279062,1.6560245349474507
1970-01-01 00:00:00.000000028,14.576923076923077,3.386194724774679,-1.73117582183673,1.6560245349474507
1970-01-01 00:00:00.000000028,14.576923076923077,3.4588050345999473,-1.8236337927637964,1.6560245349474507
1970-01-01 00:00:00.000000028,14.249999999999998,4.501541209423898,-3.0069365827857735,1.6560245349474507
1970-01-01 00:00:00.000000028,12.44230769230769,7.082807619845304,-2.863653942452089,1.6560245349474507
1970-01-01 00:00:00.000000028,12.44230769230769,7.23426452639933,-2.811719863420633,1.6560245349474507
1970-01-01 00:00:00.000000028,11.038461538461538,8.74233459293662,-1.5527823699049927,1.6560245349474507
1970-01-01 00:00:00.000000028,8.769230769230768,10.558769482889405,0.38659587598582884,1.6560245349474507
1970-01-01 00:00:00.000000028,5.288461538461538,12.844441445077344,2.740871021522376,1.6560245349474507
1970-01-01 00:00:00.000000028,-4.461538461538461,16.991149534198893,5.366921705118322,1.65602453494745
1970-01-01 00:00:00.000000028,-9.259615384615385,19.916595978292776,6.41601501667231,1.6560245349474314
1970-01-01 00:00:00.000000028,-9.259615384615385,20.256941879706076,6.615483745034037,1.6560245349469302
1970-01-01 00:00:00.000000028,-13.576923076923075,26.520834773771284,10.952046099246708,1.6560245349334175
1970-01-01 00:00:00.000000028,-17.71153846153846,30.555597012118604,18.589760934627083,1.6560245345690732
