time,ax,ay,az,speed
1970-01-01 00:00:00.000000000,0.7964257570100086,1.5714352693510778,-0.9815098347162836,0.9933666651972138
1970-01-01 00:00:00.000000000,0.7549086883770859,1.3219108864045312,-0.3782894210308968,0.816862512124076
1970-01-01 00:00:00.000000000,0.6828252891703448,1.230098308751988,-0.12236488793714345,0.7850860261169491
1970-01-01 00:00:00.000000000,0.4791530575643143,1.6449542088938243,-0.1713517942774122,0.7478961708114933
1970-01-01 00:00:00.000000000,0.2681908522314044,1.6033045217920245,0.41550563285783276,0.6909749949874444
1970-01-01 00:00:00.000000000,0.07492469281349518,1.5477893792575224,0.7935253812056559,0.675175412399593
1970-01-01 00:00:00.000000000,0.13649498065168642,1.6675504040093356,0.9902213455427638,0.6325280444329313
1970-01-01 00:00:00.000000000,0.2390720168873801,1.5816209286396152,1.0480003480941629,0.6218564057179782
1970-01-01 00:00:00.000000000,0.24008001734358098,1.3924387239064309,1.1620121076456944,0.6270441833817698
1970-01-01 00:00:00.000000000,0.17775119177846566,1.2211645861665619,1.283266527672368,0.6285017337057975
1970-01-01 00:00:00.000000000,-0.034589993042742406,1.0191790960185934,1.4263581329359645,0.645901838885812
1970-01-01 00:00:00.000000000,-0.3139426602723791,0.7869529336944842,1.7186849889575528,0.6643550623532973
1970-01-01 00:00:00.000000000,-0.46647487882719835,0.7266642634509599,1.9762507186361293,0.6530242131547914
1970-01-01 00:00:00.000000000,-0.5587263409524696,0.6471818995644949,2.204284134301142,0.6447236316925853
1970-01-01 00:00:00.000000000,-0.5711952964562184,0.5265056609970634,2.318679543701409,0.6469976975350704
1970-01-01 00:00:00.000000000,-0.5636849560801506,0.5174793207892244,2.3490719190699743,0.6364477939705935
1970-01-01 00:00:00.000000000,-0.6637936629642415,0.4163755020688893,2.5772017729443837,0.6212574602108907
1970-01-01 00:00:00.000000000,-0.8360014909423328,0.08490963514073446,3.09562635049849,0.6109792505766237
1970-01-01 00:00:00.000000000,-0.953050893041858,-0.262815210605274,3.6157098331787294,0.5994076668052593
1970-01-01 00:00:00.000000000,-1.017769399654544,-0.5177314831285711,3.9417279836814725,0.5994418103030089
1970-01-01 00:00:00.000000000,-1.0149162024387641,-0.7829914808268321,3.9938890792602417,0.6316897831986221
1970-01-01 00:00:00.000000000,-0.9616994251391046,-1.0015022225197516,3.76481343302135,0.6909438315193739
1970-01-01 00:00:00.000000000,-0.881418301483211,-1.1240280830243048,3.2896140564982512,0.7705593307898793
1970-01-01 00:00:00.000000000,-0.7461948801964235,-1.218176123246522,2.6838459883211385,0.856463214480399
1970-01-01 00:00:00.000000000,-0.6257175171563826,-1.2750897817452918,1.9158650910589152,0.9588101418506069
1970-01-01 00:00:00.000000000,-0.5255624808184063,-1.3031993843787206,1.2005600697671743,1.0506844337668684
1970-01-01 00:00:00.000000000,-0.46663168682282324,-1.307883304143102,0.602667084991888,1.1263050809752488
1970-01-01 00:00:00.000000000,-0.45409028248721744,-1.2861434089217436,0.044957643577097084,1.1962843899114486
1970-01-01 00:00:00.000000000,-0.47385020515727133,-1.2023084927261651,-0.42313046439246227,1.2522789094349758
1970-01-01 00:00:00.000000000,-0.46899685644354583,-1.0994780249227851,-0.892772312411613,1.3051792533781796
1970-01-01 00:00:00.000000000,-0.42171444663391966,-0.9759161935155095,-1.4240399840475355,1.3584681372327574
1970-01-01 00:00:00.000000000,-0.35774844190099,-0.837194930146873,-1.893242987022717,1.3997499405386735
1970-01-01 00:00:00.000000000,-0.2915002033864892,-0.7398452275636109,-2.305018972679365,1.436507168981215
1970-01-01 00:00:00.000000000,-0.2498472935027488,-0.6709766325227932,-2.6246196937722073,1.4668184222854868
1970-01-01 00:00:00.000000000,-0.22706309178454687,-0.6627485508425197,-2.84593745946082,1.494590751219603
1970-01-01 00:00:00.000000000,-0.1998828040805986,-0.707741191000448,-2.950198662445299,1.5158501286517967
1970-01-01 00:00:00.000000000,-0.13423069150222539,-0.7110306257868497,-3.0741934461794034,1.5318209215449208
1970-01-01 00:00:00.000000000,-0.020364351571090455,-0.6625095017399938,-3.225448180894083,1.5341161753488572
1970-01-01 00:00:00.000000000,0.032200825166065705,-0.6505775437151934,-3.2367590604830685,1.5286894091352716
1970-01-01 00:00:00.000000000,0.046892505649426375,-0.7168978364688099,-3.2308601100472143,1.5399094321883169
1970-01-01 00:00:00.000000000,0.12230441874572845,-0.8063813345038884,-3.347181204352947,1.5613731851712966
1970-01-01 00:00:00.000000000,0.17137555221572082,-0.9355273550105494,-3.523161567356872,1.6002626263455009
1970-01-01 00:00:00.000000000,0.23768419005168973,-1.0756926507681412,-3.651016514269945,1.6361075449532045
1970-01-01 00:00:00.000000000,0.36274739965205466,-1.137370011969314,-3.8334801141714587,1.6586705099344887
1970-01-01 00:00:00.000000000,0.4628740661165835,-0.9943459365773117,-3.963994832533264,1.6501731778875217
1970-01-01 00:00:00.000000000,0.5674401756797951,-0.8664544471660867,-3.8508645357745603,1.602746340264193
1970-01-01 00:00:00.000000000,0.5388624864589191,-0.8178068334408217,-3.6772303299137987,1.569320531495081
1970-01-01 00:00:00.000000000,0.43771418574008397,-0.7956108870458158,-3.51563520320759,1.55085239757666
1970-01-01 00:00:00.000000000,0.33996772288000815,-0.7960284819585981,-3.3772615218533613,1.5345780566957592
1970-01-01 00:00:00.000000000,0.17706704374750537,-0.6603319598351217,-3.3835997208319917,1.5328065179933459
1970-01-01 00:00:00.000000000,0.09015334445998091,-0.4630400156589152,-3.4100365226796554,1.534317565838638
1970-01-01 00:00:00.000000000,0.2906862826743548,-0.3324011098740831,-3.4280390384370887,1.516340331514789
1970-01-01 00:00:00.000000000,0.6491728243555278,-0.29617933828985243,-3.431406902470302,1.4857072164954443
1970-01-01 00:00:00.000000000,0.9819914856003151,-0.4318091924292291,-3.237315496738487,1.4436115641682021
1970-01-01 00:00:00.000000000,1.1422865046223913,-0.5652225355443293,-2.9286651877136944,1.4024765565844441
1970-01-01 00:00:00.000000000,1.2122584966510215,-0.5042634078756582,-2.7617087121392907,1.3614165417871011
1970-01-01 00:00:00.000000000,1.2127980783456174,-0.20813703369961398,-2.79571759664826,1.3107477338494504
1970-01-01 00:00:00.000000000,1.0083146218161563,0.47358167198453316,-2.8836482233652125,1.2310156649299062
1970-01-01 00:00:00.000000000,0.6257255829321295,1.3224585255478936,-2.735168085946584,1.1175167863072148
1970-01-01 00:00:00.000000000,0.2103551226648631,2.1240299390118795,-2.074658675989295,0.9463942053514522
1970-01-01 00:00:00.000000000,-0.2052173256496554,2.7151445813735067,-0.8418214121636971,0.737146730565968
1970-01-01 00:00:00.000000000,-0.47920853649879436,2.9216808731616033,0.5822876626581619,0.5565998538016639
1970-01-01 00:00:00.000000000,-0.4037224231348979,2.9180612504120074,1.8114105603562094,0.4020967972846874
1970-01-01 00:00:00.000000000,-0.06962252947007908,2.7425620504824693,2.7023866294793684,0.28982805418815194
1970-01-01 00:00:00.000000000,0.3668912863893111,2.3535422225251286,3.1254565454970984,0.2589139944890917
1970-01-01 00:00:00.000000000,0.8570595780570759,2.0421488121002733,2.9240109533459986,0.3031458702045754
1970-01-01 00:00:00.000000000,1.4621250518402804,1.9044301774747305,1.9427936681371545,0.40920419310972334
1970-01-01 00:00:00.000000000,2.000843910970553,2.0586423120492174,0.4625944186887596,0.5397688948727954
1970-01-01 00:00:00.000000000,2.360415212199498,2.791521886501954,-1.340134724892878,0.6403908258868294
1970-01-01 00:00:00.000000000,2.4809492723890605,4.018832583427428,-2.439848030872863,0.570392582778548
1970-01-01 00:00:00.000000000,2.005562254959685,5.075746473384525,-1.176973501328975,0.23222273526283033
1970-01-01 00:00:00.000000000,0.6267218970033499,5.099802588148819,2.2350438851844863,-0.11367312170492072
1970-01-01 00:00:00.000000000,-0.7877208777272597,4.54087358809171,6.6951085827684125,-0.5283692179424149
1970-01-01 00:00:00.000000000,-1.9030787687759565,3.8581935925283912,11.137297151763653,-0.9468088386446998
1970-01-01 00:00:00.000000000,-2.8087623393566976,3.609019391205515,13.990580495881588,-1.2057258225385517
1970-01-01 00:00:00.000000000,-3.1972986654099067,4.292736097736596,14.315782364755963,-1.2993046202845704
1970-01-01 00:00:00.000000000,-3.262518218293057,5.719993604571679,13.210681709419868,-1.349282946360103
1970-01-01 00:00:00.000000000,-3.475611641592129,6.816703412280647,12.042235976163328,-1.360645122960767
1970-01-01 00:00:00.000000000,-4.166962373108489,6.953055662470794,12.551746782454615,-1.4150006162218682
1970-01-01 00:00:00.000000000,-5.061658013185408,5.9233146486928625,14.612442324372253,-1.4857787188728246
1970-01-01 00:00:00.000000000,-5.842142607966572,4.547272914270655,16.555029037630234,-1.5291141094158986
1970-01-01 00:00:00.000000000,-6.943515212384677,3.5968463498551806,17.61713400488368,-1.455432300222085
1970-01-01 00:00:00.000000000,-7.824541418726724,3.434872965196134,17.47488352760594,-1.2991859413095557
1970-01-01 00:00:00.000000000,-7.905588613870437,3.845093094762005,15.655090624798817,-1.0711411089193354
1970-01-01 00:00:00.000000000,-7.560337226043521,4.141686420494064,13.221609169078901,-0.7615005505000223
1970-01-01 00:00:00.000000000,-6.622802809586669,3.499403094725033,10.847319776478738,-0.3693332965392553
1970-01-01 00:00:00.000000000,-5.045227860135861,2.2848926737814024,8.098720332546447,0.083274702534464
1970-01-01 00:00:00.000000000,-3.17946780149829,1.0102065968851295,5.135636701787204,0.5363353863763284
1970-01-01 00:00:00.000000000,-1.2945886852724304,-0.29965835950909253,2.2731268140817162,0.9585145498947831
1970-01-01 00:00:00.000000000,0.30489430740257634,-1.7184454620224605,0.1213241200273383,1.3271719242859437
1970-01-01 00:00:00.000000000,1.7862125073096928,-3.015880510755975,-1.164886969002276,1.5586936320619773
1970-01-01 00:00:00.000000000,2.9179923495904765,-4.082284890866347,-2.195228845566287,1.7366772008049183
1970-01-01 00:00:00.000000000,3.5663806844586143,-4.987653549083768,-2.888133867736104,1.9008264051171482
1970-01-01 00:00:00.000000000,4.099180621050389,-5.791032779981376,-2.991057428894619,1.9800415136667606
1970-01-01 00:00:00.000000000,4.476259335195866,-6.743952888573963,-2.744138090579253,2.037650707619691
1970-01-01 00:00:00.000000000,4.63429394365327,-7.809334077197396,-2.364309882427179,2.12396634827795
1970-01-01 00:00:00.000000000,4.835419617719316,-9.020738176228454,-2.0048997154268706,2.247847337307853
1970-01-01 00:00:00.000000000,5.34727023027066,-10.77088589228015,-1.7882716454072596,2.3987001696200796
1970-01-01 00:00:00.000000000,5.5511676634689975,-12.420717453040742,-1.0309712482737834,2.490598326624979
1970-01-01 00:00:00.000000001,5.510936059032356,-13.500984535892051,-0.2104512540567356,2.5360330750775697
1970-01-01 00:00:00.000000001,5.577805978942817,-14.160329502365407,0.5443229024207996,2.5289078360434827
1970-01-01 00:00:00.000000001,5.758823143678262,-14.627743002067433,0.8573386453247368,2.5457251458979724
1970-01-01 00:00:00.000000001,6.044977251158338,-15.23608715353414,0.9064649212688265,2.609393125018193
1970-01-01 00:00:00.000000001,6.433577565035246,-16.04749829605371,0.8163260762346544,2.7080786987889316
1970-01-01 00:00:00.000000001,6.874911895521558,-16.617730334369398,0.5629756426136892,2.788445869724967
1970-01-01 00:00:00.000000001,7.3033615015281,-16.75199783363921,0.2632391726153176,2.810260303960538
1970-01-01 00:00:00.000000001,7.582203443872453,-17.04766561519315,0.18302757669665182,2.8282055178009893
1970-01-01 00:00:00.000000001,7.659584887053876,-17.36394801078779,0.3495311639819103,2.8233920643491413
1970-01-01 00:00:00.000000001,7.465374284488904,-17.27727999933671,0.7559645275552582,2.7561085182610143
1970-01-01 00:00:00.000000001,7.099779709548552,-16.475197679323852,1.2089253719889468,2.5900298425725414
1970-01-01 00:00:00.000000001,6.421866674974096,-14.939098174499186,1.2489796840544487,2.3897340210008693
1970-01-01 00:00:00.000000001,5.266734148245725,-12.950663078499879,0.9433160511354114,2.2136562999998333
1970-01-01 00:00:00.000000001,3.7449561451993354,-10.876093654402997,0.5732649871957789,2.0827749914838494
1970-01-01 00:00:00.000000001,2.2075991113741527,-9.335034720709313,0.4036694728224464,1.991176961630727
1970-01-01 00:00:00.000000001,0.5273546550175318,-8.476488555370201,0.26916602838832226,1.9734358438188684
1970-01-01 00:00:00.000000001,-1.6244278386103006,-8.163062039158218,0.48090752878998744,2.0097626785016445
1970-01-01 00:00:00.000000001,-4.2918018876061215,-7.801682373494194,1.0898413773487219,2.015738226028119
1970-01-01 00:00:00.000000001,-7.500587639075386,-5.17209280748417,1.2550788973266482,1.8265162838536435
1970-01-01 00:00:00.000000001,-10.992835391148157,0.5272468443673692,1.1693591234166196,1.2733493328610095
1970-01-01 00:00:00.000000001,-14.952188722673277,7.627451589566342,0.03731141908535984,0.6246873094518283
1970-01-01 00:00:00.000000001,-20.690810000695304,12.948824850532722,-0.6270720315029649,0.4791644208420477
1970-01-01 00:00:00.000000001,-24.847684476448965,15.68763472764637,-0.02144091683613758,0.6106450280074447
1970-01-01 00:00:00.000000001,-24.38784247009343,16.949833645000318,-0.6193118739917759,0.6918498063347932
1970-01-01 00:00:00.000000001,-20.9526423843349,16.103854735793767,-1.8039986325105668,0.6913584133581874
1970-01-01 00:00:00.000000001,-18.199889582248687,14.70969485052595,-1.4832005746988313,0.6813556053259047
1970-01-01 00:00:00.000000001,-14.988776303857179,12.8869665654494,-0.6633565473153119,0.6353808893787884
1970-01-01 00:00:00.000000001,-11.354464056231668,10.65195177605094,-1.0138768433716234,0.7385553892391179
1970-01-01 00:00:00.000000001,-7.7112035598181246,8.44179928945522,-1.9852503221890887,0.8827601435015935
1970-01-01 00:00:00.000000001,-4.655668158780037,6.8212406494859525,-3.293270245487879,0.9916577174447483
1970-01-01 00:00:00.000000001,-2.8110027439510143,5.788699274909061,-4.1260452777400705,1.050076877645115
1970-01-01 00:00:00.000000001,-1.9864905180846697,5.288881281272499,-4.044710745280332,1.026737109082055
1970-01-01 00:00:00.000000001,-1.5450375237523462,5.214208193127302,-3.6280319711499582,0.9760155631441926
1970-01-01 00:00:00.000000001,-0.7313027277451054,4.981935943948513,-3.1749564649847852,0.91395672848984
1970-01-01 00:00:00.000000001,0.4253191905811093,4.586893849036653,-2.8069610278852606,0.8407252835303665
1970-01-01 00:00:00.000000001,1.5920710717692081,4.016880781460682,-2.460308486497785,0.7893863501444127
1970-01-01 00:00:00.000000001,2.73133696703693,3.2890007221981286,-1.9512546357584737,0.7438972640601678
1970-01-01 00:00:00.000000001,3.8930345525928174,2.3612455829304784,-1.39845981393955,0.7220242664165599
1970-01-01 00:00:00.000000001,5.14563116929707,1.3274598555969073,-0.9443305019372605,0.7146653897537751
1970-01-01 00:00:00.000000001,6.367609751229979,0.04818757968377918,-0.5304466768687137,0.7430359403280646
1970-01-01 00:00:00.000000001,7.48379930043437,-1.4047754734773124,-0.2561100428605466,0.8200023516564746
1970-01-01 00:00:00.000000001,8.519624072324863,-2.6100504287382424,-0.017449545533174515,0.8651801111244981
1970-01-01 00:00:00.000000001,9.32626842732859,-3.3520296839417636,0.24952873197833586,0.8554946891133706
1970-01-01 00:00:00.000000001,9.839151119639757,-3.6752229559087666,0.7242533907288873,0.8037821986121312
1970-01-01 00:00:00.000000001,10.402905423397428,-3.8534550031623915,1.3308479401341309,0.7232374177415964
1970-01-01 00:00:00.000000001,11.181831899774375,-4.280366600262987,1.7963365221054741,0.6624012315186597
1970-01-01 00:00:00.000000001,11.903266527940016,-5.066069573248105,2.0706117874037235,0.6630470858470844
1970-01-01 00:00:00.000000001,12.32309811842114,-6.1040579804640265,2.259635634767015,0.7404016052194483
1970-01-01 00:00:00.000000001,12.625507701009923,-7.090293754093701,2.3427524964927686,0.8320760221601147
1970-01-01 00:00:00.000000001,12.773941312443585,-7.743644354917322,2.084910795686332,0.9169576401471295
1970-01-01 00:00:00.000000001,12.490649267615671,-7.770540374148537,1.6674024415635145,0.9944213382326264
1970-01-01 00:00:00.000000001,12.19270442553275,-7.327313420623959,1.1685874529977003,1.0171284404979133
1970-01-01 00:00:00.000000001,11.809319818412957,-6.88121340957219,0.8201673625005116,1.0048327502320427
1970-01-01 00:00:00.000000001,11.060649337381763,-6.220351462081018,0.7210285102602829,0.9595306134063567
1970-01-01 00:00:00.000000001,10.034609341579305,-5.201008443683078,0.764870037459366,0.8708390565668036
1970-01-01 00:00:00.000000001,8.819539582742662,-3.87493362066073,1.012405397843957,0.7361444324935813
1970-01-01 00:00:00.000000001,7.638100670819903,-2.1010629725895584,1.6412120458944361,0.4272745842218174
1970-01-01 00:00:00.000000001,5.4796651821597635,-0.11958418262448112,2.0345022979383227,0.1355294200228705
1970-01-01 00:00:00.000000001,1.5945347957023355,2.7921473924540554,1.4602073491659644,0.0029547290161180406
1970-01-01 00:00:00.000000001,-3.3143758990301233,8.040681006367254,-0.0757866429741667,-0.17155688720924833
1970-01-01 00:00:00.000000001,-8.07115125583182,16.125940232680854,-1.6867462562493691,-0.714212608552137
1970-01-01 00:00:00.000000001,-12.612322749536082,24.126398364292985,-1.6996691874827539,-1.4944128335272162
1970-01-01 00:00:00.000000001,-17.43072898133162,26.712907277520948,0.9717698685049627,-1.8577646004967732
1970-01-01 00:00:00.000000001,-21.843215285862044,24.384576119318734,5.949933627661576,-1.8016757674459545
1970-01-01 00:00:00.000000001,-24.299498363889512,22.309449589449912,10.065239723720648,-1.797601853286143
1970-01-01 00:00:00.000000001,-25.228226286455897,20.075278464186,11.666254581152199,-1.527780981028384
1970-01-01 00:00:00.000000001,-24.448402087009658,16.40443805288496,11.605003076700617,-0.9200379032731532
1970-01-01 00:00:00.000000001,-21.406638911563732,11.428236619033408,10.002516145090608,-0.12847713012621353
1970-01-01 00:00:00.000000001,-16.82429361402686,5.988293214334568,7.543275394063158,0.6325755650778839
1970-01-01 00:00:00.000000001,-12.315038740795663,1.2295467008039505,4.889786027418905,1.282961541928221
1970-01-01 00:00:00.000000001,-8.597482177398811,-2.1453765096745303,2.6261031292006756,1.75361947183243
1970-01-01 00:00:00.000000001,-6.014318416952811,-4.150515505753415,1.2691954172621818,1.9700305808268554
1970-01-01 00:00:00.000000001,-4.472004453334561,-5.464056749346913,1.0966585331990932,2.042761033829784
1970-01-01 00:00:00.000000001,-3.3513184648733665,-6.644468812112865,1.5751328936139353,2.0701346740945015
1970-01-01 00:00:00.000000001,-2.1461737455183383,-7.833141616000137,2.0353891560774238,2.105404155438418
1970-01-01 00:00:00.000000001,-0.6518917536635669,-8.692514074832587,2.0382150655357036,2.0846876948183763
1970-01-01 00:00:00.000000001,0.24095482623460984,-9.28893950884084,1.5722165090254878,2.158031927312991
1970-01-01 00:00:00.000000001,1.046777901988655,-9.768697432437031,1.5017859095859443,2.173399001082281
1970-01-01 00:00:00.000000001,1.7836886132242464,-10.518717855682468,2.1731763610709525,2.1219838402009588
1970-01-01 00:00:00.000000001,2.2987405504793,-11.659677167993186,3.250983342326059,2.098241614356217
1970-01-01 00:00:00.000000001,2.8664103919791972,-12.898754626974117,4.497184934892089,2.075420227592921
1970-01-01 00:00:00.000000001,3.6674321437372885,-14.119922693163565,5.409784966904735,2.075949024813688
1970-01-01 00:00:00.000000001,4.6376616232628995,-15.330076149176305,5.826091110801303,2.135354808658733
1970-01-01 00:00:00.000000001,5.857786238072815,-16.52758345945782,5.659224899869413,2.2442501111274487
1970-01-01 00:00:00.000000001,7.170675750808914,-17.403958410708807,4.733700031148758,2.3711864642746194
1970-01-01 00:00:00.000000001,8.06000905027493,-17.824084415219694,3.7058851556078487,2.4840630657645
1970-01-01 00:00:00.000000001,8.600949776431104,-18.13459773466652,3.0369222358189845,2.5613088039392577
1970-01-01 00:00:00.000000001,8.862107931609042,-18.30015582021035,2.8009138120705366,2.5822426681776576
1970-01-01 00:00:00.000000001,8.880118286772,-18.21908205628676,2.8382780448115503,2.560840018599715
1970-01-01 00:00:00.000000001,8.835957137030295,-18.070652559938374,3.1270005374351943,2.505914400625131
1970-01-01 00:00:00.000000001,8.817189818900212,-17.766905921921364,3.262367606066803,2.421549365423279
1970-01-01 00:00:00.000000001,8.400589984893232,-16.803202377364816,2.78952978094221,2.359592847394005
1970-01-01 00:00:00.000000001,7.671396937805858,-15.33648266974877,2.1380120765530073,2.271602538411879
1970-01-01 00:00:00.000000001,6.54553467972407,-13.46522927561015,1.2533967162310526,2.1913455469852385
1970-01-01 00:00:00.000000001,5.094693253375463,-11.389633127940659,0.2887739054702332,2.1308713009908735
1970-01-01 00:00:00.000000001,3.526679077881612,-9.934858796970408,-0.33649488671700223,2.1132553886025116
1970-01-01 00:00:00.000000001,1.784609392818149,-10.0101848755945,-0.032766332163440604,2.1694631329592085
1970-01-01 00:00:00.000000001,-0.3827976207192165,-10.960251652283768,1.3316851101021134,2.243199820110666
1970-01-01 00:00:00.000000002,-2.696735521786711,-11.085670724197914,2.5692033167901336,2.128940448915336
1970-01-01 00:00:00.000000002,-6.732967401708682,-7.702671750120893,2.686990594170228,1.7894478785588022
1970-01-01 00:00:00.000000002,-12.780552266539798,0.08564747844385778,0.9516567333162494,1.3093357066988898
1970-01-01 00:00:00.000000002,-19.876562723296757,9.482638652842217,-2.774773809894355,0.9311706140648919
1970-01-01 00:00:00.000000002,-28.51602239570375,15.714292383418577,-5.351853365341221,1.2520365351922744
1970-01-01 00:00:00.000000002,-33.423731774577185,19.60724922901021,-6.921273524767746,1.5788787926937957
1970-01-01 00:00:00.000000002,-33.555235516668624,22.050698472313176,-6.65327013093174,1.3980219670128777
1970-01-01 00:00:00.000000002,-31.253058649652075,21.55605302117454,-4.6725765126603225,1.1132272413993112
1970-01-01 00:00:00.000000002,-28.005289593045873,18.92671396913095,-2.2923148411654095,1.0241638475165618
1970-01-01 00:00:00.000000002,-23.2337988309005,15.961872806141226,-0.47327553802570105,0.9369147293444404
1970-01-01 00:00:00.000000002,-17.3114725299361,13.52425703302427,-1.0057194491865284,0.9040085081418016
1970-01-01 00:00:00.000000002,-11.90839823616283,11.237348965394762,-2.136867710129899,0.9166662973814161
1970-01-01 00:00:00.000000002,-7.721420703725604,9.5104064519439,-2.8134673050114003,0.8732923674823208
1970-01-01 00:00:00.000000002,-4.8176525039686675,8.285443208614025,-2.8349315536543225,0.8051150231813451
1970-01-01 00:00:00.000000002,-2.515970850620043,7.404536369654919,-2.5217084546350677,0.7238588744506534
1970-01-01 00:00:00.000000002,-0.2654537857877395,6.415013913315249,-2.2232215802463644,0.6681191552488606
1970-01-01 00:00:00.000000002,1.9612603966499655,4.85566518657863,-2.450448315294911,0.7712536410067425
1970-01-01 00:00:00.000000002,4.3743852068964095,2.841867062065784,-2.7849619949585107,0.9607195167073391
1970-01-01 00:00:00.000000002,7.346784199261774,1.118974963937043,-3.4992960738454815,1.063472211847328
1970-01-01 00:00:00.000000002,9.885679773294946,-0.1614664821296502,-4.477955445233509,1.1221761838230058
1970-01-01 00:00:00.000000002,11.308656801466457,-1.251790018207629,-4.428720984229296,1.1131341416202838
1970-01-01 00:00:00.000000002,11.962272806536518,-1.7336002050804458,-3.4442473245615823,0.9867788713370527
1970-01-01 00:00:00.000000002,12.381033903815577,-1.6539025668230374,-2.664443826792136,0.8324777636379656
1970-01-01 00:00:00.000000002,12.653298450866306,-1.6076615084792558,-1.9316284081641075,0.7052977645666474
1970-01-01 00:00:00.000000002,12.90643931042757,-1.7801360124952503,-1.0167010440171604,0.5844534562996858
1970-01-01 00:00:00.000000002,13.136892411701464,-1.9750620528469518,-0.03835100425373805,0.45696375858685956
1970-01-01 00:00:00.000000002,13.269180792711785,-2.5659116028578337,0.9618517406808123,0.385265264076747
1970-01-01 00:00:00.000000002,13.287969968659477,-3.4987926232814774,1.814106603668371,0.4020263995348443
1970-01-01 00:00:00.000000002,13.475984487418284,-4.148681924717408,2.521833859390126,0.3733242514052588
1970-01-01 00:00:00.000000002,13.520565296870288,-4.490926965152241,2.800099978801196,0.3534901943594668
1970-01-01 00:00:00.000000002,13.179651900686947,-4.5584498142935574,2.8787618883415442,0.3698767434161637
1970-01-01 00:00:00.000000002,12.789005986293585,-4.0036771842217185,2.5100118429726628,0.3677921414455322
1970-01-01 00:00:00.000000002,12.360964728701047,-3.1743950143877013,2.007997017225234,0.3280196479343874
1970-01-01 00:00:00.000000002,11.59515202436615,-1.6209925300095638,1.2899032963449797,0.22380345403598922
1970-01-01 00:00:00.000000002,10.20429272126082,0.6229215318046228,0.5347168117643644,0.0810678657291779
1970-01-01 00:00:00.000000002,8.310066337327763,2.748419413938793,0.4559961464968523,-0.07535612712749185
1970-01-01 00:00:00.000000002,6.338047536951328,4.553511864893673,0.7462883640015552,-0.245504650804508
1970-01-01 00:00:00.000000002,4.1026793131999035,6.180288243737737,1.1776769870925616,-0.4183127120302266
1970-01-01 00:00:00.000000002,1.2577834809823445,7.824596471606608,2.0613160430793043,-0.6375433914139848
1970-01-01 00:00:00.000000002,-2.5826324342818276,9.614628003382364,3.258667689789406,-0.8634779153897709
1970-01-01 00:00:00.000000002,-7.510114432508242,13.334554088923204,4.236906050439749,-1.211096427888267
1970-01-01 00:00:00.000000002,-12.911483195169138,20.699040263787417,4.418503538326993,-1.9043483443346056
1970-01-01 00:00:00.000000002,-18.956460837098504,27.60725877876871,4.880415229819386,-2.4875136966986693
1970-01-01 00:00:00.000000002,-25.16914385344511,27.57367787727763,7.479438781104804,-2.2307209252045
1970-01-01 00:00:00.000000002,-28.40619573248381,24.015688833200233,9.948076785481808,-1.70723693133344
1970-01-01 00:00:00.000000002,-29.529261690895616,18.39717822586106,11.165892033635071,-0.6663491870518714
1970-01-01 00:00:00.000000002,-25.207354532733113,9.88420766632459,9.707092523940654,0.5429627092245373
1970-01-01 00:00:00.000000002,-18.57950159319015,2.983378577151173,6.057555925010784,1.3593615753790378
1970-01-01 00:00:00.000000002,-14.508829092198567,-0.6155050132028748,4.314398521390351,1.778350323065876
1970-01-01 00:00:00.000000002,-11.046464023837471,-3.405699731973879,3.377518354183807,2.003480776071056
1970-01-01 00:00:00.000000002,-8.37842814812415,-5.860491244686688,2.8564935469777133,2.194596563274322
1970-01-01 00:00:00.000000002,-6.250978276144414,-8.047395123196036,2.277976165585299,2.431864610722985
1970-01-01 00:00:00.000000002,-4.011770431657854,-9.934962139885792,1.6330778655460652,2.601032294983339
1970-01-01 00:00:00.000000002,-2.2409733571338597,-11.479495790998788,0.2822130668806273,2.914163643565869
1970-01-01 00:00:00.000000002,0.30655526964707525,-12.332100453406328,-0.3340012960940639,2.911779271987065
1970-01-01 00:00:00.000000002,2.3745840261889177,-14.534119435218557,2.027848954332901,2.683043142854208
1970-01-01 00:00:00.000000002,3.278318612115667,-16.637016175960024,4.038031184617384,2.633563133627855
1970-01-01 00:00:00.000000002,4.3007435331182755,-17.980433058277658,5.683877287760931,2.5091151495386566
1970-01-01 00:00:00.000000002,5.091660137278426,-18.21675868725958,6.294573295204728,2.38153304120983
1970-01-01 00:00:00.000000002,5.486881997294914,-18.17818519702328,5.963467983474414,2.3872126908507134
1970-01-01 00:00:00.000000002,5.808057586463351,-18.110270697061267,5.203033193912017,2.4582499740841497
1970-01-01 00:00:00.000000002,6.1569640717814,-17.699974573475462,4.367577302305879,2.485755086593386
1970-01-01 00:00:00.000000002,6.396172657173562,-17.10931729300036,3.6512794621230045,2.4879322847301273
1970-01-01 00:00:00.000000002,6.659988582819742,-16.63833839711145,3.330222115437702,2.452739968559353
1970-01-01 00:00:00.000000002,6.975982750111605,-16.39135283376452,3.4991842499403316,2.3715828886341397
1970-01-01 00:00:00.000000002,7.247986435817508,-16.155958471176085,3.9199822763056043,2.2532970949336804
1970-01-01 00:00:00.000000002,7.366753978876785,-15.823803368860037,4.336059729441034,2.1142306207217834
1970-01-01 00:00:00.000000002,7.045585810157081,-15.316588793832283,4.67377411281491,2.0021427857834784
1970-01-01 00:00:00.000000002,6.458911647079941,-14.40440061749453,4.6755347636782965,1.914387469565412
1970-01-01 00:00:00.000000002,5.894418677972762,-12.959443653861843,3.9584487311574783,1.7301725441574554
1970-01-01 00:00:00.000000002,5.147869054015335,-11.454139159051506,2.749019855297248,1.7204605194085434
1970-01-01 00:00:00.000000002,4.171649926744748,-10.137066970090663,1.4303340323064928,1.7612585693103813
1970-01-01 00:00:00.000000002,2.826002512294043,-9.11626605678768,0.5004019935870494,1.8376742475795358
1970-01-01 00:00:00.000000002,1.4237549385432988,-9.000338662729177,-0.16770230500838645,1.9814744347837885
1970-01-01 00:00:00.000000002,-0.3537280333850963,-9.778559308356666,-0.41404570026943843,2.1502044391257638
1970-01-01 00:00:00.000000002,-3.391002655545134,-9.296495380334871,-0.5372643197010367,2.172063123176246
1970-01-01 00:00:00.000000002,-8.291297996119303,-5.7758417119454455,0.3588833170810074,1.8202245543714584
1970-01-01 00:00:00.000000002,-14.283656322557647,2.6686955156844334,0.7970402387650655,0.9176766217285743
1970-01-01 00:00:00.000000002,-22.07449700756136,13.288875176749793,-1.8805423290996355,0.28904919262367657
1970-01-01 00:00:00.000000002,-31.19599109249993,20.35835414696366,-3.8442632340519687,0.4878218885132293
1970-01-01 00:00:00.000000002,-35.88621684227004,25.07359340587964,-4.4776583756930695,0.6927988308431575
1970-01-01 00:00:00.000000002,-33.97535869139554,26.662596069771855,-4.518584651675798,0.6254252212361574
1970-01-01 00:00:00.000000002,-28.235349120093833,23.6150148175199,-3.9756128799941126,0.6159469010914174
1970-01-01 00:00:00.000000002,-21.944608497746774,18.75302209916362,-3.0127450122672546,0.689109623129143
1970-01-01 00:00:00.000000002,-16.0898179499445,13.889740330870659,-1.9453439802487313,0.7869218133673694
1970-01-01 00:00:00.000000002,-10.506443596470616,9.87547615187159,-1.4060331369210564,0.7870390743162183
1970-01-01 00:00:00.000000002,-6.371980593754468,7.729515114422684,-2.2861513718593764,0.8182829569298643
1970-01-01 00:00:00.000000002,-3.576609334878139,7.254491803032136,-2.1369940377909153,0.6134110472802294
1970-01-01 00:00:00.000000002,-1.7500432252915548,7.413952480372623,-1.640498735567565,0.389754651563086
1970-01-01 00:00:00.000000002,-0.1502519257089443,7.212149457488336,-1.6165475320739449,0.32363925438136065
1970-01-01 00:00:00.000000002,1.7189228441140347,6.006405249294649,-1.8139622529468493,0.414578013214683
1970-01-01 00:00:00.000000002,4.032929706713004,4.253758457146606,-2.067467113811634,0.5366837050936293
1970-01-01 00:00:00.000000002,6.423646294317499,2.0826515042741742,-2.2700714093569525,0.6872108539225936
1970-01-01 00:00:00.000000002,8.667279236501521,-0.08725034843316715,-2.2895434455153074,0.8266772631261239
1970-01-01 00:00:00.000000002,10.81149609924537,-2.254424602654164,-2.1136153102409394,0.9408119787971663
1970-01-01 00:00:00.000000002,12.78184671221928,-3.9621955030912517,-2.458051510852065,1.0190150035342902
1970-01-01 00:00:00.000000002,13.752748080812658,-4.852195341488573,-2.8811168434437517,1.0690021749486918
1970-01-01 00:00:00.000000003,13.799321301454441,-5.175129011687938,-2.9601535567169592,1.0897438444916276
1970-01-01 00:00:00.000000003,13.405624136797542,-5.046910094886683,-2.7136513087150944,1.0572099245232751
1970-01-01 00:00:00.000000003,12.891239812850339,-4.692174813309171,-2.159163041647257,0.9779432735790883
1970-01-01 00:00:00.000000003,12.504095956139823,-4.4710951561722325,-1.4130361074720945,0.8917235893998132
1970-01-01 00:00:00.000000003,12.385186823715818,-4.912694459761672,-0.37811191651992415,0.8370440027941616
1970-01-01 00:00:00.000000003,12.55535135789326,-5.982170304536247,1.1434993142908063,0.7716998578981579
1970-01-01 00:00:00.000000003,12.829641225729953,-7.005081836601526,2.35341532848693,0.7234245055703077
1970-01-01 00:00:00.000000003,13.035422551947462,-7.576960926189132,2.7267929123722134,0.7125905690149628
1970-01-01 00:00:00.000000003,12.916870851399983,-7.272857041769411,2.3199994342982215,0.6902774055680053
1970-01-01 00:00:00.000000003,12.143038121347413,-6.414904427527317,1.7884665877375059,0.6739245743778695
1970-01-01 00:00:00.000000003,11.02649032027372,-5.419507338193413,1.7286535978890978,0.6394916849080536
1970-01-01 00:00:00.000000003,10.167211968365423,-4.2947651821494786,1.5022090768135394,0.5831298586840009
1970-01-01 00:00:00.000000003,9.423214400296866,-3.2597005451122296,1.360443510806646,0.5082169532890434
1970-01-01 00:00:00.000000003,8.66242599363435,-2.378286435617298,1.8186288152290717,0.3513413993823634
1970-01-01 00:00:00.000000003,7.654632354395431,-0.43657799676134235,3.0099897201717,-0.13079353117294756
1970-01-01 00:00:00.000000003,4.7511257099512525,3.4007635830179925,3.511176689363814,-0.6989332620959978
1970-01-01 00:00:00.000000003,-0.8127504342563099,8.57963124890021,2.8642174033033956,-1.044217615767773
1970-01-01 00:00:00.000000003,-7.8928206689393905,13.958293892061867,2.5317069546032505,-1.162178189860159
1970-01-01 00:00:00.000000003,-13.352192251984317,20.343296730333986,3.29086326454842,-1.6618501978937252
1970-01-01 00:00:00.000000003,-17.351913369785116,26.269390925160593,4.280274286408325,-2.375353636066734
1970-01-01 00:00:00.000000003,-22.43714961217063,26.991020031661144,6.337304251134476,-2.28818577425012
1970-01-01 00:00:00.000000003,-25.399110796338608,25.14937585495236,8.988166419484806,-2.1206859244251994
1970-01-01 00:00:00.000000003,-27.388618161404892,23.545923044183247,8.346984067086266,-1.5927887741012134
1970-01-01 00:00:00.000000003,-28.123996870896622,20.61929099293281,6.659148046782224,-0.7321159023712935
1970-01-01 00:00:00.000000003,-26.00599714788346,16.945095383687736,4.970174814719037,-0.030428552239290863
1970-01-01 00:00:00.000000003,-22.27663883049594,12.413361939756268,3.800649523751582,0.5493729840290966
1970-01-01 00:00:00.000000003,-17.751060080261155,7.453849974278575,3.3855353111204756,0.9754225245707223
1970-01-01 00:00:00.000000003,-13.225276530266743,2.892308800134529,3.4105253108704923,1.2125070327486243
1970-01-01 00:00:00.000000003,-9.880181597612383,-0.8222715600322297,3.4878888929969194,1.4252585892551823
1970-01-01 00:00:00.000000003,-7.390067099092319,-3.8263144976084993,3.5298012234426244,1.6605517195366986
1970-01-01 00:00:00.000000003,-4.897223004574361,-6.3718815595297515,3.1830824558217787,1.8997265731025523
1970-01-01 00:00:00.000000003,-2.184745160563962,-8.883366167717636,2.7445465257230497,2.086937615208875
1970-01-01 00:00:00.000000003,0.02239902638175728,-11.241368343458031,2.1573103640890468,2.308976081924773
1970-01-01 00:00:00.000000003,1.8762446564704145,-12.63189208538605,2.004520324944248,2.3808540360221455
1970-01-01 00:00:00.000000003,3.505214385324228,-14.045386017481128,2.489070353889626,2.3721652541562976
1970-01-01 00:00:00.000000003,4.676546867769733,-15.911106222750686,2.88280339392941,2.473782409050303
1970-01-01 00:00:00.000000003,5.575414216069791,-17.950381840002976,3.2007214389879817,2.6478103659847445
1970-01-01 00:00:00.000000003,6.553273173548858,-19.41190021010855,3.373978705967221,2.7281511387579
1970-01-01 00:00:00.000000003,7.0824499324140024,-20.298918492269976,3.5187089627853387,2.7580261401353887
1970-01-01 00:00:00.000000003,7.077617506750604,-20.753497898262953,3.7865644721551845,2.7677062468147984
1970-01-01 00:00:00.000000003,6.8356612875147125,-20.6292690561927,3.8847874900425987,2.760048647500658
1970-01-01 00:00:00.000000003,6.6917839623852515,-20.391730159886944,4.1977342180478905,2.7223941137550067
1970-01-01 00:00:00.000000003,6.955770498174722,-20.165672640688225,4.485809017316301,2.6501154629492696
1970-01-01 00:00:00.000000003,7.421212382239524,-20.178791690768755,4.571748697419046,2.6071132528008674
1970-01-01 00:00:00.000000003,7.877897014772777,-20.455358979559445,4.657749843505859,2.5720368121813677
1970-01-01 00:00:00.000000003,7.904783452953646,-20.547388124302426,4.7560097102725685,2.530143728129068
1970-01-01 00:00:00.000000003,7.379522215417079,-19.994694369006588,4.833938341453933,2.4450202739028457
1970-01-01 00:00:00.000000003,6.345213218215177,-18.590612850200575,4.729072497658036,2.327901074921269
1970-01-01 00:00:00.000000003,5.166500022657167,-16.5507822702649,4.252089411457622,2.183129484115306
1970-01-01 00:00:00.000000003,3.7891268327760086,-14.438678290576735,3.4191717680728035,2.0821755715661108
1970-01-01 00:00:00.000000003,2.11770252390476,-12.663472867249364,2.695607034566429,2.039420075226891
1970-01-01 00:00:00.000000003,0.26597486423927075,-11.284449767894383,2.3028575224820056,2.0465562358202423
1970-01-01 00:00:00.000000003,-1.3553359376259375,-10.500101696733937,1.7481152416132482,2.1079178800840723
1970-01-01 00:00:00.000000003,-3.2228746581763543,-9.756393704977157,0.3581563400207386,2.2028792843938705
1970-01-01 00:00:00.000000003,-6.861667820107424,-7.5530798283989915,-2.4584455518034067,2.3630217267993245
1970-01-01 00:00:00.000000003,-12.894827083391036,-2.2641177902341747,-5.073542367151781,2.385101629748233
1970-01-01 00:00:00.000000003,-19.019133256202227,6.8004126255422666,-7.1486852278277215,1.7869858288686529
1970-01-01 00:00:00.000000003,-26.31773672357991,14.091973819682512,-6.474243644389648,1.2039813085114743
1970-01-01 00:00:00.000000003,-33.707033408232874,16.69476348341234,-2.144010193165968,1.106142897466964
1970-01-01 00:00:00.000000003,-35.70915982356747,17.968250982535466,1.8875791789932246,0.8372380921802413
1970-01-01 00:00:00.000000003,-33.03549943266286,19.951779052676173,3.112414033614017,0.3768020180294188
1970-01-01 00:00:00.000000003,-28.282425167054555,21.008586987064454,0.9264032759280623,0.2389703609559124
1970-01-01 00:00:00.000000003,-23.08208622277292,19.52229105186326,-0.857304129756952,0.441369600578574
1970-01-01 00:00:00.000000003,-16.064093383294946,15.06672235496174,-0.35016383764810655,0.5252102153820751
1970-01-01 00:00:00.000000003,-8.732951489296221,11.030718995122005,-1.0956130237235278,0.4895630967547552
1970-01-01 00:00:00.000000003,-4.2519495722584235,8.682337292127679,-1.8117410240917724,0.48639059479064917
1970-01-01 00:00:00.000000003,-1.4377614081233099,7.060964643554675,-1.4028178755248921,0.43531013282135456
1970-01-01 00:00:00.000000003,0.9487055403002668,6.027043248116282,-1.5010064508122851,0.4540685746530221
1970-01-01 00:00:00.000000003,3.71483797035049,4.271463049035577,-1.5220963029564136,0.5505517952595955
1970-01-01 00:00:00.000000003,6.760767528693082,2.019806494827084,-1.8782463100281528,1.376927735337798
1970-01-01 00:00:00.000000003,9.043193438614207,0.07340231498928107,-1.8804640641101948,1.4551153743860312
1970-01-01 00:00:00.000000003,10.466510189382946,-1.4285508147981822,-1.784890245628571,1.539108860235242
1970-01-01 00:00:00.000000003,11.765509494961783,-2.720919729625083,-1.3882179829460675,1.5427067487123782
1970-01-01 00:00:00.000000003,12.612263509324091,-3.6859749736967724,-0.5966883825332131,1.4828085782126021
1970-01-01 00:00:00.000000003,13.057493798083367,-4.1556404507498925,0.17239576398718115,1.4064172842973686
1970-01-01 00:00:00.000000003,13.435975501790304,-4.226516844242818,0.7911743624946047,1.2987867619554718
1970-01-01 00:00:00.000000003,13.68970891770505,-4.4306644054564615,1.468961961717118,1.2090035386820157
1970-01-01 00:00:00.000000003,13.812303721056654,-4.838858743284291,1.933361963664811,1.1754004540878016
1970-01-01 00:00:00.000000003,13.683516042756551,-5.074102334485202,2.1262303859666964,1.1897563622544411
1970-01-01 00:00:00.000000003,13.553409873648,-5.379944955860685,2.0068177893913957,1.2485089705692247
1970-01-01 00:00:00.000000003,13.28276178297969,-5.831864530134554,1.6603968712199868,1.391061098564943
1970-01-01 00:00:00.000000003,13.297849041639864,-6.179653661976668,1.224641429343856,1.4794126983115063
1970-01-01 00:00:00.000000003,13.13015270313837,-4.8546681124067215,0.31903795189278417,1.3607262985059823
1970-01-01 00:00:00.000000003,11.822130026003567,-2.4761254391653695,-0.5653567943995222,1.198985607020742
1970-01-01 00:00:00.000000003,9.849705459367941,-0.057092833466812376,-1.1400454890886502,0.9740393144771136
1970-01-01 00:00:00.000000003,6.343220870574803,2.959828596470773,-1.190661750084247,0.6438138566025693
1970-01-01 00:00:00.000000003,0.48355203269933034,5.963464412631037,-0.5168222887323255,0.16846260007728953
1970-01-01 00:00:00.000000003,-10.768798408153014,12.663289275298746,4.096038685042302,-0.467216611953438
1970-01-01 00:00:00.000000003,-19.773033419513933,24.57537004580815,7.1148908102471875,-1.5097587856154262
1970-01-01 00:00:00.000000003,-23.782568225992858,30.21643619533105,4.600747425442281,-1.68300805402098
1970-01-01 00:00:00.000000003,-28.004995679800672,29.08447130406457,4.421353752629611,-1.0968662851843034
1970-01-01 00:00:00.000000003,-30.03442594267852,27.31144788452466,5.27296276566989,-0.666694464011274
1970-01-01 00:00:00.000000003,-29.861436197972267,22.737148807346593,6.361168149701556,0.027171297955966178
1970-01-01 00:00:00.000000004,-26.27745478527925,15.988183664759646,6.375191027198516,0.8154615715795557
1970-01-01 00:00:00.000000004,-20.986193902404487,8.942502208379784,5.517681651874619,1.507511513740114
1970-01-01 00:00:00.000000004,-16.130227643765345,2.6816574185963318,4.574495030518065,2.1281590683369624
1970-01-01 00:00:00.000000004,-11.619036283643453,-1.142709035180002,3.638727043211962,2.3663545142883793
1970-01-01 00:00:00.000000004,-8.762239550562951,-2.8696936795011956,2.5862428251600456,2.4470488182361962
1970-01-01 00:00:00.000000004,-7.544441344998199,-4.222024179197672,2.306825368263981,2.5894880220753906
1970-01-01 00:00:00.000000004,-6.277581413169852,-5.606124283264579,2.216876993539152,2.7564909652027545
1970-01-01 00:00:00.000000004,-4.233380303448805,-7.103380669056572,1.838804257182173,2.8942471501198344
1970-01-01 00:00:00.000000004,-1.8752959310143162,-8.874433726576482,1.4915580050655983,2.9674304545504846
1970-01-01 00:00:00.000000004,-0.39843447145136635,-10.395365217665049,1.044226610432113,3.105868165418282
1970-01-01 00:00:00.000000004,0.7952647556015944,-10.96479988713228,1.5381877398485402,2.9951655868223126
1970-01-01 00:00:00.000000004,1.2885331519857441,-11.807467985481752,2.833606114903338,2.878894740040777
1970-01-01 00:00:00.000000004,1.4682341669920018,-12.809263436606926,4.49674964681007,2.781092990378734
1970-01-01 00:00:00.000000004,1.7023529703910443,-13.535428835218658,5.585850316655181,2.736360279703566
1970-01-01 00:00:00.000000004,2.2279948891679062,-14.247523961869405,5.971000055307533,2.768954025876888
1970-01-01 00:00:00.000000004,3.0988974482693394,-15.315050107254399,5.96381920464915,2.876594758804971
1970-01-01 00:00:00.000000004,4.255152439839346,-16.85917250115445,5.7017749030646225,3.06728920653429
1970-01-01 00:00:00.000000004,5.728948141892827,-18.73702441270386,4.879686189307626,3.354325140664507
1970-01-01 00:00:00.000000004,7.492506758793617,-20.877806081058097,3.7124327690336267,3.680698464031301
1970-01-01 00:00:00.000000004,9.197528804162268,-23.023170598715613,2.5465677517494827,3.9836308771621276
1970-01-01 00:00:00.000000004,10.498649641160391,-24.312815727000967,1.9798808854656795,4.080847888440511
1970-01-01 00:00:00.000000004,10.804322011574556,-24.661584181273852,2.4214860048603835,3.9790602716004315
1970-01-01 00:00:00.000000004,10.06857307018694,-24.147948167037757,3.552250246122192,3.7743167569595424
1970-01-01 00:00:00.000000004,8.847776344344464,-22.710818955033023,4.111468014153252,3.568217851852716
1970-01-01 00:00:00.000000004,7.398546225313213,-20.279904853681074,3.7216449011878305,3.350352320067274
1970-01-01 00:00:00.000000004,5.3484317640797086,-17.518700928960364,2.700855483313795,3.2377342671911915
1970-01-01 00:00:00.000000004,3.1024550100930592,-14.849579501369046,1.576893875163509,3.212441932805695
1970-01-01 00:00:00.000000004,1.3783089898212697,-12.489864089492755,0.5553606646118743,3.196807748905605
1970-01-01 00:00:00.000000004,0.3867959133937353,-11.064418291071732,-0.2698233067787499,3.1822282233413217
1970-01-01 00:00:00.000000004,-0.6621608747273577,-11.207262383401648,-0.7984225615952925,3.2840499791849362
1970-01-01 00:00:00.000000004,-2.611063498648503,-12.524554052569222,-1.0304738480897822,3.512761534687674
1970-01-01 00:00:00.000000004,-6.08071076687533,-12.249398446023358,-0.818072746884807,3.5353383591578664
1970-01-01 00:00:00.000000004,-11.446024566662615,-6.551096682367467,0.10061698989508572,2.8680097821016868
1970-01-01 00:00:00.000000004,-18.74976880290724,4.6342252843970995,0.04916873634778779,1.6838913317150155
1970-01-01 00:00:00.000000004,-28.958519403325706,14.750294706090871,-1.1979457635032298,1.1906998310370143
1970-01-01 00:00:00.000000004,-38.858983901493595,20.394067321114818,-1.1233688098766326,1.5038679591743953
1970-01-01 00:00:00.000000004,-42.04705145395463,25.172806685213214,-0.5997283819617752,1.4655470997072626
1970-01-01 00:00:00.000000004,-38.38502091442767,28.242416199469833,-0.8485944832634351,1.0551350645813486
1970-01-01 00:00:00.000000004,-31.781363884783186,26.01324360032411,-0.4215097662992595,0.9324408556724313
1970-01-01 00:00:00.000000004,-23.920210735609068,20.89980852893508,0.7524783128377488,0.9239438700601719
1970-01-01 00:00:00.000000004,-16.217543120478847,15.24100223036334,1.6978397623580872,0.9919874972238296
1970-01-01 00:00:00.000000004,-9.262665257103892,10.087764270489355,1.8197078504446258,1.1087594464289277
1970-01-01 00:00:00.000000004,-3.6987593876899125,6.368756988985876,1.1743961157833405,1.203169784325401
1970-01-01 00:00:00.000000004,0.057638140079421696,4.259054969227277,0.029367812803651305,1.2857335792865352
1970-01-01 00:00:00.000000004,2.2706722637985273,3.4258742368896273,-1.0813181133456924,1.3303122249819372
1970-01-01 00:00:00.000000004,3.4607768234564245,3.1639020455648588,-1.5506042543651923,1.3255774258296857
1970-01-01 00:00:00.000000004,4.273461320518034,3.1057238818184127,-1.9287538660575694,1.335049472708322
1970-01-01 00:00:00.000000004,5.154967791684266,3.071138193136937,-2.3952546995842625,1.369782078731774
1970-01-01 00:00:00.000000004,6.434065624577203,2.794446191405474,-2.7636841641910532,1.3970338234077815
1970-01-01 00:00:00.000000004,8.092041628814728,1.9282939377824082,-2.9248327706027553,1.4180444280815019
1970-01-01 00:00:00.000000004,9.661171055514151,0.5278783610341855,-2.4484124097690705,1.4170822789387607
1970-01-01 00:00:00.000000004,10.943586416560885,-0.9171727003495963,-1.4238968036524473,1.3701109046063347
1970-01-01 00:00:00.000000004,11.96835610536397,-1.8435111387020675,-0.548771157075609,1.2924705890353156
1970-01-01 00:00:00.000000004,12.758231326272828,-2.43128196122108,0.03342164599618469,1.2214693945640844
1970-01-01 00:00:00.000000004,13.30081410971628,-2.6279119971655476,0.6243454160737686,1.1289211931277117
1970-01-01 00:00:00.000000004,13.81993050248192,-2.786267859931557,1.3099786903127377,1.0140052340327836
1970-01-01 00:00:00.000000004,14.200618409708861,-2.931375275485844,1.665024167870694,0.9376933830898766
1970-01-01 00:00:00.000000004,14.241749229574255,-3.234410032300424,1.77212838808203,0.9486989671117743
1970-01-01 00:00:00.000000004,14.103914402841422,-3.816740799217301,1.7633971077526178,1.0266618381679624
1970-01-01 00:00:00.000000004,13.788816103326267,-4.4391980174014325,1.467987050403359,1.168092504419751
1970-01-01 00:00:00.000000004,13.425759822410688,-4.766542122259058,0.8973168015003312,1.3054276413591879
1970-01-01 00:00:00.000000004,12.93844441478384,-4.215950784696417,-0.19894491099790745,1.3884706230064987
1970-01-01 00:00:00.000000004,12.085531359709488,-3.089583567461673,-1.2942839013612684,1.4263529887305002
1970-01-01 00:00:00.000000004,11.009667928187083,-1.9436760102652602,-1.7375908992532119,1.4007179110518453
1970-01-01 00:00:00.000000004,9.883186067094874,-0.9688897202655021,-1.6998913890405771,1.3323379109360052
1970-01-01 00:00:00.000000004,8.643884436342505,-0.051168992232140886,-1.7442991601713764,1.2561114407232172
1970-01-01 00:00:00.000000004,6.829844691359984,1.1112707314317674,-1.8722421341527116,1.1251431018565325
1970-01-01 00:00:00.000000004,3.367274710778285,2.8640896856491507,-1.7476275171925888,0.9498915659939682
1970-01-01 00:00:00.000000004,-2.3797091492374154,5.24192636744568,-0.7909252436974415,0.813233078162261
1970-01-01 00:00:00.000000004,-9.045290417029586,9.107680673744273,1.8324043757210529,0.46568829457817196
1970-01-01 00:00:00.000000004,-14.348299129960001,16.08554330338194,3.685934867897923,-0.30102933298827383
1970-01-01 00:00:00.000000004,-18.688030442390687,23.457038353416593,3.44288689337172,-1.0699021375819704
1970-01-01 00:00:00.000000004,-24.628164172229745,25.340509388775338,4.108028403047419,-0.9446140981884699
1970-01-01 00:00:00.000000004,-29.103598664777316,25.78733235105929,6.524497196448923,-0.8283641723382935
1970-01-01 00:00:00.000000004,-30.629387406005165,25.326929268937533,8.462861080186189,-0.7060562422056362
1970-01-01 00:00:00.000000004,-29.196443339044517,20.64169234847593,9.074686406798383,-0.07752279536527706
1970-01-01 00:00:00.000000004,-25.110505670426377,14.242428329444344,8.547336092902174,0.6623020905035177
1970-01-01 00:00:00.000000004,-19.87976874364346,8.657779342572278,6.9572948976120434,1.2692831686394201
1970-01-01 00:00:00.000000004,-14.915606298679496,4.089964388214641,5.121976610830373,1.7363910645960647
1970-01-01 00:00:00.000000004,-10.958385526314387,1.1137287748282922,3.4285432304132013,2.0114423446872975
1970-01-01 00:00:00.000000004,-8.402144973524404,-0.7493520639539014,2.7186260142229512,2.148184779485719
1970-01-01 00:00:00.000000004,-6.489070380022881,-2.4093275714399,2.91126608375017,2.2321507651987154
1970-01-01 00:00:00.000000004,-4.429373279385908,-4.366657690534649,3.0713929214204643,2.3614176888962852
1970-01-01 00:00:00.000000004,-2.0181649849249457,-6.552177848356,2.704595019241877,2.520076193268455
1970-01-01 00:00:00.000000004,-0.018453135469674198,-8.76538653461165,1.9794302785758582,2.7630943434455553
1970-01-01 00:00:00.000000004,1.7147671836940575,-10.544072790929517,1.3092082975353136,2.958354008618459
1970-01-01 00:00:00.000000004,3.164426787684218,-11.804015050244612,0.9897575251186352,3.038724793121837
1970-01-01 00:00:00.000000004,4.059330589761839,-12.770993146321661,1.3075853000214956,3.036252958652411
1970-01-01 00:00:00.000000004,4.476233485805259,-13.735229967200327,2.0926155087020963,3.0233721573611483
1970-01-01 00:00:00.000000004,4.725460869309698,-14.907793855055656,2.8654555479668344,3.072914536758394
1970-01-01 00:00:00.000000004,5.16861391602518,-15.88512911980569,3.164759285899314,3.1410924682399886
1970-01-01 00:00:00.000000004,5.702201509214194,-16.573576974224636,3.000160576787877,3.209394644822542
1970-01-01 00:00:00.000000004,6.058705123762847,-17.139480281419555,2.801545190213008,3.2802289784360887
1970-01-01 00:00:00.000000004,6.276075465286357,-17.749521096630055,2.834429086436666,3.355354434052912
1970-01-01 00:00:00.000000004,6.6250226601839,-18.727611400037507,2.848018071131798,3.4900158021754253
1970-01-01 00:00:00.000000004,7.370146413051514,-20.165341984730745,2.79270355377423,3.661414077963613
1970-01-01 00:00:00.000000004,8.3976861372526,-21.836561035666897,2.7050390327981924,3.8239225884959653
1970-01-01 00:00:00.000000004,9.331628777025534,-23.385525418684022,2.7796308913688335,3.92647350464734
1970-01-01 00:00:00.000000004,9.798521989193366,-24.20129628619758,3.2163240167652005,3.8678881532146585
1970-01-01 00:00:00.000000004,9.108755258583834,-23.68910256803003,3.921489301912561,3.6725755063974885
1970-01-01 00:00:00.000000005,7.262674826815127,-21.80197470862055,4.266385476866926,3.449845995138321
1970-01-01 00:00:00.000000005,4.744741372708825,-19.2021194734264,4.033013664792633,3.291058587264007
1970-01-01 00:00:00.000000005,2.097190890042775,-16.60195796931079,3.178276577115794,3.267726099199331
1970-01-01 00:00:00.000000005,0.019352739803298658,-14.028763766251812,1.80243584904731,3.2652251564593073
1970-01-01 00:00:00.000000005,-1.8296122947084146,-12.721301806838522,0.19085325981130263,3.402412171479324
1970-01-01 00:00:00.000000005,-4.117572254242159,-12.927788597463682,-1.1308014132174167,3.6741970280349587
1970-01-01 00:00:00.000000005,-7.644258506060654,-12.586705668490957,-1.7302067604912477,3.8488893752822815
1970-01-01 00:00:00.000000005,-12.389379948450808,-8.283197272928305,-1.7047139411828411,3.4315804170782673
1970-01-01 00:00:00.000000005,-19.290518500678363,0.2561509967371651,-0.9812979541351494,2.4252507167689954
1970-01-01 00:00:00.000000005,-29.788220121462604,8.535449280212804,-0.7041557250849069,1.9420611646937243
1970-01-01 00:00:00.000000005,-40.71204688198255,14.925533321876568,0.44364712971076214,2.040651616457509
1970-01-01 00:00:00.000000005,-45.344184578325084,26.371379891929738,2.3500577087507755,1.3786590947622075
1970-01-01 00:00:00.000000005,-37.97488621087268,28.785246041664013,3.566433287997988,0.6723633571878069
1970-01-01 00:00:00.000000005,-26.934144103303908,22.32922572786421,3.692603562059869,1.0798111778015071
1970-01-01 00:00:00.000000005,-11.059678925753175,12.535407673032218,-0.18457805001919525,1.4697946394428945
1970-01-01 00:00:00.000000005,-0.9757767576326741,5.636886911174307,-4.666105445409683,1.7954466879529958
1970-01-01 00:00:00.000000005,1.3710127091880526,4.027251559003126,-4.183556345713202,1.6796756992448925
1970-01-01 00:00:00.000000005,2.035986088700914,4.767022862823286,-1.8717982079333906,1.2796120062003133
1970-01-01 00:00:00.000000005,3.4101555555115683,5.133894603479613,-0.6534664022342473,1.0020744680455547
1970-01-01 00:00:00.000000005,5.1707398178828194,4.548653555412159,-0.571272528105221,1.032617888943597
1970-01-01 00:00:00.000000005,8.205307186392103,2.6941069421442814,-1.2565363071116011,1.1986612165548247
1970-01-01 00:00:00.000000005,11.760842145177078,-0.3778388955413655,-1.0502805419331123,1.1918593136397453
1970-01-01 00:00:00.000000005,13.059560684878061,-1.4692111317934342,0.7005076648847623,0.9637833753133529
1970-01-01 00:00:00.000000005,13.505939452943355,-1.6461890651970985,1.8586600915053544,0.7806615511320363
1970-01-01 00:00:00.000000005,13.678590228179582,-1.7448515046724444,2.716356929615859,0.6528177627352967
1970-01-01 00:00:00.000000005,13.652157449150979,-1.7432533386715354,2.954525230409897,0.622663398635819
1970-01-01 00:00:00.000000005,13.62124107857834,-1.8138928841877453,2.314920046722579,0.7238868893309611
1970-01-01 00:00:00.000000005,13.64395515552247,-2.0542579582709433,1.2259126072268756,0.905576323055012
1970-01-01 00:00:00.000000005,13.722287069821636,-2.3380354535252397,0.09775688400550264,1.0954075023846848
1970-01-01 00:00:00.000000005,13.844397188587187,-2.5358917973407724,-1.0496692495086508,1.2629308645287218
1970-01-01 00:00:00.000000005,13.853445431410796,-2.546127404375481,-2.103910950439027,1.3943386438188623
1970-01-01 00:00:00.000000005,13.690022158682448,-2.2114830924617634,-2.757861384009352,1.4379746805441251
1970-01-01 00:00:00.000000005,13.363660727982705,-1.5063965700668458,-3.200826895788256,1.394194386525644
1970-01-01 00:00:00.000000005,12.590424168966257,-0.44245892249551455,-3.3956994254259025,1.2797362661239209
1970-01-01 00:00:00.000000005,11.102116809791191,0.9678728817042518,-3.325190371694593,1.1222491514645703
1970-01-01 00:00:00.000000005,8.81025143191129,2.641797373192005,-2.8176699656466635,0.8934586017286814
1970-01-01 00:00:00.000000005,5.241597239664147,4.6875353950276715,-1.925019500217365,0.6337094293860521
1970-01-01 00:00:00.000000005,0.1496384569372522,6.858241861072077,-0.9712729717055364,0.458976693839106
1970-01-01 00:00:00.000000005,-6.309774488206967,9.040656466190509,0.5063108764406097,0.37002005017042405
1970-01-01 00:00:00.000000005,-12.903823143542915,13.725091544043766,3.877275453574277,-0.17712938763749686
1970-01-01 00:00:00.000000005,-17.837388981104915,22.96749162339788,5.860802770471517,-1.416139982348615
1970-01-01 00:00:00.000000005,-24.148714507178106,28.170571859538057,5.887788920995482,-1.7295634303090155
1970-01-01 00:00:00.000000005,-30.89586968698458,26.066062269668517,8.287611781946968,-1.0482618168273075
1970-01-01 00:00:00.000000005,-33.16630510612953,25.440710070566205,9.205329840627126,-0.6902078413455659
1970-01-01 00:00:00.000000005,-32.26914193274886,21.453983223922226,8.877167503288467,0.08922082242821805
1970-01-01 00:00:00.000000005,-27.575092499810903,13.38632521445866,9.04768098728648,0.9743554196605712
1970-01-01 00:00:00.000000005,-20.989427570060187,4.498652432995795,8.432074019980131,1.7959275085690816
1970-01-01 00:00:00.000000005,-14.81876709374805,-2.742761215227615,6.798265860521663,2.501332753677014
1970-01-01 00:00:00.000000005,-9.827485367090043,-6.733251651031256,4.691057807214967,2.8657075674484034
1970-01-01 00:00:00.000000005,-6.78233652516472,-7.738344117239991,2.4269841796587066,2.9951579464340377
1970-01-01 00:00:00.000000005,-5.387760716469459,-7.28648451524454,1.2530700427735104,2.974809119101959
1970-01-01 00:00:00.000000005,-4.367067474382637,-7.0284184749863545,1.6242262946025634,2.848704722323501
1970-01-01 00:00:00.000000005,-2.971138248816531,-7.502168010559215,2.329686210323723,2.7245618160883462
1970-01-01 00:00:00.000000005,-1.6051686587383323,-8.31201328645323,2.495405907797231,2.7382659693489244
1970-01-01 00:00:00.000000005,0.12138946573345422,-9.226119633838298,2.7423443900407625,2.7103875797999413
1970-01-01 00:00:00.000000005,1.7611192260714374,-10.773320505609131,2.8177889448754154,2.7677921404493695
1970-01-01 00:00:00.000000005,2.877587434899342,-13.213067563640113,2.778423575563746,3.0161637999292408
1970-01-01 00:00:00.000000005,3.838636602330317,-16.118525957362156,3.060625350657625,3.335305346580099
1970-01-01 00:00:00.000000005,5.286579251965404,-18.331738572388858,3.263855604941474,3.498172404110595
1970-01-01 00:00:00.000000005,6.53644615948028,-19.25331839024704,3.1485730896525768,3.506143804924518
1970-01-01 00:00:00.000000005,6.997070628255531,-19.713977268709304,3.0414985112503534,3.517288158051118
1970-01-01 00:00:00.000000005,6.949841688265652,-19.766502228672593,2.979452350338249,3.5238992323148635
1970-01-01 00:00:00.000000005,6.747929243115795,-19.187112161685707,2.948185691648643,3.4781589918443205
1970-01-01 00:00:00.000000005,6.747974880804077,-18.550283568840477,2.856803892175805,3.427333249110318
1970-01-01 00:00:00.000000005,7.0561563354057615,-18.588308160652137,2.767755433454016,3.447771904118095
1970-01-01 00:00:00.000000005,7.471427930182082,-19.0297312794214,2.676898300428878,4.022510785053016
1970-01-01 00:00:00.000000005,7.702465862014533,-19.305950505616263,2.9169845562346772,3.9972278400785854
1970-01-01 00:00:00.000000005,7.460353002348294,-19.168178923082735,3.3944381670432557,3.894117015860238
1970-01-01 00:00:00.000000005,6.675488363017177,-18.289507450725257,3.6782189208259894,3.7680272246965396
1970-01-01 00:00:00.000000005,5.571799212311553,-17.00914701589979,3.8068479258583823,3.660715951201754
1970-01-01 00:00:00.000000005,4.611432380879673,-15.621484562637146,3.442652493281628,3.5860035433382795
1970-01-01 00:00:00.000000005,3.652164902396294,-14.071262676771513,2.594442891276849,3.5397758871187524
1970-01-01 00:00:00.000000005,2.461374358357279,-12.68509748927414,1.7248157921126668,3.534178299443226
1970-01-01 00:00:00.000000005,1.054487956274106,-11.702481790107338,1.199471239288329,3.535648611027235
1970-01-01 00:00:00.000000005,-0.82082909832721,-11.332428749790655,0.6103897625051187,3.556538961780891
1970-01-01 00:00:00.000000005,-4.758141876244402,-11.452945152498994,0.1012016500914733,3.7397753284543294
1970-01-01 00:00:00.000000005,-11.095572877582793,-10.334663576920892,0.6844815807252227,3.9085443669029445
1970-01-01 00:00:00.000000005,-17.500251354821867,-3.4746124666015574,1.2381599872528013,3.328004205344423
1970-01-01 00:00:00.000000005,-23.995179301546813,9.50697914245334,-1.5173097611249178,2.113144010826895
1970-01-01 00:00:00.000000005,-35.0450375373194,19.37111173110842,-2.747461119358652,1.8636691749045649
1970-01-01 00:00:00.000000005,-43.14199777311008,25.276955881866378,-0.15022217716635855,1.898564665644595
1970-01-01 00:00:00.000000005,-41.367272336936615,30.585373026350087,1.1701382829329134,1.3049754142211483
1970-01-01 00:00:00.000000005,-33.84867716956768,28.99191406887784,0.45775405564683336,1.228292427273839
1970-01-01 00:00:00.000000005,-24.53521835051574,21.974683342350513,-0.032402271469416544,1.5660193008271395
1970-01-01 00:00:00.000000005,-15.78422623163015,14.927919689103827,-0.22923187080350182,1.8363348792322074
1970-01-01 00:00:00.000000005,-8.850586692566331,9.174631947654213,0.18862544397643843,2.039228792299918
1970-01-01 00:00:00.000000005,-2.760657389583845,6.647089838754066,-3.0679342006384944,2.261512123715532
1970-01-01 00:00:00.000000005,1.180242844520601,5.154232249915743,-5.415410310005473,2.3077597688855205
1970-01-01 00:00:00.000000005,2.056223019610365,4.71258167116272,-4.452743407317574,2.1721250680410513
1970-01-01 00:00:00.000000005,2.800839782095056,5.297668186379079,-3.846466372667631,1.9805350527801289
1970-01-01 00:00:00.000000005,3.811728697576873,5.437750234075873,-3.288557781705368,1.8443348996812596
1970-01-01 00:00:00.000000005,5.214876235197741,4.8245164383670485,-2.8916654286803807,1.7981582129667693
1970-01-01 00:00:00.000000005,6.908465390707447,4.026191434316889,-3.0844109601829466,1.8366573525593897
1970-01-01 00:00:00.000000005,8.89229883594219,2.8221082394631747,-3.4479745449845125,1.9097689270674052
1970-01-01 00:00:00.000000006,10.797901006359467,0.755742796752141,-3.1758899888357495,1.9908381134793292
1970-01-01 00:00:00.000000006,12.221473687348919,-1.4035976789748421,-2.2876001054005255,2.0350378547107875
1970-01-01 00:00:00.000000006,13.180655809422843,-3.0193019600699476,-1.2057346879756312,2.0174848023706584
1970-01-01 00:00:00.000000006,13.764992880652198,-4.03107650818152,-0.1807577352095936,1.952253213684763
1970-01-01 00:00:00.000000006,14.011445104786208,-4.3642161545073135,0.7808234436403535,1.8276222430974447
1970-01-01 00:00:00.000000006,13.921817369577058,-4.195246145831166,1.6205042311839608,1.679783537286799
1970-01-01 00:00:00.000000006,13.536296602514348,-3.975964670360476,1.9042559108998245,1.6367210458751678
1970-01-01 00:00:00.000000006,13.152657605405702,-3.6655135541633523,1.5346917628494419,1.6806937707368728
1970-01-01 00:00:00.000000006,12.924950816469787,-3.3797853862456617,0.645537591839113,1.7838493394803994
1970-01-01 00:00:00.000000006,12.79350077473956,-3.3490931882835757,-0.11557809700770016,1.9015597510753914
1970-01-01 00:00:00.000000006,12.8347924565852,-3.33769508971826,-0.5581106033541663,1.945022216903769
1970-01-01 00:00:00.000000006,12.675185998680023,-3.1157095611190253,-0.8004435205641748,1.9457274479726605
1970-01-01 00:00:00.000000006,12.338332640489927,-2.67330768556036,-0.6907090769432562,1.881496922949343
1970-01-01 00:00:00.000000006,11.809569035060324,-2.299105154799689,-0.33420876269252786,1.7979049355265886
1970-01-01 00:00:00.000000006,11.01616225784379,-1.3394682943783462,-0.26986431610182615,1.6537222055770997
1970-01-01 00:00:00.000000006,9.372718227412827,0.5607074789086879,-0.5248814997322154,1.4585635570352422
1970-01-01 00:00:00.000000006,6.525527078199683,3.0573509270330472,-0.5731554745472263,1.2349972061511694
1970-01-01 00:00:00.000000006,2.452518823579833,5.958407751009209,-0.9796761130176588,1.0357238787275351
1970-01-01 00:00:00.000000006,-3.6781214898032104,8.949457010148203,-1.7483009169978452,1.0380688490805876
1970-01-01 00:00:00.000000006,-11.131232007817637,13.414225439030831,0.26284527011491865,0.6581516321428396
1970-01-01 00:00:00.000000006,-18.481861975683255,20.4769513308543,5.337444697269456,-0.34693062439946987
1970-01-01 00:00:00.000000006,-23.844940467589876,27.87040709876794,8.505108160892902,-1.4396092165399401
1970-01-01 00:00:00.000000006,-30.097489033519697,28.39949999937903,10.675935310337103,-1.2183358890264073
1970-01-01 00:00:00.000000006,-33.45918447582263,27.28081030670223,11.10986264044356,-0.662019695284378
1970-01-01 00:00:00.000000006,-33.38612243601439,24.569082770122247,9.677060470180532,0.15923127454417774
1970-01-01 00:00:00.000000006,-29.510231874662473,17.373307945849902,8.95965351368208,1.1788702368836699
1970-01-01 00:00:00.000000006,-22.586523824569174,8.055397498718147,7.7787501301277695,2.1441535218628096
1970-01-01 00:00:00.000000006,-15.589165124882676,-0.1063906272309135,5.8377848529966965,2.913182376297079
1970-01-01 00:00:00.000000006,-10.507206627896235,-5.033745876974908,3.9856394577610823,3.3346918647922403
1970-01-01 00:00:00.000000006,-7.757144455971652,-6.442730358199713,2.6364981994444703,3.4142383356410977
1970-01-01 00:00:00.000000006,-6.7147220928461735,-6.099910848214091,2.2698748734428653,3.3485288133762894
1970-01-01 00:00:00.000000006,-5.716455276794219,-5.895472176985766,2.5095137501077796,3.284152661769612
1970-01-01 00:00:00.000000006,-3.8231500934903306,-6.7763241910861804,2.538510118782348,3.3038294633742744
1970-01-01 00:00:00.000000006,-1.4682042549436174,-8.496429438469308,2.0991110008871985,3.4168170628633305
1970-01-01 00:00:00.000000006,0.5854803298171457,-10.174510229331425,1.340247323425957,3.5817143218454794
1970-01-01 00:00:00.000000006,2.3015327288507788,-11.544361929715363,1.2585515553776385,3.6391771203843373
1970-01-01 00:00:00.000000006,3.5965550553768995,-13.154357869019396,1.5095486757339989,3.7236946021514896
1970-01-01 00:00:00.000000006,4.656934914966847,-15.284000520925963,1.8385627023225168,3.9185998202441583
1970-01-01 00:00:00.000000006,6.097358955066356,-17.453339330303198,2.19196115265186,4.067540079774837
1970-01-01 00:00:00.000000006,7.548379605629435,-18.93254483308313,2.3680049834557657,4.107321567510186
1970-01-01 00:00:00.000000006,8.387880520754258,-19.879361344592407,2.5901832190023155,4.104874731005015
1970-01-01 00:00:00.000000006,8.588305253555745,-19.917668973488215,2.7094844270306377,4.045561336704907
1970-01-01 00:00:00.000000006,8.27060448983248,-19.242403017541456,2.721194232873638,3.9593019517320274
1970-01-01 00:00:00.000000006,7.727757010722197,-18.519526082803964,2.870446277884283,3.8920004470428617
1970-01-01 00:00:00.000000006,7.4067051269833195,-17.999650098296055,3.0660063898710797,3.8385839079503907
1970-01-01 00:00:00.000000006,7.397896594405335,-17.816974140419983,3.065778679404524,3.8325401680431246
1970-01-01 00:00:00.000000006,7.652272204174954,-17.996775641592713,2.771894005501428,3.8805993503202685
1970-01-01 00:00:00.000000006,7.954355069638037,-18.314206281995702,2.3071213697209645,3.9041268608470876
1970-01-01 00:00:00.000000006,7.394511547392552,-17.900115499034023,2.357061450221674,3.796227035464255
1970-01-01 00:00:00.000000006,5.596589656753989,-16.505291743782077,3.1921582344054906,3.63134621448461
1970-01-01 00:00:00.000000006,4.010932380561486,-15.418724780695207,3.405247681113477,3.5028802276627533
1970-01-01 00:00:00.000000006,1.5488507311742088,-13.467370572061212,2.832435918586019,3.4580493649934647
1970-01-01 00:00:00.000000006,-1.3575514510455817,-12.178375675859469,1.092427109807075,3.690080285914795
1970-01-01 00:00:00.000000006,-4.5381663235931216,-12.506781093090893,-0.7449123707411052,3.9448326074158055
1970-01-01 00:00:00.000000006,-11.270917557756034,-8.938782886116224,-1.6391301683380874,3.8150537354465572
1970-01-01 00:00:00.000000006,-20.948627999549377,3.8906843883280744,-1.6555609540121585,2.721382139672263
1970-01-01 00:00:00.000000006,-31.46682566471637,11.249770286212456,-0.048506674751872675,2.353495620598633
1970-01-01 00:00:00.000000006,-39.70319482433139,16.4033071634568,2.3960745597601143,2.3019161101952337
1970-01-01 00:00:00.000000006,-41.36451707056042,23.76307182709906,2.1160684882528833,1.8505107243064411
1970-01-01 00:00:00.000000006,-37.413916793165114,26.89423785983097,1.1823803146806375,1.535201807347626
1970-01-01 00:00:00.000000006,-29.907250332986255,22.748762596829906,1.1756122166169787,1.646072952227756
1970-01-01 00:00:00.000000006,-21.470745487658338,16.378370407093044,1.1151676864940039,1.8935087249736977
1970-01-01 00:00:00.000000006,-13.745163512330201,11.07287218186529,0.789549105904033,2.013019078900811
1970-01-01 00:00:00.000000006,-7.891097701686288,7.565182169916793,-0.07133816043845165,2.112732741650749
1970-01-01 00:00:00.000000006,-3.4553267477987086,6.114943083266444,-1.787782760364098,2.1373842927035347
1970-01-01 00:00:00.000000006,-0.5410782944938058,5.291968961183445,-2.195108486485781,2.029053713906842
1970-01-01 00:00:00.000000006,1.186638713089783,4.82703483625412,-1.6713304071842776,1.8846046200045983
1970-01-01 00:00:00.000000006,2.589136870813351,4.562901137859355,-1.6558829873079088,1.8089232160547288
1970-01-01 00:00:00.000000006,3.829235081174023,4.7004056444515,-1.7084004916259772,1.714154641631967
1970-01-01 00:00:00.000000006,5.447844610673026,4.830960227563343,-2.4880213213611615,1.707935554308974
1970-01-01 00:00:00.000000006,7.307633976452416,4.33390807315687,-3.369787611727076,1.7502673791765164
1970-01-01 00:00:00.000000006,8.945533505677265,3.346217024408378,-3.084584918533217,1.7127174412615407
1970-01-01 00:00:00.000000006,10.252592642918648,2.3820193183381653,-2.0459374562004315,1.61294574842242
1970-01-01 00:00:00.000000006,11.521426002056694,1.390305649026614,-0.9837253205741465,1.5105933255159856
1970-01-01 00:00:00.000000006,12.697089292117486,0.6402618789947767,-0.2806175256868484,1.4088771951916828
1970-01-01 00:00:00.000000006,13.412894725993311,0.02613888729246372,-0.21357406951131674,1.4102392291870598
1970-01-01 00:00:00.000000006,13.784839299936511,-0.3714955062425158,-0.6728659352634192,1.482372889782838
1970-01-01 00:00:00.000000006,13.883138959705182,-0.5754473461990433,-1.4727359729595757,1.596673485658935
1970-01-01 00:00:00.000000006,13.753455937744738,-0.8122056638491434,-2.237628157362978,1.7329628813583917
1970-01-01 00:00:00.000000006,13.507190000906261,-0.9541415593962908,-2.793260257509119,1.845062810417578
1970-01-01 00:00:00.000000006,13.271907989705516,-0.8776816291495763,-3.1084639846820474,1.9074422916852605
1970-01-01 00:00:00.000000006,13.225195498738223,-0.9598195001935443,-3.1018244014576264,1.9410964736011624
1970-01-01 00:00:00.000000006,13.478361988092157,-1.3589867099612174,-2.9623366885588585,1.9323951427291401
1970-01-01 00:00:00.000000006,13.326830038731254,-1.5629915634901792,-2.7114360843626564,1.9051769664226472
1970-01-01 00:00:00.000000006,12.733039814974386,-1.5124135690228089,-2.1670656539816906,1.8385293670017424
1970-01-01 00:00:00.000000006,11.760769862976542,-0.766754024261734,-2.0439157972792863,1.7423111995560543
1970-01-01 00:00:00.000000006,10.158390150245763,0.7141175081852345,-2.1145982783301194,1.6097100963088908
1970-01-01 00:00:00.000000006,7.87208177895129,2.966339529240665,-2.1318249336562465,1.3900486658298117
1970-01-01 00:00:00.000000006,4.546109345992561,5.592881603021548,-1.9788431086798326,1.1392101838727728
1970-01-01 00:00:00.000000006,-0.2739047304216158,7.943120278132168,-1.6452824749091015,1.0220573055931892
1970-01-01 00:00:00.000000006,-6.25837617803768,9.256141643289096,-0.5590079771238006,1.0928872849539244
1970-01-01 00:00:00.000000006,-12.054369402999914,11.717711156145675,3.0470741580380025,0.732680934702866
1970-01-01 00:00:00.000000006,-16.60044635929633,19.06649694493131,6.27444761643739,-0.3642901946210726
1970-01-01 00:00:00.000000006,-20.98067569491446,26.793862515027634,7.079167643799301,-1.3505855503751936
1970-01-01 00:00:00.000000006,-27.842560175657677,25.04079570814674,8.786083513475212,-0.6767404371092174
1970-01-01 00:00:00.000000006,-30.941369108096428,22.441652409325513,10.029118024421983,-0.03560096611396846
1970-01-01 00:00:00.000000007,-30.45070561562678,20.675795467436643,8.792079269712222,0.5092649568948611
1970-01-01 00:00:00.000000007,-27.661665276691785,15.997043557749109,7.799240604093322,1.22974762962831
1970-01-01 00:00:00.000000007,-22.833113710183344,9.504898125585166,6.797934574603065,1.9562130579332906
1970-01-01 00:00:00.000000007,-17.476517997344978,3.799117423308163,5.15890450044728,2.503691005896565
1970-01-01 00:00:00.000000007,-13.498018566825348,-0.3953589016516937,3.775855732086532,2.9285873769552015
1970-01-01 00:00:00.000000007,-10.405927803585685,-2.7496576827573294,3.263350351035624,3.0440927381086413
1970-01-01 00:00:00.000000007,-8.355256376310418,-3.8530763491020643,3.576925929569348,3.006013216740247
1970-01-01 00:00:00.000000007,-6.479057879580482,-5.430086702831961,4.666966787503207,2.9733556351126476
1970-01-01 00:00:00.000000007,-4.232016441396344,-7.752848217206136,5.437593743172092,3.0327798225242932
1970-01-01 00:00:00.000000007,-1.9906873584078166,-9.862800518377544,5.182078921499615,3.1974886974678713
1970-01-01 00:00:00.000000007,0.2363570994582065,-11.53157764070712,4.739725275598289,3.3123776284570132
1970-01-01 00:00:00.000000007,2.113549291437355,-13.300994732356802,4.479304568011717,3.4272828002973936
1970-01-01 00:00:00.000000007,3.468744235618629,-15.00399196552305,4.292786228121474,3.567320628044325
1970-01-01 00:00:00.000000007,4.472121010452893,-16.275702745369493,4.207009182664117,3.6732342293639304
1970-01-01 00:00:00.000000007,5.2954299171289,-17.28163476368353,3.954809099579575,3.7701254416198724
1970-01-01 00:00:00.000000007,5.828284299409377,-18.0702339568523,3.5810384232170334,3.8801290926736014
1970-01-01 00:00:00.000000007,6.188930889963289,-18.633452383368677,3.2144580152401856,3.976364229595079
1970-01-01 00:00:00.000000007,6.4585383180121,-18.96281129612692,2.7794970862434765,4.053648685437304
1970-01-01 00:00:00.000000007,6.607663105394823,-18.993564637171932,2.4508512882205213,4.092812733166916
1970-01-01 00:00:00.000000007,6.748358936841841,-18.95281005851517,2.3041115447106013,4.114693440138108
1970-01-01 00:00:00.000000007,7.1115426102303605,-19.320422775051796,2.172044586651265,4.1675687993158395
1970-01-01 00:00:00.000000007,7.613196364815831,-20.11683354929595,2.1728636134617134,4.243209941045571
1970-01-01 00:00:00.000000007,8.16286684923107,-20.96178214712766,2.367573885626017,4.273174998793861
1970-01-01 00:00:00.000000007,8.386995961702812,-21.70500361161201,2.647912109980009,4.28057031899559
1970-01-01 00:00:00.000000007,8.035864387243251,-22.144948189829552,3.304420260401399,4.2323652717227205
1970-01-01 00:00:00.000000007,7.084885382088244,-21.361400773950415,3.6686316606934763,4.092263238421486
1970-01-01 00:00:00.000000007,5.3835900317443155,-19.654088204410186,3.457419080744133,3.9693011491471744
1970-01-01 00:00:00.000000007,3.1748868189996937,-17.49368246053164,2.9869818039911067,3.8859405542134944
1970-01-01 00:00:00.000000007,0.9600679156964693,-15.097055469361958,2.2693723875977296,3.781151056267462
1970-01-01 00:00:00.000000007,-1.6396294457282465,-12.411898248104706,1.250989625283824,3.6718294102122937
1970-01-01 00:00:00.000000007,-5.129460257131196,-9.992443339824693,0.03910138470582458,3.641771390173246
1970-01-01 00:00:00.000000007,-10.190301057448682,-8.191627563879178,-1.25280787494404,3.850216968816526
1970-01-01 00:00:00.000000007,-15.938272760127372,-4.010589252538455,-1.694002375820203,3.7367728813159555
1970-01-01 00:00:00.000000007,-21.317330497778336,5.376833926486905,-2.0141400910552436,2.765541488928573
1970-01-01 00:00:00.000000007,-28.657820676290875,13.288076417276958,-1.0848089330793715,2.0375929504156707
1970-01-01 00:00:00.000000007,-36.54483591465137,15.51596795863267,3.089037516553719,2.1159812720042868
1970-01-01 00:00:00.000000007,-37.63762034746027,20.857367042411607,5.453130456636375,1.5599844513747032
1970-01-01 00:00:00.000000007,-32.91936080378147,25.45879780697703,3.2213404331238307,1.0812290166763296
1970-01-01 00:00:00.000000007,-26.10747518925415,23.989040165255794,1.2319276569943747,1.3438398992419038
1970-01-01 00:00:00.000000007,-15.167111552052583,17.50267719014093,0.5480968409356002,1.4616132791347656
1970-01-01 00:00:00.000000007,-5.981801506387718,10.088606392109924,0.8220494718274629,1.5018555420253326
1970-01-01 00:00:00.000000007,-1.4770235069276942,7.817151965905328,-1.6753045325159843,1.7677174056955787
1970-01-01 00:00:00.000000007,2.0289789377745593,6.179427919625704,-4.100340617467633,1.9332201251148975
1970-01-01 00:00:00.000000007,3.335857960450156,5.079915567886947,-4.231378435211902,1.9835141573729365
1970-01-01 00:00:00.000000007,4.219727574581972,5.023037319245342,-4.102132227330421,1.9181815109458196
1970-01-01 00:00:00.000000007,5.10352489580332,4.608309066828635,-3.7099746876182933,1.875378134323538
1970-01-01 00:00:00.000000007,6.20799213545281,3.7624163750792157,-2.956075448411809,1.8299114868095883
1970-01-01 00:00:00.000000007,7.5488462208206295,3.0012186798343,-2.5797767999767967,1.8082921101272
1970-01-01 00:00:00.000000007,9.126170946149475,2.107694634961266,-2.610691496447471,1.8329566222073803
1970-01-01 00:00:00.000000007,10.80172537375558,0.3433848178212884,-2.222045250403616,1.8701595242414388
1970-01-01 00:00:00.000000007,11.957814035313739,-1.614997175237944,-1.1632228859016394,1.8844323919282293
1970-01-01 00:00:00.000000007,12.691430688353707,-2.864216825597912,-0.10088094529224689,1.8453812625372354
1970-01-01 00:00:00.000000007,13.217371931352787,-3.4196833035229592,0.7386111753937278,1.741809990027998
1970-01-01 00:00:00.000000007,13.324582981317802,-3.3318210185654413,1.6787940318793775,1.5706743002435584
1970-01-01 00:00:00.000000007,13.049473555499633,-2.7852608623591735,2.343051020733996,1.4223939330007915
1970-01-01 00:00:00.000000007,12.697156497036781,-2.2937733509714695,2.160032442098747,1.4121852860063773
1970-01-01 00:00:00.000000007,12.475083013841745,-2.0923091195292782,1.282135410273526,1.5126937645805678
1970-01-01 00:00:00.000000007,12.18423790804156,-2.2279685697741316,0.4282279418316377,1.6529251452821396
1970-01-01 00:00:00.000000007,11.685839867858766,-2.3689270282102584,-0.27606574465715406,1.8119748752672327
1970-01-01 00:00:00.000000007,11.367667264683528,-2.3506796684106193,-0.7496215240827115,1.904552491493412
1970-01-01 00:00:00.000000007,11.18542282365144,-2.0528689643391673,-1.1671603510383732,1.9092719306607064
1970-01-01 00:00:00.000000007,10.652515744559294,-1.1474209969581934,-1.5843465821647977,1.8269254892024156
1970-01-01 00:00:00.000000007,9.388146237860699,0.5156730517694053,-1.4170263621093089,1.6126617641747285
1970-01-01 00:00:00.000000007,7.390683342069212,2.8845550901782815,-0.8614034993400033,1.2806783200299674
1970-01-01 00:00:00.000000007,4.363797027926488,5.815640492140137,-0.6425420109750652,0.9157534667981424
1970-01-01 00:00:00.000000007,-0.8312141321756925,8.219756867787984,-0.405212126803999,0.77845843477066
1970-01-01 00:00:00.000000007,-7.865303022978333,10.788598006868668,0.3726176559996113,0.7752018218112431
1970-01-01 00:00:00.000000007,-14.850731034855281,16.772513322706615,2.4160128438340003,0.10388924024183588
1970-01-01 00:00:00.000000007,-22.664139009769837,26.5430830297749,6.333550451084044,-0.9945965306483595
1970-01-01 00:00:00.000000007,-27.85381719718434,23.250891347770573,10.825012201988946,-0.721058220125407
1970-01-01 00:00:00.000000007,-27.62593152612913,19.28131170253399,10.242107345120354,0.036803096538919444
1970-01-01 00:00:00.000000007,-25.14529596512691,13.070244813545209,7.437606309157943,1.1509121863483813
1970-01-01 00:00:00.000000007,-21.57250651981358,8.743798003730959,5.2017627426885,1.8767758421861898
1970-01-01 00:00:00.000000007,-17.070405513068597,4.9564475510265265,3.4541340072674243,2.4266319832889587
1970-01-01 00:00:00.000000007,-11.094583526714915,-0.28666522515212767,2.692904354394517,2.7357867742526993
1970-01-01 00:00:00.000000007,-6.664114321136916,-4.396336368077057,3.0543558234414565,2.825133350365321
1970-01-01 00:00:00.000000007,-4.119122411268545,-6.7478541954913736,3.4412653959616275,2.919826369822278
1970-01-01 00:00:00.000000007,-1.5778269331879051,-9.012852984675298,3.642683793037031,3.003502727125208
1970-01-01 00:00:00.000000007,0.5342327827842254,-11.046035660979577,3.2143377458005826,3.1883381590950015
1970-01-01 00:00:00.000000007,2.6155129756401116,-12.472898181056335,2.651647024296138,3.2992894159318116
1970-01-01 00:00:00.000000007,4.370737666795959,-13.906042690723847,2.1963044470125066,3.419098774656028
1970-01-01 00:00:00.000000007,5.842013089795706,-16.15643014623257,2.2323973672964597,3.5606519888102053
1970-01-01 00:00:00.000000007,6.480516839822497,-17.638690370838667,2.757305356708183,3.6078359767102786
1970-01-01 00:00:00.000000007,6.5291439838517125,-17.83283066248426,3.2202264677519166,3.566748753068735
1970-01-01 00:00:00.000000007,6.479057110428116,-18.147496390534474,3.639050398295913,3.605071648621868
1970-01-01 00:00:00.000000007,7.11388796707967,-19.346970020700763,3.5867361474841806,3.7832377877427255
1970-01-01 00:00:00.000000007,8.536722417777272,-21.23975525563821,3.058764496524335,3.9837376999534877
1970-01-01 00:00:00.000000007,9.519639769973384,-22.762727865178395,2.8635992750258747,4.101824294128738
1970-01-01 00:00:00.000000007,9.869982870701532,-23.383570789060176,3.478742244292044,3.9462947234150123
1970-01-01 00:00:00.000000007,8.218411234328466,-21.835873906037335,4.695250854268275,3.6663929382596274
1970-01-01 00:00:00.000000007,6.263445385272049,-19.734863442588228,4.993192052311938,3.456926007729683
1970-01-01 00:00:00.000000007,4.099778572794133,-17.06835459903162,4.558019002967995,3.318143882029988
1970-01-01 00:00:00.000000008,2.214081571907951,-14.45140668227954,3.4826250768093487,3.2527130228400782
1970-01-01 00:00:00.000000008,0.5766458463362287,-12.323772491785304,2.018711401615606,3.261411232157728
1970-01-01 00:00:00.000000008,-1.2229333216415255,-10.736652058431865,0.8263813043038752,3.3196389496849488
1970-01-01 00:00:00.000000008,-3.209436753592681,-9.894141448083577,-0.5347245476189628,3.500982213902503
1970-01-01 00:00:00.000000008,-5.559303002228522,-9.765133184568501,-2.6239102347594216,3.8073648477134174
1970-01-01 00:00:00.000000008,-9.622057560887667,-8.154053171542143,-4.700450427161629,4.1187202048583735
1970-01-01 00:00:00.000000008,-13.702743283599053,-2.122810041970266,-6.266758893504407,3.6300232553374885
1970-01-01 00:00:00.000000008,-20.16585465322884,6.3125384085620055,-5.2776833272399735,2.576714226245463
1970-01-01 00:00:00.000000008,-30.096951163530413,12.368662937668995,-0.4233750774502105,1.9590268845891714
1970-01-01 00:00:00.000000008,-37.040683336732194,17.20565827188809,4.660853599471604,1.5917591878239075
1970-01-01 00:00:00.000000008,-36.24294162138453,21.255418484532647,6.5877303444064115,1.050229434653438
1970-01-01 00:00:00.000000008,-30.96990058734462,21.717123996980096,4.734348885989407,1.00136890108083
1970-01-01 00:00:00.000000008,-23.872233055441225,18.69276221718055,1.8255223605576534,1.2830138445531372
1970-01-01 00:00:00.000000008,-17.271388256221787,14.41372030513344,0.23101928730573296,1.526719506867137
1970-01-01 00:00:00.000000008,-12.202387849922879,10.410943796632827,0.5952561719074756,1.5821207828440738
1970-01-01 00:00:00.000000008,-8.560716230188037,8.254096597567557,1.4132317478108436,1.4733261903120864
1970-01-01 00:00:00.000000008,-5.712153433660189,8.54660531073704,-0.5910580079688632,1.5050774954021802
1970-01-01 00:00:00.000000008,-2.9112530248376007,7.906402434461669,-2.2196423208410163,1.526371994450409
1970-01-01 00:00:00.000000008,-1.5598343806925519,6.831332454926271,-1.9342126195405558,1.572488556731738
1970-01-01 00:00:00.000000008,0.29591275752510027,6.4094906254218325,-2.134181629879883,1.5111859809549277
1970-01-01 00:00:00.000000008,1.771065881153147,5.805608772701312,-2.3579970459783697,1.5206774370636837
1970-01-01 00:00:00.000000008,3.2142903057891785,5.153150027987655,-2.7205348210620057,1.5687587770130378
1970-01-01 00:00:00.000000008,4.773327038923731,4.424667853364625,-3.2512172522962923,1.6414855794624907
1970-01-01 00:00:00.000000008,6.437697049128068,3.3213939165691917,-3.5538190872259556,1.7203139389604951
1970-01-01 00:00:00.000000008,8.129855348059566,1.7296331194487944,-2.975232877359204,1.744106164690562
1970-01-01 00:00:00.000000008,9.817560075139625,-0.2192051168354051,-1.875374026856269,1.7330972490752599
1970-01-01 00:00:00.000000008,11.330380503490545,-1.9773064059594974,-0.7390009797146575,1.680834595161346
1970-01-01 00:00:00.000000008,12.340049052644002,-2.9327081717643155,0.15770724686695747,1.5952466593619472
1970-01-01 00:00:00.000000008,12.97358080305852,-3.301886814516801,0.6510240622826743,1.5052027915456763
1970-01-01 00:00:00.000000008,13.172003839141142,-3.313312877708368,1.0748653772462653,1.4106018216267926
1970-01-01 00:00:00.000000008,12.984089334598156,-3.082520410316077,1.1953815966590875,1.3665370324445711
1970-01-01 00:00:00.000000008,12.63721218231966,-2.926190316757091,0.688985616617373,1.4348961052195817
1970-01-01 00:00:00.000000008,12.261661636901072,-2.92970217804023,-0.09785398390470357,1.5810239393435985
1970-01-01 00:00:00.000000008,12.108649506668847,-2.9179294418162853,-1.0732041335315556,1.7210394723447693
1970-01-01 00:00:00.000000008,11.948605211854687,-2.898414696481902,-1.672679566929764,1.8034700352571615
1970-01-01 00:00:00.000000008,11.660702891289162,-3.1663107183348598,-1.666187528711946,1.8560582912333137
1970-01-01 00:00:00.000000008,11.336709563910015,-3.242663294272417,-1.465072304005913,1.8698653991035217
1970-01-01 00:00:00.000000008,11.125815998145114,-3.101331450822153,-1.6064979032496645,1.875024427534205
1970-01-01 00:00:00.000000008,10.784319898752106,-2.844929446791477,-1.7620146526008225,1.8646007422285906
1970-01-01 00:00:00.000000008,10.174485304500323,-2.0942735726901778,-1.850407677115144,1.7971358192697373
1970-01-01 00:00:00.000000008,9.337874661706383,-0.7270295186936951,-1.975565132358517,1.591944041978393
1970-01-01 00:00:00.000000008,7.1135784706602605,1.159845633041979,-2.044481831483568,1.341172546002636
1970-01-01 00:00:00.000000008,2.550226756693521,2.968659341407683,-1.549646587117133,1.255962597448064
1970-01-01 00:00:00.000000008,-3.0417755373964637,6.0087193993476244,-0.5312132062969629,1.0450305662515862
1970-01-01 00:00:00.000000008,-9.012998068385762,12.505311785276902,0.6954373613973961,0.40886020241734755
1970-01-01 00:00:00.000000008,-14.843018242652366,21.15218200498284,2.3255051658801813,-0.5278717323550373
1970-01-01 00:00:00.000000008,-19.81082959874181,26.673055273338132,5.662655041444193,-1.3814938851524312
1970-01-01 00:00:00.000000008,-24.892289784275476,25.240970947959372,10.286841525925961,-1.3413524271740158
1970-01-01 00:00:00.000000008,-27.77668422962807,22.967058010409676,12.715963847401136,-0.9906737929269687
1970-01-01 00:00:00.000000008,-28.148195181163366,20.066310202429825,11.740897223233878,-0.24967494575096838
1970-01-01 00:00:00.000000008,-25.672236522810746,15.694163247453648,9.659106972171632,0.5807462166820534
1970-01-01 00:00:00.000000008,-21.46260977691488,10.441589052179307,7.0704825987603,1.4057645363007825
1970-01-01 00:00:00.000000008,-16.64386513666123,5.2777493687641535,4.292931401733046,2.1343546375902447
1970-01-01 00:00:00.000000008,-12.180226300379285,1.481977350270069,1.7629986938491702,2.6065942912274656
1970-01-01 00:00:00.000000008,-9.009461723624016,-0.6607475438774594,0.161646699789262,2.8077547599205026
1970-01-01 00:00:00.000000008,-7.260524908141223,-1.6753063036522569,-0.0016830682299115995,2.8100891247098
1970-01-01 00:00:00.000000008,-6.13749360979953,-2.3889086479219834,0.9765244648143696,2.7087157808298805
1970-01-01 00:00:00.000000008,-4.92934455485167,-3.4489311577296906,1.9941396507293825,2.661983156983002
1970-01-01 00:00:00.000000008,-3.2786768859046185,-4.9571067833554014,2.890371932303245,2.6504054519099514
1970-01-01 00:00:00.000000008,-1.3897271950500547,-6.807451302361477,3.381403211962847,2.694914901864766
1970-01-01 00:00:00.000000008,0.2896720405573562,-8.57641613317188,3.1751770379261277,2.8404093124457495
1970-01-01 00:00:00.000000008,1.8848459556645145,-10.009486905724758,2.8446741995972222,2.9528840884997476
1970-01-01 00:00:00.000000008,3.1667799403679604,-11.45716817562416,2.6035884969714673,3.070473389594437
1970-01-01 00:00:00.000000008,4.068550268734107,-13.053111168828522,2.733157885931265,3.191290264623573
1970-01-01 00:00:00.000000008,4.702959763336355,-14.717748408437014,3.2007593974813444,3.313898896324992
1970-01-01 00:00:00.000000008,5.398259272921479,-15.94515204389254,3.5682896611429475,3.375373918003951
1970-01-01 00:00:00.000000008,5.923253949580974,-16.874191548336007,3.570226681704543,3.458812284882305
1970-01-01 00:00:00.000000008,6.346258548612045,-17.585966304298505,3.3998842017606856,3.5450613974739307
1970-01-01 00:00:00.000000008,6.675145339807238,-18.257375018710324,3.1661704148474747,3.657819262701411
1970-01-01 00:00:00.000000008,7.155575109005205,-19.216992467415526,2.732883732585334,3.8226755957030365
1970-01-01 00:00:00.000000008,7.758755848700613,-20.369125085834092,2.353986880631548,3.9971685037295
1970-01-01 00:00:00.000000008,8.479704521832325,-21.43815283730269,2.1359940572691407,4.122556184570681
1970-01-01 00:00:00.000000008,9.232101622559199,-21.894223136831698,1.8846310501419035,4.089077030960507
1970-01-01 00:00:00.000000008,9.099070535879463,-21.578736540902767,1.876179612812874,3.9736421086747744
1970-01-01 00:00:00.000000008,7.71795238435741,-20.872856163264085,2.3810258000847737,3.8720503485983677
1970-01-01 00:00:00.000000008,5.907819626188541,-19.603900588463006,2.7959962682406196,3.7701797233071863
1970-01-01 00:00:00.000000008,4.186947566890686,-17.775995836086643,2.7673373315624525,3.6432492109071477
1970-01-01 00:00:00.000000008,2.4383821626560445,-16.15290815121452,2.367190518608449,3.6066109469098437
1970-01-01 00:00:00.000000008,0.8840083271319863,-14.791412165854487,1.707918751716818,3.6103415775708694
1970-01-01 00:00:00.000000008,-0.8273155974580368,-14.35974678674723,0.6020893178547305,3.7920683286740164
1970-01-01 00:00:00.000000008,-2.982016669621132,-15.260896298239954,-0.7906523915587582,4.250341215769443
1970-01-01 00:00:00.000000008,-4.966076275421621,-15.388639980284102,-2.9038906044940918,4.576940923609263
1970-01-01 00:00:00.000000008,-8.403054066236614,-11.544986964740637,-4.9269977250918835,4.3284430674317695
1970-01-01 00:00:00.000000008,-15.054461327875977,-1.7882452843578989,-5.087285189631842,3.1427678214640267
1970-01-01 00:00:00.000000008,-26.984736949622558,9.273995515058038,-2.4180711669871626,2.1019024811387794
1970-01-01 00:00:00.000000008,-38.7519942606817,17.38749595811325,2.5007354481667283,1.6239540775324794
1970-01-01 00:00:00.000000008,-42.94264734835978,22.8520974642629,5.851630377752056,1.2225428635624604
1970-01-01 00:00:00.000000008,-39.5697090152347,26.306787006205987,5.430936180360157,0.8863378089364862
1970-01-01 00:00:00.000000008,-31.859977773140006,24.580456397884,3.4329511865578537,0.9218658133696909
1970-01-01 00:00:00.000000008,-23.293791647034496,19.897493949094184,1.790704069134174,1.0999805055385625
1970-01-01 00:00:00.000000008,-16.109003367091688,15.967933025773693,0.9821114781789857,1.1576437753466566
1970-01-01 00:00:00.000000008,-10.50129122385721,13.06420574899226,-0.19618615610482215,1.297892572079078
1970-01-01 00:00:00.000000008,-5.394033680716409,10.778195454023654,-2.266564436003175,1.4620120688554428
1970-01-01 00:00:00.000000008,-1.451653121062476,8.23751035614134,-2.9606147694859715,1.530855274573823
1970-01-01 00:00:00.000000008,0.9382291979096095,6.244696426693007,-2.5599220752176586,1.5451757505993413
1970-01-01 00:00:00.000000008,2.7262662788017775,5.138305692522928,-2.388268733437568,1.5218856606229327
1970-01-01 00:00:00.000000008,4.063340675675997,4.386305593955709,-2.276585405066838,1.5064685498107693
1970-01-01 00:00:00.000000008,5.2246349571329835,3.827150560349692,-2.2943319872988615,1.501953541397273
1970-01-01 00:00:00.000000008,6.297301346408975,3.394732784699086,-2.7224050027893134,1.5582334581897914
1970-01-01 00:00:00.000000008,7.577622611386166,3.0437078559698945,-3.247529858567928,1.5974062002328984
1970-01-01 00:00:00.000000009,8.96450832085322,1.9945435266198253,-3.001736978413304,1.5948812892908564
1970-01-01 00:00:00.000000009,10.08418496190348,0.341717123375604,-1.7666187979814056,1.5611215122912854
1970-01-01 00:00:00.000000009,11.01510284875804,-0.9403848332340663,-0.11917420484010421,1.447179045879421
1970-01-01 00:00:00.000000009,11.924028332288529,-1.7779000298586736,1.5031228581353364,1.2809034583508525
1970-01-01 00:00:00.000000009,12.844256117543175,-2.637000622913052,2.8794067245312993,1.127112820691847
1970-01-01 00:00:00.000000009,13.458327522254848,-3.3802977903131635,4.031677702690246,1.0059448398705817
1970-01-01 00:00:00.000000009,13.701868474939204,-4.000633173360649,4.606297790286583,0.977787539055859
1970-01-01 00:00:00.000000009,13.681298630218334,-4.292990114119612,4.182170411352223,1.0521096320035046
1970-01-01 00:00:00.000000009,13.304961825563833,-3.9436987483619435,2.778704475729026,1.209556825605853
1970-01-01 00:00:00.000000009,12.797154066416429,-3.2550914893702703,1.2746350356141836,1.3516924026985133
1970-01-01 00:00:00.000000009,12.244720201859785,-2.843413725029217,0.486799225459996,1.4504789279212091
1970-01-01 00:00:00.000000009,11.842545234804359,-2.6548546901668986,0.23116844805778958,1.48744618848709
1970-01-01 00:00:00.000000009,11.456859068328429,-2.420874032063938,0.42153774951336564,1.4413401797045475
1970-01-01 00:00:00.000000009,10.855721726406387,-2.1247011173165475,0.7343938470456791,1.326764862839316
1970-01-01 00:00:00.000000009,9.204345125893449,-0.7472582229421476,0.8558940332608891,1.1440921705589304
1970-01-01 00:00:00.000000009,6.227396143540721,1.9959317787187483,0.546947731837935,0.9249095641527045
1970-01-01 00:00:00.000000009,1.8934064450835348,4.543159751405392,-0.18256177057965894,0.7981927056820284
1970-01-01 00:00:00.000000009,-4.959069062186688,7.492083325263668,-0.15341372145166443,0.7629784463601621
1970-01-01 00:00:00.000000009,-12.944642828291041,12.218468548920658,2.5157698095917995,0.3415870053101573
1970-01-01 00:00:00.000000009,-20.15281688628565,19.97355796196856,7.1461890468040306,-0.6591556955511826
1970-01-01 00:00:00.000000009,-24.721732960660553,27.033614466484643,9.39735249637027,-1.6087896018779064
1970-01-01 00:00:00.000000009,-29.908084743705913,25.00666852329212,10.404964245367122,-0.8915445239161834
1970-01-01 00:00:00.000000009,-30.987091727145774,22.114702323236912,10.254948789375735,-0.18066274196323784
1970-01-01 00:00:00.000000009,-28.798583539522138,19.43630070752065,8.074659571193976,0.42364013538649403
1970-01-01 00:00:00.000000009,-25.532406549398008,13.57133637960187,6.416779232641945,1.338849138240807
1970-01-01 00:00:00.000000009,-20.489185537673983,7.362325784777855,5.300923953186265,2.161813981224168
1970-01-01 00:00:00.000000009,-12.957208192092532,0.30804919721458446,3.5547568912014373,2.6907008836870943
1970-01-01 00:00:00.000000009,-7.781337966690519,-4.183773481588874,2.288736087647435,2.9123169977835257
1970-01-01 00:00:00.000000009,-5.839024900053282,-5.703696975323701,1.5573537000699766,3.072077422320073
1970-01-01 00:00:00.000000009,-4.14318932977171,-6.717350878158724,0.8585077882336609,3.1964505199116995
1970-01-01 00:00:00.000000009,-2.3521075182266746,-7.954900887559716,0.5822324296413178,3.255945603759876
1970-01-01 00:00:00.000000009,-1.0017250959583697,-9.208796502188093,0.21794439584723457,3.384240506431494
1970-01-01 00:00:00.000000009,0.44825074391599995,-10.015962838220231,0.46890809153265955,3.349173044250586
1970-01-01 00:00:00.000000009,1.6439606863061214,-11.032660684006217,1.1321135212867988,3.296954275147604
1970-01-01 00:00:00.000000009,2.5280026571031744,-12.305274920739796,1.9087576924185239,3.293176235003304
1970-01-01 00:00:00.000000009,3.2490333350473533,-13.811515468650473,2.802590881331362,3.3310339183207955
1970-01-01 00:00:00.000000009,4.033785990716752,-15.189137673584469,3.42770116276639,3.375227759957367
1970-01-01 00:00:00.000000009,4.744495877588088,-16.240649896871236,3.799892334620667,3.4186505628486747
1970-01-01 00:00:00.000000009,5.434061055298195,-17.080148083555457,3.8976533303746552,3.4705820364010465
1970-01-01 00:00:00.000000009,6.076415522116176,-17.7248457812202,3.6352501634012455,3.549550138947149
1970-01-01 00:00:00.000000009,6.686918616176126,-18.243880437469336,3.000908653379034,3.678062428153389
1970-01-01 00:00:00.000000009,7.4909551871182645,-18.856048148107195,2.1431613601773454,3.825996444600168
1970-01-01 00:00:00.000000009,8.33336769864696,-19.595406015855307,1.3884616169783668,3.9618382626816846
1970-01-01 00:00:00.000000009,9.031354444259152,-20.379754835211678,0.9354617430125824,4.047779233640938
1970-01-01 00:00:00.000000009,9.220959489783768,-20.992336684361252,1.0346432948599675,4.057822037184101
1970-01-01 00:00:00.000000009,8.763308346382981,-20.83010388302293,1.8331389777256002,3.910630670909951
1970-01-01 00:00:00.000000009,7.575943745229712,-19.81292810648238,2.8176491545072473,3.7007292692216094
1970-01-01 00:00:00.000000009,6.101935954327943,-18.431434038573023,3.4309091473983147,3.5105636925631982
1970-01-01 00:00:00.000000009,4.3602881426882325,-16.620782279646708,3.5319064805906644,3.363482226389235
1970-01-01 00:00:00.000000009,2.5519145843977245,-14.673712482294514,3.086540858142979,3.2734145906010976
1970-01-01 00:00:00.000000009,0.6000763253378769,-13.350138207070433,2.524013224504293,3.302011396136272
1970-01-01 00:00:00.000000009,-1.315787711462204,-12.6027357689979,2.2390995430822382,3.372159585748529
1970-01-01 00:00:00.000000009,-3.1898656366529483,-12.497688037772864,1.8577139568160705,3.4863200782353987
1970-01-01 00:00:00.000000009,-5.848393144907043,-13.186517674328657,1.5675008674923423,3.7207892442092727
1970-01-01 00:00:00.000000009,-9.518009862483037,-12.07204728509885,1.6810513494793045,3.75521454047792
1970-01-01 00:00:00.000000009,-13.624632010900292,-5.657409313900808,0.9222352778888023,3.085336199195894
1970-01-01 00:00:00.000000009,-20.528818569021308,4.403302745336038,-0.699391910922514,2.194152914431363
1970-01-01 00:00:00.000000009,-30.805120018338986,12.637302532486451,0.03490222171598245,1.8114947260247136
1970-01-01 00:00:00.000000009,-38.6742832735878,20.35993657009456,3.197822835550414,1.3362587675934519
1970-01-01 00:00:00.000000009,-39.50863206607282,27.119506617313643,5.594836095392425,0.6199968973070769
1970-01-01 00:00:00.000000009,-33.785883076072054,26.657289514454106,5.653299157125134,0.5081880178387903
1970-01-01 00:00:00.000000009,-24.72565418771976,21.018428548646344,4.435359422685156,0.8061810011000157
1970-01-01 00:00:00.000000009,-15.752734772338936,15.281965343138104,2.793089299514528,1.014366197063556
1970-01-01 00:00:00.000000009,-9.61983758647649,9.970268650071835,2.1036845981964096,1.2713223946666599
1970-01-01 00:00:00.000000009,-5.522058614285563,6.673772656749516,2.014879299736279,1.3838060479452792
1970-01-01 00:00:00.000000009,-2.489166780731914,5.4617555084625256,1.2882189209808557,1.3955864672147502
1970-01-01 00:00:00.000000009,-0.18042709994063721,5.070941902981524,0.29434739798938203,1.3883275391567502
1970-01-01 00:00:00.000000009,1.557038890448666,5.155585100803517,-0.6389299465020407,1.3551494598440623
1970-01-01 00:00:00.000000009,2.8078780214158408,5.482814976964874,-1.1924967952931729,1.3676501759456938
1970-01-01 00:00:00.000000009,4.027658764630127,5.415004898425589,-1.5238979052362154,1.3561942984761397
1970-01-01 00:00:00.000000009,5.4625538467415975,4.857079024997578,-1.8179849016132081,1.3845610139910864
1970-01-01 00:00:00.000000009,7.02928213610587,4.164409794289879,-2.3734134205398876,1.4654374836731128
1970-01-01 00:00:00.000000009,8.838310191387656,3.502211248370908,-3.5939516254221835,1.6026802593336558
1970-01-01 00:00:00.000000009,10.717542032349906,2.326132756730873,-4.732441620852937,1.7379717499512868
1970-01-01 00:00:00.000000009,11.870021601554711,1.2506684303892819,-4.734676890580758,1.7700556229868973
1970-01-01 00:00:00.000000009,12.49054177447875,0.8274084865390592,-4.218340802068059,1.6892270800636902
1970-01-01 00:00:00.000000009,12.70585230556938,0.554075421186311,-3.195810050236002,1.553993640362891
1970-01-01 00:00:00.000000009,12.643082757416378,0.508989055773601,-1.9421693840217578,1.39516576662607
1970-01-01 00:00:00.000000009,12.582149174648297,0.5979268310925216,-1.0834655719607529,1.2749831915412058
1970-01-01 00:00:00.000000009,12.576559346686357,0.5934496724474916,-0.8529867701957881,1.2379980803186033
1970-01-01 00:00:00.000000009,12.47892949235068,0.30497044954226404,-0.8174210987725473,1.2809244882231434
1970-01-01 00:00:00.000000009,12.41728142889279,-0.3259475245065989,-0.9340828863633361,1.3804664986151618
1970-01-01 00:00:00.000000009,12.265003090145875,-1.0818108737766017,-1.1290740955939524,1.5156170984392774
1970-01-01 00:00:00.000000009,12.072712312056392,-1.5628159712948175,-1.230787598507059,1.611528642021256
1970-01-01 00:00:00.000000009,11.940114992186757,-1.4715986329752129,-1.4595693458883139,1.6384813409525913
1970-01-01 00:00:00.000000009,11.78465474199252,-1.182149684158907,-1.6893873055999449,1.6158683851853377
1970-01-01 00:00:00.000000009,11.26867956663643,-0.6504618108025266,-1.6079068767976703,1.5361494741735016
1970-01-01 00:00:00.000000009,10.33423434657089,0.3452204585719737,-0.9985587018556356,1.3359104701899351
1970-01-01 00:00:00.000000009,8.718696093486992,1.5273174194316692,-0.047274846118488645,1.0895398347500544
1970-01-01 00:00:00.000000009,6.149674458925567,3.138617520827714,0.9684055114008072,0.8281361094151518
1970-01-01 00:00:00.000000009,2.436949335780982,5.046634761091668,1.7755027721150334,0.6016176242431872
1970-01-01 00:00:00.000000009,-2.825960749692139,8.577633253442036,1.9272815605000753,0.37285535655508917
1970-01-01 00:00:00.000000009,-9.138914729461254,15.155229350671851,2.616865630215113,-0.17855334181815508
1970-01-01 00:00:00.000000009,-15.26162002451921,22.504962986792805,5.369494227403739,-1.0521884269396296
1970-01-01 00:00:00.000000009,-20.250595567014166,27.112445725816226,9.243152942768859,-1.846656365859547
1970-01-01 00:00:00.000000009,-25.37665688935119,24.061608778023004,13.226172395130552,-1.526792896882466
1970-01-01 00:00:00.000000009,-28.64275196573533,19.729726292016977,15.79223673696898,-0.9478134521454349
1970-01-01 00:00:00.000000010,-30.202148348281217,16.775780524602407,15.5489989211977,-0.17918750626907087
1970-01-01 00:00:00.000000010,-28.43649187103952,13.280489200976165,13.094875464096498,0.6740954982167238
1970-01-01 00:00:00.000000010,-24.34440065549825,8.265243024407678,9.980453732061665,1.5977844673837844
1970-01-01 00:00:00.000000010,-18.85247967226092,2.3241732353735416,7.32047607891093,2.4093892850973675
1970-01-01 00:00:00.000000010,-13.134564121362116,-2.808568538287646,5.376397529567802,2.909926747888942
1970-01-01 00:00:00.000000010,-8.569715351750581,-6.44125947593135,4.306521512628455,3.1231005877220563
1970-01-01 00:00:00.000000010,-5.8351651694591595,-8.786087048316794,3.96903357494306,3.2333427707581963
1970-01-01 00:00:00.000000010,-4.156433586059901,-9.911827450271366,3.7286483891850173,3.2986209877095343
1970-01-01 00:00:00.000000010,-2.613725638442138,-10.535551389307079,3.0021756527555366,3.3773300037117386
1970-01-01 00:00:00.000000010,-1.1404332838738884,-11.10846839951085,1.5196858967233196,3.5790841606256105
1970-01-01 00:00:00.000000010,0.7473224171252024,-11.469156957124321,0.20328199913531653,3.682084160150609
1970-01-01 00:00:00.000000010,2.672178383249002,-11.9737041371453,-0.4460066143694559,3.6724568557511423
1970-01-01 00:00:00.000000010,4.023114858997726,-12.65760070818214,-0.5822065494944431,3.637708369355981
1970-01-01 00:00:00.000000010,4.562961043062192,-13.226820960006378,-0.21887619821473625,3.6005665272356544
1970-01-01 00:00:00.000000010,4.675854136267913,-13.960248205739251,0.6788662039478992,3.584108258867413
1970-01-01 00:00:00.000000010,4.991181034386482,-14.787882924264121,1.4602613754980238,3.582557519484201
1970-01-01 00:00:00.000000010,5.488330438088336,-15.329988821333172,1.4807928625582774,3.6277500818750212
1970-01-01 00:00:00.000000010,6.103948546639699,-15.782483321220997,1.1104778440859138,3.7062300082612376
1970-01-01 00:00:00.000000010,6.834606667360989,-16.422455490050908,0.6267142893440588,3.8152688893706745
1970-01-01 00:00:00.000000010,7.652170405585334,-17.25256076515351,0.18206211320429277,3.927487536357178
1970-01-01 00:00:00.000000010,8.38296673302277,-18.09755527828596,-0.16190734202061852,4.026227869690262
1970-01-01 00:00:00.000000010,8.891783578410129,-19.019786100639116,-0.44191469983221454,4.142513979818393
1970-01-01 00:00:00.000000010,9.222008886333828,-20.019813164205768,-0.6029332786842725,4.238709246780962
1970-01-01 00:00:00.000000010,9.007657738645007,-20.583137504066567,-0.15525199579384918,4.234870898726968
1970-01-01 00:00:00.000000010,8.28748973699218,-20.682236533545744,0.703792304297487,4.145671317503852
1970-01-01 00:00:00.000000010,7.028882512738263,-19.98481505185256,1.0100780616431737,4.050891910303118
1970-01-01 00:00:00.000000010,5.139555849571764,-18.179938607829015,0.5461466187130661,3.9564449059350224
1970-01-01 00:00:00.000000010,2.6410318044461087,-15.719348006956894,-0.6099400038164913,3.9275032891260544
1970-01-01 00:00:00.000000010,-0.1361639309737095,-13.15640263936112,-1.9284717811125847,3.9224022277239814
1970-01-01 00:00:00.000000010,-3.3346281197152874,-11.39506325390548,-3.6003380843351023,4.086020247919012
1970-01-01 00:00:00.000000010,-7.112941121888992,-10.553409209074063,-4.573760488923019,4.357243859711115
1970-01-01 00:00:00.000000010,-10.776993397048765,-8.717628823969712,-4.811838549461371,4.389123918015513
1970-01-01 00:00:00.000000010,-14.209942192909212,-4.472126852582136,-4.245438161007369,3.749747498844272
1970-01-01 00:00:00.000000010,-20.878204990162818,1.2770721577105357,-0.008123444279215408,2.661130290847788
1970-01-01 00:00:00.000000010,-30.42729939670395,7.107133593321134,7.930163648023282,1.7550322232101443
1970-01-01 00:00:00.000000010,-35.24148206677394,14.234824496172545,11.491831575120631,1.0942327566483365
1970-01-01 00:00:00.000000010,-33.28165195814285,18.36703027804201,9.48319135493788,0.9233580676084219
1970-01-01 00:00:00.000000010,-27.5898287589349,16.98414469114573,6.8634866883859385,1.1457901355720785
1970-01-01 00:00:00.000000010,-20.796178577178747,13.315709851795583,5.441782700385677,1.3740124483503395
1970-01-01 00:00:00.000000010,-13.896860987525244,9.571711423805043,5.346336338496973,1.2344394729660433
1970-01-01 00:00:00.000000010,-10.011187836320799,8.240645620888438,5.279445468980242,1.0762037382900647
1970-01-01 00:00:00.000000010,-7.46386943864778,8.45712684058658,3.7300978243729546,1.1046713478784647
1970-01-01 00:00:00.000000010,-4.566145184210735,8.79046024430999,1.3718769584504809,1.1888072103984697
1970-01-01 00:00:00.000000010,-1.5979025578530082,8.207566749159875,-0.8671529528342092,1.3155937128657478
1970-01-01 00:00:00.000000010,0.5879236284308891,7.116951195259141,-1.7318974727218173,1.3855356358383797
1970-01-01 00:00:00.000000010,2.0839950213266425,6.215445430219255,-1.6287489032728297,1.3594017487618233
1970-01-01 00:00:00.000000010,3.069267967096827,5.665604362697309,-1.028793973608502,1.284043909376345
1970-01-01 00:00:00.000000010,3.991010149531107,5.191293352973417,-0.7132673937914082,1.245408181373906
1970-01-01 00:00:00.000000010,4.957844975393279,4.630675458126214,-0.3480663682180376,1.2235396648699988
1970-01-01 00:00:00.000000010,6.171635001520701,4.0225851926614515,-0.24888337186902854,1.2260073329518493
1970-01-01 00:00:00.000000010,7.6131534031791555,3.5984355839433446,-0.7524738320357953,1.2481725516494973
1970-01-01 00:00:00.000000010,8.967072818275147,3.183208103156649,-1.2698775637496134,1.2728874775416468
1970-01-01 00:00:00.000000010,10.173917323578175,2.511272592913569,-1.37113099757714,1.2830821202110057
1970-01-01 00:00:00.000000010,11.178117595094484,1.7941915418541137,-1.327619734488656,1.293572791109607
1970-01-01 00:00:00.000000010,11.970538479063599,1.1293529333803576,-1.5271479373838752,1.341040522590452
1970-01-01 00:00:00.000000010,12.51143428386905,-0.02804410285927883,-1.6317563371507315,1.4383429431669943
1970-01-01 00:00:00.000000010,12.518804436009715,-0.8499478292174021,-1.618677284322691,1.531018210890925
1970-01-01 00:00:00.000000010,12.267340910952896,-0.9424568455497883,-2.094439899100906,1.6274425779582389
1970-01-01 00:00:00.000000010,12.019340494127764,-0.9912895668167,-3.0761025575916987,1.7652322144008226
1970-01-01 00:00:00.000000010,11.502453234584038,-0.9592273679830123,-3.84719506535663,1.8971646879916788
1970-01-01 00:00:00.000000010,10.938433325021158,-0.8765754905815215,-4.266890328894263,1.9896916261270003
1970-01-01 00:00:00.000000010,10.495714828488637,-1.0001598514902306,-4.150692788560612,2.0328636302745373
1970-01-01 00:00:00.000000010,10.23760518267195,-1.2685506380949396,-3.692625100682498,2.007019639454673
1970-01-01 00:00:00.000000010,9.723054169414752,-1.2407935366783618,-3.2902710894722036,1.9167838620057036
1970-01-01 00:00:00.000000010,8.27493211630518,-0.28232171234000514,-2.694141175185986,1.6969011611896025
1970-01-01 00:00:00.000000010,5.259636389107099,1.8720877789202885,-2.1975601651273537,1.4037313521452204
1970-01-01 00:00:00.000000010,0.22263510056342173,4.504597295726142,-1.4640777307141593,1.1299542858791845
1970-01-01 00:00:00.000000010,-6.990984066179181,8.581070541793233,1.2464927719532208,0.6842690893104333
1970-01-01 00:00:00.000000010,-14.218922086833015,15.195737244563812,5.880812485323043,-0.1430555760159522
1970-01-01 00:00:00.000000010,-18.37910021562337,22.15514856277627,8.486757833115995,-1.0952527537850898
1970-01-01 00:00:00.000000010,-22.08318191265434,22.967315183153733,8.73569024156391,-0.954524156815983
1970-01-01 00:00:00.000000010,-24.38797535380866,19.357565503524043,9.272082810260732,-0.2565468690070509
1970-01-01 00:00:00.000000010,-24.509613484860772,17.52527516821642,8.948867391696389,0.14122893993352736
1970-01-01 00:00:00.000000010,-23.52699848501539,14.258442574051191,8.030915301274764,0.778455273033678
1970-01-01 00:00:00.000000010,-20.576563881209086,9.096798556667265,6.779969968223666,1.5463361475652109
1970-01-01 00:00:00.000000010,-16.236955377601248,3.4316287160838423,4.604784100882967,2.3242794614337763
1970-01-01 00:00:00.000000010,-11.76527992819829,-0.559920785306876,1.6821031927130932,2.8672602383314545
1970-01-01 00:00:00.000000010,-8.673312357403582,-2.1007337350437547,-0.7392417133034885,3.065651647929362
1970-01-01 00:00:00.000000010,-7.537949534913689,-1.8839815471064207,-1.3657209381391806,2.9563912596176865
1970-01-01 00:00:00.000000010,-7.764112656418607,-1.347716667751509,0.2838277526239366,2.7011122209145944
1970-01-01 00:00:00.000000010,-7.689947877385526,-1.7279897952970558,2.5554489458727137,2.525165882051589
1970-01-01 00:00:00.000000010,-6.369964385446152,-3.0668341303296254,3.954467460878712,2.4946887595057023
1970-01-01 00:00:00.000000010,-4.056280245241985,-5.092242367356931,4.1994618540983355,2.5908684709363143
1970-01-01 00:00:00.000000010,-1.5630513397684305,-7.158250862533294,3.6964615255506095,2.749367371637194
1970-01-01 00:00:00.000000010,0.6464407427058962,-8.985908316572027,3.29962194023823,2.861821657826152
1970-01-01 00:00:00.000000010,2.237923597215964,-10.548767466912784,3.0558370788805496,2.9574720977559155
1970-01-01 00:00:00.000000010,3.222895411977175,-11.602858213127108,3.1859342664828807,2.9930285486180392
1970-01-01 00:00:00.000000010,3.840628247829419,-12.347639497086192,3.3451529065901418,3.0102119954521718
1970-01-01 00:00:00.000000010,4.124169117806144,-13.02151491272304,3.3950875069283195,3.069737114156001
1970-01-01 00:00:00.000000010,4.330422430589747,-13.495178764313636,3.3102941625964264,3.1359229589701005
1970-01-01 00:00:00.000000010,4.6007508531846515,-13.781981821056565,3.049184785864004,3.1916611708135436
1970-01-01 00:00:00.000000010,4.83618259943504,-14.149946992130742,2.736078467814531,3.2824605551663586
1970-01-01 00:00:00.000000010,5.291540547539533,-14.611081739541605,2.4804390720601623,3.3654275356981214
1970-01-01 00:00:00.000000010,5.963867134311746,-15.239481049385766,2.0955554039172473,3.4690103248782567
1970-01-01 00:00:00.000000010,6.790144635400311,-16.080877362358052,1.6235860652212497,3.5970289576185386
1970-01-01 00:00:00.000000010,7.685595362453473,-17.125959215517977,1.0595168758202322,3.74416853967414
1970-01-01 00:00:00.000000010,8.439607401384318,-17.998330943016143,0.5550600955363469,3.8423606172823916
1970-01-01 00:00:00.000000011,8.642023259428933,-18.489513384092312,0.5165685654864697,3.864179478863592
1970-01-01 00:00:00.000000011,8.313857851489823,-18.68630723489397,1.1745143651809782,3.7978569947052767
1970-01-01 00:00:00.000000011,7.605594327377606,-17.834329602987655,1.6517716494581767,3.659560223325351
1970-01-01 00:00:00.000000011,6.784535761709412,-16.33657260867682,1.4273396072862636,3.539436962263685
1970-01-01 00:00:00.000000011,5.909492134611824,-14.94067533951062,0.6988532390471193,3.4928417396582105
1970-01-01 00:00:00.000000011,4.819505673527705,-13.83683798496398,-0.08347857986852203,3.517262071741918
1970-01-01 00:00:00.000000011,3.6729966535235743,-12.845598175676423,-0.8944228166571233,3.5567347663018687
1970-01-01 00:00:00.000000011,2.2911846421243243,-12.608009253021248,-1.6796339645954255,3.6760286137749447
1970-01-01 00:00:00.000000011,0.15320048972204425,-13.852200393125212,-1.987242964647638,3.939637558481862
1970-01-01 00:00:00.000000011,-3.2690170647564916,-15.199007295671471,-1.523532015202453,4.1717280210117424
1970-01-01 00:00:00.000000011,-8.317361682208263,-13.6618094406997,-0.5389342965132395,4.081354648228313
1970-01-01 00:00:00.000000011,-14.480511080374047,-6.162712605814518,-0.27055899324897614,3.3071309686474835
1970-01-01 00:00:00.000000011,-22.764646931399238,5.05779373705638,-0.22693386786019656,2.2755546486905875
1970-01-01 00:00:00.000000011,-32.21702443844821,13.052469600186487,2.2226706548733115,1.7373191299361075
1970-01-01 00:00:00.000000011,-38.04014076139104,16.57895890486607,5.959114986326632,1.6272837865592733
1970-01-01 00:00:00.000000011,-36.42463414612352,19.103684074236142,7.697697218984588,1.2487548402911022
1970-01-01 00:00:00.000000011,-30.444535776248365,18.88894527398117,6.797144100728509,1.0326795658595238
1970-01-01 00:00:00.000000011,-23.936147975167014,15.783736100579173,5.961091278008621,1.0446397053274314
1970-01-01 00:00:00.000000011,-18.5689373162992,12.694483804242704,5.324874768090632,1.120295330655194
1970-01-01 00:00:00.000000011,-14.189006285532109,9.976873324211407,4.820074170676184,1.238029422688171
1970-01-01 00:00:00.000000011,-10.163790202590782,7.98144752608236,3.6174794167832034,1.3819991486302385
1970-01-01 00:00:00.000000011,-6.413621709227631,6.705731504165836,1.7853917066237224,1.534617704569781
1970-01-01 00:00:00.000000011,-2.911653939566767,5.935849158114841,-0.7993572662232289,1.6903734365614336
1970-01-01 00:00:00.000000011,-0.31484437398503096,4.956240374962756,-2.4739932846230692,1.7746581827046026
1970-01-01 00:00:00.000000011,0.8254268691748946,4.363035747349778,-2.2680666371292713,1.7309407680210922
1970-01-01 00:00:00.000000011,1.6565910179891197,4.482519529781623,-1.8770111915667413,1.622685770253418
1970-01-01 00:00:00.000000011,2.704802447813167,4.603551697573803,-1.7226753943533186,1.5452836597286397
1970-01-01 00:00:00.000000011,4.205166715527153,4.204000345463067,-1.744600415220696,1.5157455732598055
1970-01-01 00:00:00.000000011,5.931841904952838,3.2665126143495606,-1.7694808321853293,1.5170502927943885
1970-01-01 00:00:00.000000011,7.483404607109515,2.2993961446027633,-1.7238261511555821,1.5273167249044335
1970-01-01 00:00:00.000000011,8.917206017056834,1.5582963048393879,-1.5327122341008752,1.4867627846279081
1970-01-01 00:00:00.000000011,10.095673922574726,1.0117300058779004,-0.9222782497505614,1.3775528699546813
1970-01-01 00:00:00.000000011,10.95077112488072,0.5341475508128728,-0.09306681221527846,1.258046891185518
1970-01-01 00:00:00.000000011,11.596586225354962,0.20929796220390795,0.45851841607229593,1.163905778276479
1970-01-01 00:00:00.000000011,11.954145849164421,0.039197513329071176,0.6453641308033407,1.1148576970034094
1970-01-01 00:00:00.000000011,11.972220248114008,0.024450248930894647,0.39172846686840623,1.1378158821539646
1970-01-01 00:00:00.000000011,11.807135151541027,0.223964616051052,-0.4656901171108393,1.23432501948748
1970-01-01 00:00:00.000000011,11.571614310543135,0.4652010186324982,-1.7727549946760846,1.406714768281205
1970-01-01 00:00:00.000000011,11.495419166522636,0.4563275598316353,-3.27883006633815,1.6419868869984275
1970-01-01 00:00:00.000000011,11.818258836185777,0.20903778558111163,-4.4022621076945105,1.805474359523711
1970-01-01 00:00:00.000000011,12.113601740816936,-0.30202640244409246,-4.821965894716224,1.8912502569272305
1970-01-01 00:00:00.000000011,12.119197242498364,-0.5430467756195945,-4.4701131736914,1.8541349435516123
1970-01-01 00:00:00.000000011,11.769626535251588,-0.5292626469994459,-3.790115902665991,1.7765156013398817
1970-01-01 00:00:00.000000011,11.297383124284995,-0.16933624134439418,-3.5353077462694205,1.7146432347341842
1970-01-01 00:00:00.000000011,10.6747505419725,0.5939539305818111,-3.7764234467275632,1.680770026451916
1970-01-01 00:00:00.000000011,9.980891035875475,1.441805970295245,-4.442411712132954,1.6770095727974348
1970-01-01 00:00:00.000000011,8.942606157051168,2.593439927537502,-5.160060120714336,1.6322695893146986
1970-01-01 00:00:00.000000011,7.03836234486486,3.308339133401843,-5.651944486969395,1.6466848889721173
1970-01-01 00:00:00.000000011,3.861591136764766,2.927209049054622,-5.496948652716895,1.7988632777625928
1970-01-01 00:00:00.000000011,-0.48911361983033685,3.199540042988245,-3.7924342844713665,1.6710069526212927
1970-01-01 00:00:00.000000011,-6.924612106836019,6.330351447853206,1.2212023082152055,0.9634522693255152
1970-01-01 00:00:00.000000011,-14.019046331305756,12.432448968258635,6.72739652549167,0.07985272846497482
1970-01-01 00:00:00.000000011,-17.942570215444672,19.50714704942836,9.329880234357969,-0.8709037563853692
1970-01-01 00:00:00.000000011,-20.807395360497466,21.4106717223904,9.079520158255846,-0.9189553046994501
1970-01-01 00:00:00.000000011,-23.715640784491544,20.028256623119,8.764431206556125,-0.46847381240575503
1970-01-01 00:00:00.000000011,-26.013803706452496,19.656058153168118,9.363923470105668,-0.15088808882173277
1970-01-01 00:00:00.000000011,-25.852420755598118,13.469002466269448,11.845191440146708,0.7033328581569951
1970-01-01 00:00:00.000000011,-20.252015401074065,4.979286947912401,10.178523925660778,1.638302260953866
1970-01-01 00:00:00.000000011,-15.485132916749755,1.3528402099162984,6.606049635245177,2.187071760236035
1970-01-01 00:00:00.000000011,-12.379020596303878,-0.21918941747315962,3.9182280886581324,2.4211956182062906
