time,ax,ay,az,speed
1970-01-01 00:00:00.000000000,-0.12426370916135777,1.091247685997525,-1.024555816993517,1.204737355169349
1970-01-01 00:00:00.000000086,-0.10901126223072737,1.366817443941677,-2.0391612086014743,1.2276229689795464
1970-01-01 00:00:00.000000086,0.014719590589914608,1.407219208634254,-2.938400907039778,1.3218949141223306
1970-01-01 00:00:00.000000086,0.28726662271262826,1.2773579561833277,-3.6484065144723776,1.3992126779609522
1970-01-01 00:00:00.000000086,0.546735434848299,1.0215860518772055,-3.8784345401528073,1.433404033022434
1970-01-01 00:00:00.000000086,0.6978886900785573,0.890818209373635,-3.98397330478104,1.4244651771545458
1970-01-01 00:00:00.000000086,0.39984915432443113,1.3491997925691848,-3.8701504975769736,1.3822661401460132
1970-01-01 00:00:00.000000086,0.18757984883644693,1.6904266903204588,-3.6072396294711906,1.3359873057512983
1970-01-01 00:00:00.000000086,0.12229883925716974,1.6206318173151129,-3.197008526913261,1.3041182850083826
1970-01-01 00:00:00.000000086,0.09040106057604677,1.4478036923555735,-2.8308192820188522,1.2927939032804598
1970-01-01 00:00:00.000000086,0.207587892120958,1.3568759295251096,-2.5983040343560164,1.2745413554412084
1970-01-01 00:00:00.000000086,0.36296616991504543,1.2908755153425175,-2.470360535073459,1.2592680027897354
1970-01-01 00:00:00.000000086,0.4992138680203106,1.2314074338920806,-2.3667859634581663,1.2467553676882999
1970-01-01 00:00:00.000000086,0.615484219351799,1.253365009568317,-2.3866206684723794,1.23578293325643
1970-01-01 00:00:00.000000086,0.6490118087815758,1.4267562739330675,-2.5046636358154983,1.223108478353314
1970-01-01 00:00:00.000000086,0.6019029028186436,1.6528719300522017,-2.6054799551183776,1.208379724348156
1970-01-01 00:00:00.000000086,0.5085898834435261,1.9429577197313646,-2.6011232701257274,1.1817321599392951
1970-01-01 00:00:00.000000086,0.43632675353288775,2.0864966337027484,-2.345338207268163,1.139314923658317
1970-01-01 00:00:00.000000086,0.3303900868558549,1.8565361026102853,-1.5089236137473154,1.0802716898400773
1970-01-01 00:00:00.000000086,0.24612848286094618,1.3821785617241356,-0.42839893896022246,1.0316373256103097
1970-01-01 00:00:00.000000086,0.3823709630066068,1.1438534877138204,0.12372068559363641,0.9919207240479604
1970-01-01 00:00:00.000000086,0.5095456460223716,1.0954116511500875,-0.1375965054105202,1.0051844669230707
1970-01-01 00:00:00.000000086,0.40550401675097963,1.0632430264079762,-0.7078443986082263,1.0654580145818529
1970-01-01 00:00:00.000000086,0.1815669060717652,1.1515249417670268,-0.93482737710987,1.0879730053260779
1970-01-01 00:00:00.000000086,-0.09487264391917208,1.2574031551855107,-0.8030220294745256,1.0757020817433742
1970-01-01 00:00:00.000000086,-0.3791507638362955,1.1192856973159881,-0.4258419696280108,1.0633248494567091
1970-01-01 00:00:00.000000086,-0.652315397063713,0.8360561183788975,0.1780342955509854,1.0432304982579081
1970-01-01 00:00:00.000000086,-0.8904543338129405,0.5783394000628534,0.856877850653291,1.0144247032929243
1970-01-01 00:00:00.000000086,-1.0423818803847256,0.14281961827379308,1.5713796070435362,0.9963646242441524
1970-01-01 00:00:00.000000086,-1.1197866074216598,-0.3882183439414006,2.154362902251122,1.0078277126655875
1970-01-01 00:00:00.000000086,-0.975102665155194,-0.8372169711407841,2.3839166872873876,1.03889774991473
1970-01-01 00:00:00.000000086,-0.6029138487068885,-1.2154492530132632,2.2125782783547048,1.0800183575158895
1970-01-01 00:00:00.000000086,-0.268997740951811,-1.4821881046095557,1.603421583897395,1.1557388572594807
1970-01-01 00:00:00.000000086,0.010082211618113276,-1.4764853216842106,0.6569487366354749,1.2384912368880325
1970-01-01 00:00:00.000000086,0.17875038647116664,-1.3788451356572309,-0.36173524953266417,1.3240111825617304
1970-01-01 00:00:00.000000086,0.23715746570231055,-1.1480701588899107,-1.3195372918462815,1.400490073087226
1970-01-01 00:00:00.000000086,0.30507383926994547,-1.2018576172819488,-1.5985800932284642,1.4428285265192273
1970-01-01 00:00:00.000000086,0.5162422957274437,-1.6882897906785457,-1.2283295082782004,1.4560920586133648
1970-01-01 00:00:00.000000086,0.9230076155468462,-2.148555252984963,-0.33290515222919537,1.3914847327327782
1970-01-01 00:00:00.000000087,1.3640641438403407,-2.475508782253672,1.0870836557517447,1.2476051814709042
1970-01-01 00:00:00.000000087,1.7200855911356605,-2.6984168116762377,2.6759289137142446,1.0720364218069989
1970-01-01 00:00:00.000000087,1.901853983702522,-2.460559711387911,3.8341824361497157,0.9049798275723242
1970-01-01 00:00:00.000000087,1.9577969112213323,-1.8318502877946456,4.001841970331011,0.8036802292860574
1970-01-01 00:00:00.000000087,1.8369665475923924,-0.8269772269828548,3.3879715948724685,0.753223393873477
1970-01-01 00:00:00.000000087,1.5328172157966804,0.38342514880401035,2.853351080772011,0.699727593481652
1970-01-01 00:00:00.000000087,1.3524234385288763,1.6022919349175497,2.8253432761982915,0.5986735189949393
1970-01-01 00:00:00.000000087,1.5204947043324832,2.798981173368734,3.351441455980881,0.4213976974182473
1970-01-01 00:00:00.000000087,1.96998324324458,3.6143725482038915,4.307748837451398,0.20965331210108995
1970-01-01 00:00:00.000000087,2.4572169489488562,4.249147574580672,5.16784710165127,-0.014272125606769936
1970-01-01 00:00:00.000000087,2.483042035130204,4.675620927066686,6.5371318687250515,-0.49557554325457165
1970-01-01 00:00:00.000000087,2.0297931585012545,4.714920710866055,8.807016608571455,-0.7667861665068636
1970-01-01 00:00:00.000000087,1.0211765627045712,4.732496911688352,11.107575208075223,-0.9752141859461007
1970-01-01 00:00:00.000000087,-0.046109537115637256,4.668596035276247,12.703614140015318,-1.0807186023681836
1970-01-01 00:00:00.000000087,-0.9452430233864271,3.854503070252512,13.674913601820275,-1.0421029273997302
1970-01-01 00:00:00.000000087,-1.6109797251783455,2.695025720461542,13.811091968051883,-0.8868434573910026
1970-01-01 00:00:00.000000087,-2.0595388959284637,1.5300180783415018,13.343396231713223,-0.6566656049112978
1970-01-01 00:00:00.000000087,-2.0072834828329675,0.9592918001082731,11.55443569355458,-0.37212034875116484
1970-01-01 00:00:00.000000087,-1.498644195721474,1.1125145639385878,7.86802153361707,-0.021751650899738073
1970-01-01 00:00:00.000000087,-1.179864066423929,1.3010629320145397,3.8546072198868964,0.3844654013523021
1970-01-01 00:00:00.000000087,-0.7766804761200476,1.0145660846616686,0.45475488753701193,0.7778770927332666
1970-01-01 00:00:00.000000087,-0.18202039527454072,0.17613223250434998,-1.7423143777337837,1.079305102213259
1970-01-01 00:00:00.000000087,0.36356132197489993,-1.199773752831106,-2.6880210321360383,1.2997608423514164
1970-01-01 00:00:00.000000087,0.7389440847068248,-2.9446831555314885,-2.7089130865265263,1.5167561658011701
1970-01-01 00:00:00.000000087,1.8135103261767276,-4.41701550833252,-2.812976365893324,1.6694896935804246
1970-01-01 00:00:00.000000087,3.3389893891166134,-5.419914922917708,-3.846628146064233,1.831464328512971
1970-01-01 00:00:00.000000087,5.023872435327724,-6.550020244865941,-5.175316412261347,2.0278924629628934
1970-01-01 00:00:00.000000087,6.81906621925074,-7.978624431974428,-6.434907728503337,2.250817549087368
1970-01-01 00:00:00.000000087,8.890460838899214,-9.357755190618487,-7.302108029503561,2.3864437113348753
1970-01-01 00:00:00.000000087,10.69369895544197,-11.196073049283747,-7.987316402651761,2.5450334435086104
1970-01-01 00:00:00.000000087,11.965489105250139,-13.654596332932924,-8.073814034983757,2.738258191621263
1970-01-01 00:00:00.000000087,12.955539547815153,-15.497178361049308,-7.024812963054078,2.74596543023491
1970-01-01 00:00:00.000000087,13.389627840466005,-16.17210524016641,-5.7490217922447115,2.6271007210666553
1970-01-01 00:00:00.000000087,13.241941307412098,-16.481079038134514,-4.2801913422442714,2.4815162449876347
1970-01-01 00:00:00.000000087,12.651637783101787,-16.70339398690822,-2.7025096457930653,2.364650817270478
1970-01-01 00:00:00.000000087,12.151605194906804,-16.53057083934528,-1.4575813251260772,2.221221711470701
1970-01-01 00:00:00.000000087,11.432911566730102,-15.755389017796306,-1.0355564749928436,2.1021431711697547
1970-01-01 00:00:00.000000087,10.326215833676905,-14.955531329658626,-1.0930421881846921,2.0732233427222426
1970-01-01 00:00:00.000000087,9.263978695380462,-13.980652944523921,-1.663278667531334,2.065369141907218
1970-01-01 00:00:00.000000087,7.995736802368662,-12.779683651036374,-2.573067313710884,2.061336131336339
1970-01-01 00:00:00.000000087,6.2433772857733345,-11.52012540538738,-3.008858574591837,2.018564753357924
1970-01-01 00:00:00.000000087,3.9179785710034736,-10.370781921935142,-2.7731938277810877,1.9600107029290104
1970-01-01 00:00:00.000000087,1.306801617418886,-9.58975696781132,-1.9661452564472734,1.9301318658889528
1970-01-01 00:00:00.000000087,-0.9036412839465042,-9.011211059405202,-1.0212829467302251,1.822172946751277
1970-01-01 00:00:00.000000087,-3.9382424145363033,-9.045052993558777,-0.44060566269825907,1.8136044600795698
1970-01-01 00:00:00.000000087,-8.45885528584637,-10.2807170137793,0.7994328067798445,1.9468283494133352
1970-01-01 00:00:00.000000087,-14.091123452087388,-10.198032210730286,2.111565613506207,1.9642132629461608
1970-01-01 00:00:00.000000087,-21.06272429479605,-5.220975837027877,2.558015596798179,1.5592847101569407
1970-01-01 00:00:00.000000087,-30.544042935097146,1.9439383894847841,2.16710927855193,1.2259058109119096
1970-01-01 00:00:00.000000087,-40.91824673581723,7.01169626594193,2.2583188369287255,1.4717342184030282
1970-01-01 00:00:00.000000087,-45.717261673428254,11.827541988092335,2.513180515668944,1.5937774042285304
1970-01-01 00:00:00.000000087,-43.21070406502682,14.854438495544137,2.6200561691253346,1.4599348998733759
1970-01-01 00:00:00.000000087,-35.57057873279866,13.784217877892274,2.5202565370079517,1.243563499759093
1970-01-01 00:00:00.000000087,-27.897175466062443,9.616763483828807,2.224189606370834,1.2907769910171676
1970-01-01 00:00:00.000000087,-21.305123513216436,6.365238970668123,2.529705620187074,1.2314361640004328
1970-01-01 00:00:00.000000087,-15.770189967566523,6.555376000498007,1.888549414967712,0.8958648343956284
1970-01-01 00:00:00.000000087,-12.373105388232583,8.817072520669143,0.8982880618322038,0.5212519636861266
1970-01-01 00:00:00.000000087,-10.268545704853306,10.938753370406904,0.7983995673395609,0.23828761908110796
1970-01-01 00:00:00.000000087,-7.560533319546819,12.267820157909785,0.6470519339287559,0.02824355020983993
1970-01-01 00:00:00.000000087,-4.1595251513292,12.357137394087598,-0.01325085033290252,-0.03378714137159333
1970-01-01 00:00:00.000000087,-0.17365281252247255,10.954090319505662,-0.6756240558665535,0.015882590921454387
1970-01-01 00:00:00.000000087,4.0103907636434055,8.69999244905559,-1.4319074415740678,0.13648643385413395
1970-01-01 00:00:00.000000087,8.037726261804256,6.159379580141805,-2.022203091487026,0.2601030194000298
1970-01-01 00:00:00.000000087,11.647249434899997,4.124064970732838,-2.3967672726160654,0.2842819670199376
1970-01-01 00:00:00.000000087,14.111407810148512,2.9009364977788303,-2.7299514010126984,0.25325007938603594
1970-01-01 00:00:00.000000087,15.176217690866954,2.4880901461254004,-2.7750508778968044,0.21751797434664144
1970-01-01 00:00:00.000000087,15.69112281853032,2.6656938419418625,-2.5582259078658143,0.13510974342196014
1970-01-01 00:00:00.000000087,15.934073883036321,2.9870638118141213,-2.5456284089707344,0.05904344466916778
1970-01-01 00:00:00.000000087,15.737490481808253,3.618689195437237,-2.2900810159460434,-0.03009849784308727
1970-01-01 00:00:00.000000087,15.513696631953358,4.089983622656572,-1.6641198639071115,-0.12208560765348697
1970-01-01 00:00:00.000000087,15.52902836092013,4.055824863227782,-1.1461990626084129,-0.14407854074992932
1970-01-01 00:00:00.000000087,16.096391448119856,3.882945834103072,-0.817596676910797,-0.17519872187205943
1970-01-01 00:00:00.000000087,16.83259978775895,3.3339231284277924,-0.8787007431108491,-0.15889835781023387
1970-01-01 00:00:00.000000087,17.326876395436837,2.504259490823254,-1.0360425297060614,-0.11659796051454596
1970-01-01 00:00:00.000000087,17.16636315524674,2.05065872678553,-1.0748719559678646,-0.09249285198385993
1970-01-01 00:00:00.000000087,16.415991785200738,2.2671897260456477,-0.8318366877671464,-0.09986732827690104
1970-01-01 00:00:00.000000087,15.803464273105352,3.2249108351467797,-0.8232716550452832,-0.16529993167902823
1970-01-01 00:00:00.000000087,15.365178301930621,4.520084525424704,-1.181816295948401,-0.2713710034362381
1970-01-01 00:00:00.000000087,14.539805294583106,5.932703139474242,-1.4704365474075787,-0.4192072518320804
1970-01-01 00:00:00.000000087,12.722651887651141,7.925282796014691,-1.5075879284213705,-0.6576641192817374
1970-01-01 00:00:00.000000087,9.117085645519188,10.322521376856542,-0.7118484960344278,-0.9379568237263175
1970-01-01 00:00:00.000000087,3.868615843795177,12.87456333528326,0.8794474916632229,-1.198223044043996
1970-01-01 00:00:00.000000087,-2.231219343866314,15.87858254203622,2.2948246371866325,-1.4489933781027875
1970-01-01 00:00:00.000000087,-9.298000845312547,18.388276314123495,3.871928726803684,-1.5063090291898549
1970-01-01 00:00:00.000000087,-15.249194102227001,21.99837649361744,5.390749540832236,-1.7006737345905203
1970-01-01 00:00:00.000000087,-19.68945047149475,27.87035138503522,5.730771247153915,-2.23224131215333
1970-01-01 00:00:00.000000087,-25.457824663113836,29.968852417600914,8.557815647589885,-2.474922057169514
1970-01-01 00:00:00.000000087,-31.29817878952821,22.157207797936394,12.573795145520979,-1.59493220256031
1970-01-01 00:00:00.000000087,-33.62720772817744,15.091442026509384,13.500337181303838,-0.39538539101770553
1970-01-01 00:00:00.000000087,-29.07840570212678,5.214545691246612,11.588127523112375,0.8245235396257201
1970-01-01 00:00:00.000000087,-21.932812910970352,-0.5262200681751088,7.401594237405932,1.5571873767013198
1970-01-01 00:00:00.000000087,-15.202362103884049,-4.984556206582419,3.6928482122400825,2.0346450778156475
1970-01-01 00:00:00.000000087,-9.987793119118425,-8.200990157569445,1.661114845057602,2.111215197415694
1970-01-01 00:00:00.000000087,-9.051030276907804,-9.59586155175279,2.0035691003544294,2.1916598695611915
1970-01-01 00:00:00.000000087,-7.953898513385139,-11.07149249123689,2.7510301130308044,2.2565586503686696
1970-01-01 00:00:00.000000087,-6.287903017984491,-13.355777836543153,4.002901826577408,2.3412596866062163
1970-01-01 00:00:00.000000087,-3.7134646225128964,-15.361508521620884,5.750319778366629,2.2576315829202587
1970-01-01 00:00:00.000000088,-0.984781160512493,-17.658749816642068,9.001934619900679,1.9881736039334417
1970-01-01 00:00:00.000000088,1.0210989900011394,-20.96244467605531,13.514206810611137,1.762525696056011
1970-01-01 00:00:00.000000088,2.9318462892410233,-24.536422219436368,17.672483484014627,1.7680325281068794
1970-01-01 00:00:00.000000088,7.137817415943511,-31.67245530790401,16.99134719860631,2.4500306247657964
1970-01-01 00:00:00.000000088,12.191418093390611,-35.37006454112305,10.84369743120513,3.009779014532458
1970-01-01 00:00:00.000000088,12.994917900840921,-33.72074417352585,7.387026572823315,3.039724017615262
1970-01-01 00:00:00.000000088,11.605883548664723,-30.54777895512236,7.648269223976455,2.732196771145004
1970-01-01 00:00:00.000000088,10.137335120776381,-27.868656484782196,9.816873604536985,2.3073980544098864
1970-01-01 00:00:00.000000088,9.04951612308888,-26.978291986391447,11.334972246127974,2.1223829666412213
1970-01-01 00:00:00.000000088,8.494048956892405,-27.407512761528693,12.115091427176708,2.011834552274964
1970-01-01 00:00:00.000000088,5.2698532117981705,-23.704803362362227,9.842245500164008,1.7853283525202173
1970-01-01 00:00:00.000000088,-1.7820354186196032,-16.52549864905451,5.3472164504485304,1.9321395341845928
1970-01-01 00:00:00.000000088,-6.856903269834594,-11.078859460753232,1.1873993633024502,2.055668967036384
1970-01-01 00:00:00.000000088,-11.594847158439501,-7.8981768230368266,-2.0819036730361438,2.2948817392604974
1970-01-01 00:00:00.000000088,-16.07490579804224,-5.450935917845233,-4.177819691882462,2.395546031609778
1970-01-01 00:00:00.000000088,-21.53130718056027,-0.6127054641942524,-3.804840513199932,2.0676778040106036
1970-01-01 00:00:00.000000088,-27.13432083040969,6.380589204178202,-0.8301733449381861,1.1728846914705877
1970-01-01 00:00:00.000000088,-34.421993383654886,11.785534180273967,1.2870804031371703,0.765558264180032
1970-01-01 00:00:00.000000088,-40.46602729228854,18.035765987521813,1.03827655394474,0.7225499609098476
1970-01-01 00:00:00.000000088,-40.953952093755696,24.979174846081293,-0.954586083362991,0.5607472388685975
1970-01-01 00:00:00.000000088,-35.86394465967809,26.737010801516657,-2.7270448599018784,0.5211106286024496
1970-01-01 00:00:00.000000088,-27.579929281473323,23.70102272001177,-3.394719208844302,0.5585748537573945
1970-01-01 00:00:00.000000088,-18.883152907900634,18.66092054267905,-2.9600558750164296,0.5491575219416432
1970-01-01 00:00:00.000000088,-11.859257396245445,14.339463081233797,-2.33115826768802,0.4827385827946741
1970-01-01 00:00:00.000000088,-7.154887073369067,11.231412241396777,-1.5043877617966293,0.48004299949466345
1970-01-01 00:00:00.000000088,-2.8608682011596747,9.542768623806403,-0.9032101134935849,0.3809527861049019
1970-01-01 00:00:00.000000088,1.1022515586252855,9.404049898323802,-2.4015760055825384,0.3048207175017188
1970-01-01 00:00:00.000000088,3.9580599061664157,10.001177769898463,-4.054742898272455,0.25223492062049546
1970-01-01 00:00:00.000000088,6.339637225987335,10.703689970470364,-4.500542166237951,0.09989141600369245
1970-01-01 00:00:00.000000088,8.475311282955415,10.464856605931987,-3.7434904170216763,-0.07033232017351465
1970-01-01 00:00:00.000000088,10.357043526473339,9.642279949819043,-2.778857533222144,-0.1855933053469947
1970-01-01 00:00:00.000000088,12.030831838512665,8.098475471429026,-2.0638895477298793,-0.2004842967323024
1970-01-01 00:00:00.000000088,13.299420895909215,6.314022965574096,-1.1486950686742934,-0.16158832439831805
1970-01-01 00:00:00.000000088,14.654464336697488,4.648755583681199,-0.18226632186712288,-0.12536028219648054
1970-01-01 00:00:00.000000088,16.41749742645323,3.507735828580688,0.03286241302506987,-0.1493520649270772
1970-01-01 00:00:00.000000088,17.48595713306029,2.989914273050295,0.24935395859702458,-0.20891379056520365
1970-01-01 00:00:00.000000088,17.929725730168258,3.294629712469061,1.0243746377865293,-0.3982109164250369
1970-01-01 00:00:00.000000088,17.441555227674577,3.741609677594047,1.4352829756192085,-0.49783004371483375
1970-01-01 00:00:00.000000088,16.470802354732093,3.785631043999709,1.5350651653616625,-0.46797160722942066
1970-01-01 00:00:00.000000088,15.523337994582153,3.49007890484898,1.2811268835968337,-0.34932376181201685
1970-01-01 00:00:00.000000088,14.827520868525726,3.2035329373500607,0.5623942421801069,-0.18830721605094625
1970-01-01 00:00:00.000000088,14.453898842349643,2.6884721500073105,-0.16332059832955836,-0.033380129942709225
1970-01-01 00:00:00.000000088,14.17046467396499,2.3339695207430005,-0.5232959891828906,0.004227310709784993
1970-01-01 00:00:00.000000088,13.023128429798993,2.839412890943659,-0.7049631287190377,-0.07334530478689882
1970-01-01 00:00:00.000000088,10.360908328687078,4.738949672549425,-0.10193734841808944,-0.30735020692651505
1970-01-01 00:00:00.000000088,6.31042389231321,8.159726276344648,0.5001527298847863,-0.6591830785582429
1970-01-01 00:00:00.000000088,0.5818281753322121,13.243964198361581,0.7763654649133862,-1.0518593093235467
1970-01-01 00:00:00.000000088,-6.474630850345541,17.87621362048607,1.1606213638455056,-1.2736825368920868
1970-01-01 00:00:00.000000088,-13.653572534453241,20.247507384826847,2.144115188979443,-1.2354361614815481
1970-01-01 00:00:00.000000088,-19.539366120531565,22.079509622400852,4.503512591160295,-1.291640775332876
1970-01-01 00:00:00.000000088,-23.118648938488164,26.569111069073525,7.1205834214263195,-1.9505769282112886
1970-01-01 00:00:00.000000088,-28.218883300824224,27.200241816814895,9.665992361581951,-1.9417545169246133
1970-01-01 00:00:00.000000088,-31.507015342864637,20.133467068522577,13.40725942487986,-1.1623167499422653
1970-01-01 00:00:00.000000088,-30.108247092211375,14.58554580444623,12.762188881325153,-0.4901917651495379
1970-01-01 00:00:00.000000088,-28.005401726182143,7.517581454984417,10.263152174357842,0.536880089580033
1970-01-01 00:00:00.000000088,-24.21999700643251,1.8336020855668995,8.287368431770359,1.1988319844606887
1970-01-01 00:00:00.000000088,-20.46098644363374,-2.2656801766128334,6.990440451507051,1.5946576541402422
1970-01-01 00:00:00.000000088,-17.007258557675144,-4.875486284831101,6.586004328202457,1.756834441824647
1970-01-01 00:00:00.000000088,-13.686125975441165,-6.463072452739029,6.49105347104684,1.7676785314294707
1970-01-01 00:00:00.000000088,-10.770128915031187,-8.513286276495982,6.536623052689156,1.8530987646145092
1970-01-01 00:00:00.000000088,-7.781866568626506,-10.707191725614534,6.186234238598441,1.972882595417127
1970-01-01 00:00:00.000000088,-5.111480414630989,-12.090665820306695,4.481925884258356,2.173385001654077
1970-01-01 00:00:00.000000088,-2.528333451097266,-12.692775330651044,2.873774728392358,2.274951736474814
1970-01-01 00:00:00.000000088,-0.24633561868960174,-13.608128040379539,2.6161318492274015,2.2748811452740645
1970-01-01 00:00:00.000000088,1.6971098478140458,-14.971132323388183,3.7673346369554537,2.1708178173497306
1970-01-01 00:00:00.000000088,3.0289389239337425,-15.94336899032117,5.020979049350206,2.0247048191653985
1970-01-01 00:00:00.000000088,3.4741997201246733,-16.60640760043206,6.442522510351611,1.9080643101842347
1970-01-01 00:00:00.000000088,3.670442975123465,-17.792249003515657,7.814515947972469,1.8988479688545425
1970-01-01 00:00:00.000000088,4.151661308871496,-19.594354641347707,8.23936893804804,2.069220897248005
1970-01-01 00:00:00.000000088,5.367116469287056,-21.673145077710384,7.730626614486707,2.320726687220228
1970-01-01 00:00:00.000000088,7.040889127892605,-23.871744369401874,6.94636774052395,2.5676469403453446
1970-01-01 00:00:00.000000088,8.736096030936938,-26.136728612180747,6.7985266636198896,2.7513941812804736
1970-01-01 00:00:00.000000088,10.475237367793842,-28.279246047660987,7.4045342890304005,2.779107261261181
1970-01-01 00:00:00.000000088,11.251603359255238,-29.51537485916855,8.261438955698415,2.690470883485712
1970-01-01 00:00:00.000000088,10.526306846753645,-29.280233325925003,9.509959338791797,2.48767761203404
1970-01-01 00:00:00.000000088,8.561675101220514,-27.5469998396038,10.511388292883254,2.249178937853201
1970-01-01 00:00:00.000000088,6.03807379717629,-24.68091915344674,10.605367758986606,2.066426095149281
1970-01-01 00:00:00.000000088,3.8887939168119106,-21.23497141863599,9.686387084577348,1.9156007112162157
1970-01-01 00:00:00.000000088,2.1029088115209933,-17.98463393813017,8.105758736197156,1.8518975145003904
1970-01-01 00:00:00.000000088,0.8857113309782273,-15.590941876554291,6.428301827070328,1.8632644098355184
1970-01-01 00:00:00.000000088,0.2664097787933476,-13.379649702998421,4.549537620538657,1.815817772112322
1970-01-01 00:00:00.000000088,-1.0291469805374875,-11.324498771732763,2.744315260143473,1.7673459650838463
1970-01-01 00:00:00.000000088,-3.716051608996777,-10.697872292082689,1.2309192450386153,1.8548973220714053
1970-01-01 00:00:00.000000088,-8.507609883507218,-10.141707784478797,-0.13315031407996947,1.959656256081607
1970-01-01 00:00:00.000000088,-16.692897568410217,-7.7798823716628025,-1.7276222080153631,2.172606304530796
1970-01-01 00:00:00.000000088,-25.85897569285046,0.12270800380057811,-1.4748250481171543,1.7569674156844988
1970-01-01 00:00:00.000000088,-34.31817718635897,12.074031608225352,-1.36162095720148,0.7649762481140587
1970-01-01 00:00:00.000000088,-44.82829069358439,17.797153542522906,-0.3679326720840116,0.8368286028505412
1970-01-01 00:00:00.000000088,-49.83229814930153,20.962249381409674,1.9405741524495193,1.1109605655834272
1970-01-01 00:00:00.000000088,-44.153751357344944,25.280053914114504,0.8599089467972476,0.7740100216946748
1970-01-01 00:00:00.000000088,-34.49263206348979,25.106648337283147,-3.465590551322746,0.8131812529904636
1970-01-01 00:00:00.000000088,-24.71820242210734,20.9497487608242,-6.580556264217584,1.0506105725581874
1970-01-01 00:00:00.000000088,-16.338161731597967,15.61574257345748,-6.6302542140648,1.1509077697843215
1970-01-01 00:00:00.000000088,-9.439758044089242,10.92452881202432,-4.6870794260353845,1.041556496331672
1970-01-01 00:00:00.000000088,-3.966920102566603,8.163296320438931,-3.1041293196508652,0.8063077956270239
1970-01-01 00:00:00.000000088,-0.299386900903259,7.088249838935152,-2.270634205429662,0.6009611799228413
1970-01-01 00:00:00.000000088,2.3437555183463097,7.080221950509478,-3.092221607250688,0.5488458772056717
1970-01-01 00:00:00.000000089,4.761527156859769,6.610120960101856,-3.686971055057649,0.5186848351280724
1970-01-01 00:00:00.000000089,6.6659301798074955,6.1497662267470545,-3.699274624799294,0.48079612097535873
1970-01-01 00:00:00.000000089,8.50717045608681,5.493596916926258,-4.38341405966543,0.541269381280915
1970-01-01 00:00:00.000000089,10.449593157154654,4.807495801655238,-4.272759714774097,0.5320516402190775
1970-01-01 00:00:00.000000089,12.697030626934449,3.919657663984052,-3.370230303016441,0.45342203606942033
1970-01-01 00:00:00.000000089,15.412601741801325,2.0798657058879204,-1.4168538866958291,0.28537710884571765
1970-01-01 00:00:00.000000089,17.66648008972388,0.5144746975147134,0.8929336647540669,0.047947400506549775
1970-01-01 00:00:00.000000089,19.0445157808361,-0.3492375080558543,2.1158741999906523,-0.13255673501734
1970-01-01 00:00:00.000000089,19.199198249505365,-0.5953556059157471,2.8342015441008863,-0.26001824165118714
1970-01-01 00:00:00.000000089,18.24461673044392,0.07923228363397739,2.9621636260369746,-0.3149104590445704
1970-01-01 00:00:00.000000089,16.91513617838556,0.9834617787238022,2.143050873588062,0.024699557354865176
1970-01-01 00:00:00.000000089,15.926795620375016,1.6769856326646064,1.1029598515961665,0.14989358394570296
1970-01-01 00:00:00.000000089,15.45555215674304,1.6094138151478896,0.20112863143558557,0.30203590667120306
1970-01-01 00:00:00.000000089,15.404899232445848,1.2240787604376095,-0.47559541872661026,0.4173124658502547
1970-01-01 00:00:00.000000089,15.335464154578084,1.1968185477768394,-1.0360991059445297,0.43685168795971796
1970-01-01 00:00:00.000000089,14.470628781685845,1.6536989583113733,-1.435403513000955,0.4067052234016726
1970-01-01 00:00:00.000000089,12.650382118329103,3.6351204732663684,-1.5377285984445104,0.1916016760865935
1970-01-01 00:00:00.000000089,9.31816171456177,7.285702749763361,-1.5421197151176667,-0.2269658536158361
1970-01-01 00:00:00.000000089,3.0775113418051836,12.233939918780777,-0.9444175612961896,-0.6992483897130499
1970-01-01 00:00:00.000000089,-5.715079864654969,18.509392813155166,0.02156331595798866,-1.2086777272347944
1970-01-01 00:00:00.000000089,-16.78049213212074,24.06090863823427,1.3178696939885,-1.4284624582350816
1970-01-01 00:00:00.000000089,-27.460725871308103,29.516470567044728,4.692248569605878,-1.7631333116736931
1970-01-01 00:00:00.000000089,-35.946636935960825,36.42588245536477,10.664927468761453,-2.4187059879999278
1970-01-01 00:00:00.000000089,-39.981619123790686,25.829560075350585,15.982997434497312,-1.2293788312160492
1970-01-01 00:00:00.000000089,-36.076321537733875,19.533401846264884,14.437165529831077,-0.24801500210396688
1970-01-01 00:00:00.000000089,-27.687658153523618,5.860723211855106,11.108905308996002,1.2867523980273803
1970-01-01 00:00:00.000000089,-17.598586750276564,-6.164118868551024,8.008034070687023,2.335431192033885
1970-01-01 00:00:00.000000089,-9.552880998539996,-12.504487307502469,5.145459954784234,2.772680327682668
1970-01-01 00:00:00.000000089,-4.721564667971005,-15.595789529358047,3.7806336131445937,2.853531745619582
1970-01-01 00:00:00.000000089,-2.994626449852754,-16.096392967067448,2.6670846182168413,2.9734590077082643
1970-01-01 00:00:00.000000089,-0.6742687742032092,-15.87268960231565,2.8647820578578935,2.7793376272160075
1970-01-01 00:00:00.000000089,0.8915080173297194,-16.62862703284571,5.269630206555507,2.496601375297343
1970-01-01 00:00:00.000000089,1.889196943678253,-17.38377976571762,7.131694037941505,2.3107052101775407
1970-01-01 00:00:00.000000089,2.498985224487704,-19.069411812156414,7.825123647238907,2.39679931443461
1970-01-01 00:00:00.000000089,3.3308811815211925,-20.318800372622356,7.568183227392241,2.539760255004549
1970-01-01 00:00:00.000000089,4.481825562982871,-20.765176585131734,6.788845155867756,2.665094419768631
1970-01-01 00:00:00.000000089,6.342915671045672,-21.923763444745667,5.897839962225819,2.800338245501739
1970-01-01 00:00:00.000000089,8.204094874648344,-23.68397480246432,4.820295444766678,2.901845014880137
1970-01-01 00:00:00.000000089,8.159711607327047,-24.035074613776054,4.758618654488529,2.8983039498411616
1970-01-01 00:00:00.000000089,7.283607864641535,-23.258920958107165,4.916527037805572,2.821825627777624
1970-01-01 00:00:00.000000089,6.126055254596185,-21.730231243754687,4.713171377624322,2.7318931970812326
1970-01-01 00:00:00.000000089,4.9419132475913266,-19.66784618038708,3.6285766009332168,2.694112321862779
1970-01-01 00:00:00.000000089,3.986750853398664,-17.838037267943644,2.2219752063257263,2.6880630375314976
1970-01-01 00:00:00.000000089,2.954758406755047,-16.589137023589437,0.9847770003628802,2.718957907553915
1970-01-01 00:00:00.000000089,1.7124241782166147,-15.809545223006305,0.37612094943689744,2.6982627979535527
1970-01-01 00:00:00.000000089,-0.5247878247042785,-15.192429990019575,0.4966426419942379,2.6756368303179867
1970-01-01 00:00:00.000000089,-3.4796213113316887,-14.306002579892937,1.36329231203695,2.5893387338259015
1970-01-01 00:00:00.000000089,-6.968403390330795,-12.831160403652714,1.8007290464399794,2.440333431982805
1970-01-01 00:00:00.000000089,-12.246939766382354,-9.945488648845753,-0.05376838827287611,2.454848785158905
1970-01-01 00:00:00.000000089,-19.360524742305206,-4.038743286277425,-3.0941857009024947,2.4642187817773133
1970-01-01 00:00:00.000000089,-26.37897061217457,5.343978736326262,-5.794686719123766,1.988962325363926
1970-01-01 00:00:00.000000089,-34.82266469965221,13.824548555396973,-5.863976327128643,1.4514885769239867
1970-01-01 00:00:00.000000089,-43.73350436983711,18.281352284746,-1.170154087995633,1.2790944625022296
1970-01-01 00:00:00.000000089,-45.717450281776756,21.81773777703583,4.81559059553738,0.8451817404916293
1970-01-01 00:00:00.000000089,-39.66132664235759,23.794022965293475,5.18755543757702,0.5026129864086434
1970-01-01 00:00:00.000000089,-30.66525155474341,22.356473228482464,1.2339971616371446,0.6763050207009981
1970-01-01 00:00:00.000000089,-21.32090092410082,18.044566259647752,-1.4058200174593067,0.9367798139976403
1970-01-01 00:00:00.000000089,-12.77301282423751,13.228608617479727,-1.5593447975655474,0.9638879782726244
1970-01-01 00:00:00.000000089,-6.115035677442512,9.16342446485533,-0.1609314642598843,0.839098837478351
1970-01-01 00:00:00.000000089,-1.1722835973809795,6.679710220169388,0.9600535491040897,0.6529841057627699
1970-01-01 00:00:00.000000089,2.056215992717477,5.697925599500479,1.0915514098524675,0.5159913234630885
1970-01-01 00:00:00.000000089,3.9825233872866708,5.9293889247761395,0.026942475344954753,0.5092347717377357
1970-01-01 00:00:00.000000089,5.832998937617406,6.253834349740667,-1.7558455952525114,0.5569516793062272
1970-01-01 00:00:00.000000089,7.293539574953778,5.82367001364858,-2.7852420517361365,0.6433372505216178
1970-01-01 00:00:00.000000089,8.704068079683724,5.681450996742764,-3.749494823651119,0.7246942483140034
1970-01-01 00:00:00.000000089,10.532591616797381,5.0010454568121965,-4.5255796284380345,0.8142911979272411
1970-01-01 00:00:00.000000089,12.691909669789807,3.406038169346725,-3.63189331201556,0.7857751134463195
1970-01-01 00:00:00.000000089,14.816258681614748,2.1878618702476533,-1.5596630412837533,0.5928588053863677
1970-01-01 00:00:00.000000089,16.831194679192958,1.663820817059652,-0.7314203129262389,0.43434630726965884
1970-01-01 00:00:00.000000089,18.338603338641917,1.4753788319417542,-0.9486067661457633,0.3399153180381209
1970-01-01 00:00:00.000000089,18.7663962693605,1.504783297642876,-1.0475867207345628,0.2920881175989367
1970-01-01 00:00:00.000000089,18.658250519229995,1.6296418213547395,-0.8603630767480863,0.23768065963697027
1970-01-01 00:00:00.000000089,18.146581951398694,2.0770835151041434,-0.6006787152949036,0.17217251433265157
1970-01-01 00:00:00.000000089,17.48091438664149,2.848543300730203,0.2889679780587413,0.023252627182430707
1970-01-01 00:00:00.000000089,16.804082065137422,3.5155742340496623,1.3348027523190913,-0.14701776540429257
1970-01-01 00:00:00.000000089,15.849434996097747,4.334889923313119,1.763635239259482,-0.26445820283112687
1970-01-01 00:00:00.000000089,14.538377666698647,5.877226254807913,1.6341212670897822,-0.4272359660683296
1970-01-01 00:00:00.000000089,12.065353118615345,8.346981674863118,0.8544016905284184,-0.5588049770858374
1970-01-01 00:00:00.000000089,8.641313866006795,12.179771313587347,-0.12678327573066372,-0.7566608825930929
1970-01-01 00:00:00.000000089,4.482313748159289,16.367837047577627,-0.16655687967385058,-1.0447004117812109
1970-01-01 00:00:00.000000089,-0.19829567795407899,19.647095661114783,1.0250142146430843,-1.3396383598284995
1970-01-01 00:00:00.000000089,-5.318624438830047,20.92138184010315,3.159576712618575,-1.592554080442543
1970-01-01 00:00:00.000000089,-12.466925090234259,20.54201409142702,5.845357095815147,-1.632176556799124
1970-01-01 00:00:00.000000089,-21.399269874322194,22.438533367230114,9.640599613193888,-1.7853330287661042
1970-01-01 00:00:00.000000089,-29.164953555152966,30.711334435220294,14.113780071854297,-2.693522422887402
1970-01-01 00:00:00.000000089,-35.70428768203877,34.89159203717681,17.805557980331702,-3.1003315501694972
1970-01-01 00:00:00.000000089,-40.59243766466028,25.143722784281536,21.16835761282987,-1.7680120303956435
1970-01-01 00:00:00.000000089,-37.87367177503077,17.235275335795222,19.236449763442355,-0.6742958875801974
1970-01-01 00:00:00.000000089,-33.10880417416893,9.098361416569022,13.605436134492834,0.6670183856743581
1970-01-01 00:00:00.000000089,-27.159401932153884,0.3613274134162365,9.05117036971198,1.8399819882002706
1970-01-01 00:00:00.000000089,-21.07060784920838,-6.011310796997299,5.857374305064237,2.559050938631253
1970-01-01 00:00:00.000000090,-15.564294657627313,-8.953574005195122,4.311080794170387,2.682883467556006
1970-01-01 00:00:00.000000090,-11.995789955832192,-10.269849332298593,4.50714514850938,2.5594858819186177
1970-01-01 00:00:00.000000090,-9.759228868739308,-10.897810472350635,5.816385710098951,2.3231280243273664
1970-01-01 00:00:00.000000090,-8.5836723164823,-11.3633107619101,6.642991683420845,2.238038619743384
1970-01-01 00:00:00.000000090,-7.258116022255045,-12.169741158220539,6.536228683265177,2.311098835309953
1970-01-01 00:00:00.000000090,-5.3112449886675845,-13.898829100957599,6.406054173826076,2.4478465282769375
1970-01-01 00:00:00.000000090,-2.9103572004354,-15.795844864254171,5.980033713419173,2.548902317112285
1970-01-01 00:00:00.000000090,-1.1530231066406853,-17.316140201218815,5.5776981211784475,2.610703252006335
1970-01-01 00:00:00.000000090,-0.4057301133262925,-19.094297322541266,7.263458804511929,2.5510739187362628
1970-01-01 00:00:00.000000090,-0.2980782170643921,-21.69521118375559,10.570365924283628,2.5183140630776624
1970-01-01 00:00:00.000000090,0.07485926726368686,-24.147629804182515,13.915195985823054,3.437525804602066
1970-01-01 00:00:00.000000090,1.8071580669948388,-26.340099058860687,16.840620163250414,3.3275114955920255
1970-01-01 00:00:00.000000090,3.629550439929829,-28.796256353907008,17.520336853086864,3.4760073716338
1970-01-01 00:00:00.000000090,6.113400171733826,-29.925303805379222,14.44199356134428,3.8401405938722046
1970-01-01 00:00:00.000000090,9.004308756722041,-30.442802840591664,9.157632853948718,4.283866577758049
1970-01-01 00:00:00.000000090,11.127562620418553,-31.331853892956147,5.0126124929110185,4.604710367337603
1970-01-01 00:00:00.000000090,11.313436050786711,-30.846491006273364,3.8536657175991396,4.546008967410051
1970-01-01 00:00:00.000000090,9.426296167206841,-29.223592799972195,5.586172358719039,4.269276593289804
1970-01-01 00:00:00.000000090,7.457494896087696,-26.782508899057685,7.380993661731976,3.964399109434612
1970-01-01 00:00:00.000000090,6.457627234438006,-24.469464118618625,7.38533986401076,3.7861170815136336
1970-01-01 00:00:00.000000090,5.9228826009294275,-22.523498697185527,5.892706273017833,3.712220061995435
1970-01-01 00:00:00.000000090,4.566654229001623,-20.895898633111567,3.7368315797498033,3.794861028744332
1970-01-01 00:00:00.000000090,2.6992659340137317,-19.156863896962477,1.5106468800911643,3.8398625780677387
1970-01-01 00:00:00.000000090,-0.7168528023894865,-16.43571538948453,-0.5456546218981355,3.867074138576986
1970-01-01 00:00:00.000000090,-5.074711044096256,-13.431503374556996,-1.5673734267784867,3.829021772175625
1970-01-01 00:00:00.000000090,-9.892045548992742,-10.757805637020859,-2.5663578145876027,3.805518160800643
1970-01-01 00:00:00.000000090,-15.880318525551964,-9.30035504426503,-3.2453937863458115,3.98079671428532
1970-01-01 00:00:00.000000090,-21.93265058013866,-7.225582703449403,-0.6830765620634247,3.8841253436912644
1970-01-01 00:00:00.000000090,-25.460110383722206,0.6246884745575241,3.2173930340595818,2.6375883529080615
1970-01-01 00:00:00.000000090,-31.96257786815459,8.57196507781332,3.5324820429828505,1.8924881102393245
1970-01-01 00:00:00.000000090,-41.19266980477277,12.587208875499236,2.17846237557447,2.3103652367531584
1970-01-01 00:00:00.000000090,-45.12827364738328,20.812069112928476,-0.6846033502097303,2.34870219846054
1970-01-01 00:00:00.000000090,-42.161287342759415,25.915773032048616,-3.3356369727584805,2.2636443442624463
1970-01-01 00:00:00.000000090,-34.0548354283232,24.41547065602408,-3.375927010629439,2.103297364367736
1970-01-01 00:00:00.000000090,-25.15916963959102,19.133321230877694,-1.233005763960253,1.9387054080447739
1970-01-01 00:00:00.000000090,-17.750264819961107,12.952239194709628,2.352808000738708,1.8417196339796151
1970-01-01 00:00:00.000000090,-10.72212157665252,9.511873682153047,4.443558439775941,1.5543957293776665
1970-01-01 00:00:00.000000090,-5.574522825196908,8.336041165353729,3.590960815142961,1.426590365250889
1970-01-01 00:00:00.000000090,-2.107308164961898,8.388015755139484,1.8391615418255263,1.3722564692402701
1970-01-01 00:00:00.000000090,0.12735365369597718,9.311151166020538,-0.26283224324579146,1.377035610946984
1970-01-01 00:00:00.000000090,2.0425455669413033,9.834301495679298,-2.3643963411978772,1.4608751586947224
1970-01-01 00:00:00.000000090,4.027458855059343,9.599624729027386,-3.691233457389626,1.5331635496198848
1970-01-01 00:00:00.000000090,5.963642400726111,8.869477076940212,-3.7849961194417236,1.530385934024616
1970-01-01 00:00:00.000000090,7.891879748813873,8.167956349802575,-2.711961766092906,1.410891034591047
1970-01-01 00:00:00.000000090,9.965900826814373,7.5169699091148185,-1.336346023680859,1.2472319054217544
1970-01-01 00:00:00.000000090,12.21703216370401,6.7876288083660175,-0.12198326122145109,1.0937023879670114
1970-01-01 00:00:00.000000090,14.55221497654542,6.334113570294891,0.3779036242289584,0.9497725873166512
1970-01-01 00:00:00.000000090,16.441019272917504,6.629152293132615,0.22109581893996455,0.7778065372213585
1970-01-01 00:00:00.000000090,17.230716932315488,7.610644659058876,0.04932980192326619,0.5905845965358887
1970-01-01 00:00:00.000000090,17.012449114800575,8.784277018442449,0.28683234997399243,0.42593545033580416
1970-01-01 00:00:00.000000090,16.44602482476175,9.640330915260357,0.770639723747339,0.31710300300531635
1970-01-01 00:00:00.000000090,16.02475818394082,10.108864352946679,0.6246468505642331,0.3219866542702676
1970-01-01 00:00:00.000000090,15.935955832600861,9.770688983511814,-0.18349238930115241,0.43015339560561827
1970-01-01 00:00:00.000000090,15.590949631576022,10.065847763199532,-1.462831800369041,0.49019895251039314
1970-01-01 00:00:00.000000090,14.22574567707161,11.118790260925454,-2.45137658261328,0.49874232432728194
1970-01-01 00:00:00.000000090,12.091820262144422,12.524548500675682,-3.3412767113017745,0.4408373873167002
1970-01-01 00:00:00.000000090,8.317500104963676,14.894791575390485,-4.162322304462769,0.3365738153975468
1970-01-01 00:00:00.000000090,2.8401496976296023,17.431223915550635,-4.2450256285098975,0.024989873203093982
1970-01-01 00:00:00.000000090,-7.61487007511849,19.37413347090427,-0.8274903388768207,-0.20403354838472199
1970-01-01 00:00:00.000000090,-20.216855443135344,21.657711083209172,5.140117763181277,-0.33963003114244517
1970-01-01 00:00:00.000000090,-29.404053007456945,32.06982348375831,10.296427652785171,-1.4482852203452206
1970-01-01 00:00:00.000000090,-37.86034691585236,25.66919888608139,12.93010476983392,-0.240460646261341
1970-01-01 00:00:00.000000090,-38.38729771411453,20.292642660818785,12.110497353111317,0.5818783557719505
1970-01-01 00:00:00.000000090,-37.25527516221245,15.425375619087205,9.496546427232701,1.4763332792670194
1970-01-01 00:00:00.000000090,-33.95988456816761,7.863592566551339,9.217349694187593,2.282148060556171
1970-01-01 00:00:00.000000090,-28.9629431180412,0.32457680159343766,9.304848439626745,2.906551843646339
1970-01-01 00:00:00.000000090,-23.196468836488066,-5.140505565028394,8.723071534234904,3.2361994404976957
1970-01-01 00:00:00.000000090,-18.610054464416887,-9.293935319825636,7.792374722250362,3.627059151428356
1970-01-01 00:00:00.000000090,-13.141390537051127,-13.881910363910825,7.334883672877308,3.940169718522707
1970-01-01 00:00:00.000000090,-7.287037658519742,-16.35129952850351,5.540829422699948,4.005802590049925
1970-01-01 00:00:00.000000090,-3.50094935557233,-17.60982172472057,4.7608659209838695,3.9167897578904296
1970-01-01 00:00:00.000000090,-2.0011179410843067,-19.281176963091642,5.585260519724847,3.912165312954267
1970-01-01 00:00:00.000000090,-0.8142300553050956,-21.488624617135876,8.534499773204958,3.7869397175953825
1970-01-01 00:00:00.000000090,0.4044405790450898,-25.01656142928258,11.616359627102963,3.812267696517531
1970-01-01 00:00:00.000000090,2.173748112021668,-27.463769917913794,12.101974214155192,3.9709865080602436
1970-01-01 00:00:00.000000090,4.456996386415497,-28.864312236088885,11.027858273388121,4.1272165035122415
1970-01-01 00:00:00.000000090,6.634364282534008,-29.905019706842406,9.617839916968983,4.263434200516892
1970-01-01 00:00:00.000000090,8.347687193954556,-31.0267879916895,8.698251341739923,4.361873131512249
1970-01-01 00:00:00.000000090,9.393075757797202,-31.810521769849398,8.742680608933375,4.34680901334051
1970-01-01 00:00:00.000000090,9.664690687942711,-32.431972485731904,9.779452407974368,4.259231901296403
1970-01-01 00:00:00.000000090,9.460540072906065,-32.22946102564853,10.67580872563797,4.107661005028031
1970-01-01 00:00:00.000000090,8.560870550447437,-30.78206750090338,10.448790890126023,3.960957304438032
1970-01-01 00:00:00.000000090,6.757841493996473,-28.211379619115085,9.366527187392217,3.845102458528821
1970-01-01 00:00:00.000000090,4.329342284340038,-25.316551728714277,7.806073655953083,3.7973739264316677
1970-01-01 00:00:00.000000090,1.6798253462007,-21.840173533271596,5.64280504624006,3.7612714421277382
1970-01-01 00:00:00.000000090,-1.2311422491360988,-17.986144743507467,3.181651518639903,3.7208783012306013
1970-01-01 00:00:00.000000090,-4.549908389130871,-14.373547340805185,1.1739731576620391,3.6965642558250957
1970-01-01 00:00:00.000000090,-7.913504202827864,-11.63035876574378,-0.01510156927557893,3.6375656626381714
1970-01-01 00:00:00.000000090,-12.133640973118503,-11.019039556046039,-0.45461574987165476,3.726742777738899
1970-01-01 00:00:00.000000090,-17.758136348477052,-10.30706969830844,-1.1828841280686628,3.893063249604946
1970-01-01 00:00:00.000000090,-24.668130315037992,-3.895690653253733,-2.357104062954731,3.594050970724843
1970-01-01 00:00:00.000000090,-32.299240432670615,7.816855167556055,-4.515492464610774,2.6716804311662927
1970-01-01 00:00:00.000000090,-44.50155659095222,16.597937595911507,-4.414035062891837,2.5204124535116423
1970-01-01 00:00:00.000000090,-52.30352465205734,23.23825788681086,0.24734373128750714,2.372188142506652
1970-01-01 00:00:00.000000091,-48.29656537390409,27.51490902241793,4.022199482090622,1.7904854327063586
1970-01-01 00:00:00.000000091,-36.99915055909221,25.78585413549272,2.2236107021789553,1.6744213216868902
1970-01-01 00:00:00.000000091,-25.230076065663475,20.451917717938972,-2.2359454412050965,1.9995896989955029
1970-01-01 00:00:00.000000091,-16.29925117578308,14.329842675939872,-3.9302191876361547,2.310353342374463
1970-01-01 00:00:00.000000091,-9.139283165384391,9.69776008707758,-2.1360470703311183,2.2058104638572487
1970-01-01 00:00:00.000000091,-3.368960473425074,7.09179133233924,-0.4109400541194801,1.9105752030580676
1970-01-01 00:00:00.000000091,0.3372132194684274,6.474402603198613,-0.015537673778062921,1.655451099929526
1970-01-01 00:00:00.000000091,2.320185049695616,7.100520806173737,-0.12513528573762822,1.50198071129187
1970-01-01 00:00:00.000000091,4.233310076458616,7.973909717945373,-1.3788644866845818,1.4642130235063877
1970-01-01 00:00:00.000000091,6.35668988221907,8.048822379841363,-2.750425053256018,1.4674860889730936
1970-01-01 00:00:00.000000091,8.432119886786976,7.609820969428032,-3.1170855195713214,0.5053721745256317
1970-01-01 00:00:00.000000091,10.544517099558227,6.925053515780329,-3.4021742541044957,0.46985532611433445
1970-01-01 00:00:00.000000091,12.56032615016882,6.242088498602493,-2.616154799288112,0.3397691543531969
1970-01-01 00:00:00.000000091,14.173959436924596,5.765531220586097,-1.0798100525753165,0.14169009735157512
1970-01-01 00:00:00.000000091,15.640525134818025,5.611788671631231,-0.10418240583630056,-0.046019329621320715
1970-01-01 00:00:00.000000091,16.635420313915585,5.643968316537369,0.6580904980749325,-0.20942361221765893
1970-01-01 00:00:00.000000091,17.165291990612868,5.980278301958835,1.3275482809413168,-0.3699127913429756
1970-01-01 00:00:00.000000091,17.250776507855647,6.3508390075651056,1.4630062585539807,-0.4673456009992052
1970-01-01 00:00:00.000000091,16.725714836320893,6.706656480710699,1.3879022784284634,-0.5005538753924035
1970-01-01 00:00:00.000000091,15.801455319258963,7.460498236170455,1.4919675235608119,-0.5324137882188862
1970-01-01 00:00:00.000000091,15.17599819377895,8.252811587953772,1.4212365497754258,-0.565019732625482
1970-01-01 00:00:00.000000091,14.808028592638419,8.981224377825313,0.747229059620242,-0.5737262715937652
1970-01-01 00:00:00.000000091,14.141458647239347,10.034566710720078,-0.20173184263832855,-0.5976865211856868
1970-01-01 00:00:00.000000091,12.819836358202393,11.512521377087884,-0.6335442453839417,-0.7197822531180647
1970-01-01 00:00:00.000000091,10.362518932874368,13.199064414182748,-0.2584088391976689,-0.9072973876413271
1970-01-01 00:00:00.000000091,6.662055312506499,15.20137881569562,0.9956665968965179,-1.1545032215181565
1970-01-01 00:00:00.000000091,1.9180072281020877,17.267555937531185,2.420799283336098,-1.4513142835867263
1970-01-01 00:00:00.000000091,-5.15386998110555,18.93598996786336,3.2792725233949684,-1.5840409832769289
1970-01-01 00:00:00.000000091,-15.292744907311839,21.321165162728832,4.186550816275967,-1.467217315111549
1970-01-01 00:00:00.000000091,-25.180910385230245,25.96678764665225,6.488917736893136,-1.5159253220673046
1970-01-01 00:00:00.000000091,-30.73228870966229,34.56388798685545,9.296014769814184,-2.3973967089004606
1970-01-01 00:00:00.000000091,-35.63171956573833,34.138585067315404,11.633878116960572,-2.2998057675442762
1970-01-01 00:00:00.000000091,-39.60789928176627,21.40447546503978,14.295261022503098,-0.687209398582574
1970-01-01 00:00:00.000000091,-37.04060818852625,15.826796296603387,12.3827132984678,0.07327879548982419
1970-01-01 00:00:00.000000091,-34.03825350294517,9.422667357414475,10.041640850290422,0.9529626728011946
1970-01-01 00:00:00.000000091,-29.944446043426996,0.9840586903262456,9.890425996112386,1.8391326887115471
1970-01-01 00:00:00.000000091,-23.451598670547643,-5.914642423225786,8.688301340124038,2.4256431996209558
1970-01-01 00:00:00.000000091,-16.886787411049585,-10.630292605212757,6.742821699446347,2.735928195094358
1970-01-01 00:00:00.000000091,-12.103243652499321,-14.029090509214383,6.44205195323169,2.8021684580617627
1970-01-01 00:00:00.000000091,-9.233332477277576,-15.82820207484579,6.519530106539399,2.7831522231336843
1970-01-01 00:00:00.000000091,-7.624276960259414,-16.107658092544995,5.55996834240876,2.851231967455027
1970-01-01 00:00:00.000000091,-5.796966923545244,-15.960571342362392,4.467610220003326,2.851688961488404
1970-01-01 00:00:00.000000091,-4.254978322696295,-16.45214942437956,4.441126324541006,2.8035717014221184
1970-01-01 00:00:00.000000091,-3.232616863440642,-17.167208597054106,5.523055061435663,2.7085844775709953
1970-01-01 00:00:00.000000091,-2.3221785688342935,-17.853779203078943,7.140063827224629,2.570495667827842
1970-01-01 00:00:00.000000091,-1.3909732529165508,-19.579703305620473,9.063794854086147,2.5335081160677326
1970-01-01 00:00:00.000000091,-0.06094206282982362,-22.720738280126618,10.659869001648834,2.695278216378595
1970-01-01 00:00:00.000000091,2.2242031112633107,-25.72008600460181,10.662812443629129,2.9327309611812984
1970-01-01 00:00:00.000000091,4.822132935872268,-27.81836209580979,9.139288724650216,3.1752624656591424
1970-01-01 00:00:00.000000091,6.949377474391452,-29.34886417070725,7.624809533481725,3.3597650050010963
1970-01-01 00:00:00.000000091,8.333997039093976,-30.251590412463365,6.829948780179103,3.4213557520240268
1970-01-01 00:00:00.000000091,8.769497294211815,-30.379603850776334,6.848280646381415,3.3648963965048724
1970-01-01 00:00:00.000000091,8.393119897868747,-30.196717994950845,7.624624235665122,3.2654254989842384
1970-01-01 00:00:00.000000091,7.808919981592354,-29.872993414994358,8.825362314479426,3.143963655802273
1970-01-01 00:00:00.000000091,7.510895233672083,-28.779120617822734,9.005141847353325,3.0001597815811873
1970-01-01 00:00:00.000000091,6.86634414581748,-26.634904974155532,7.341825856124501,2.922291720784606
1970-01-01 00:00:00.000000091,5.321218752437323,-24.36907683841849,5.218393113966469,2.9295365073914263
1970-01-01 00:00:00.000000091,3.0186412105380054,-21.83587140353489,3.2990864805785596,2.953075220222522
1970-01-01 00:00:00.000000091,0.4309046921116173,-19.533354161550918,1.7730387571274282,3.0031743159200595
1970-01-01 00:00:00.000000091,-1.863761357220728,-17.035160529083903,0.6024903911179498,2.9457447207055103
1970-01-01 00:00:00.000000091,-4.5578838706631775,-15.561111723669828,-0.15092979689838404,2.9203845250034948
1970-01-01 00:00:00.000000091,-8.489573037920826,-15.507879643634082,-0.8206185410068707,3.045196802586676
1970-01-01 00:00:00.000000091,-14.36922714648064,-14.073205209458465,-1.9273373652949153,3.161945571659277
1970-01-01 00:00:00.000000091,-21.821058417591694,-7.01993877838734,-2.268768088598975,2.559638847400567
1970-01-01 00:00:00.000000091,-32.8615960248481,6.457886590903905,-2.9063726289739606,1.4049146878900463
1970-01-01 00:00:00.000000091,-49.11039908767246,16.257854427402457,-1.3283151990883788,1.281618402070643
1970-01-01 00:00:00.000000091,-59.05908693042406,23.478159851659786,3.515839156285142,1.2063420525450042
1970-01-01 00:00:00.000000091,-56.29125424649912,29.791533054296654,5.145043905672222,0.7122714853597265
1970-01-01 00:00:00.000000091,-45.87271899051814,30.144081258036262,3.6511949405510937,0.5594196776840151
1970-01-01 00:00:00.000000091,-32.03591755219673,24.86901730222278,0.9575758787479236,0.6959991834797467
1970-01-01 00:00:00.000000091,-19.506111848811344,17.320963806635373,-1.295068309700513,1.0177191627560709
1970-01-01 00:00:00.000000091,-9.307508470189076,11.545274473301914,-2.1761512442919875,1.0642701891342297
1970-01-01 00:00:00.000000091,-2.410358547566392,8.33179445700936,-2.5306678016901043,0.9315064101915866
1970-01-01 00:00:00.000000091,1.2148232012613016,6.805312647297561,-2.0097426199940633,0.7621226492156378
1970-01-01 00:00:00.000000091,3.0279029103547845,7.149882683755333,-2.244147274419462,0.6676237641911722
1970-01-01 00:00:00.000000091,4.860717940096011,7.383080693877648,-3.690672909550482,0.6888628455574564
1970-01-01 00:00:00.000000091,6.38222519822202,7.136058507102802,-3.7112588272815805,0.6580185038524144
1970-01-01 00:00:00.000000091,8.061031601524945,7.046775851298768,-3.757038573651557,0.6174965936887873
1970-01-01 00:00:00.000000091,10.12768951784226,6.627278786366211,-3.4783933529079842,0.5483618159777349
1970-01-01 00:00:00.000000091,12.438849420160736,5.791032601577206,-2.008300733875629,0.37313664052878415
1970-01-01 00:00:00.000000091,14.773562515729033,5.045048872117186,-0.1812790458352549,0.12435787602852555
1970-01-01 00:00:00.000000091,16.669924830416406,4.390500220296317,0.5789797710339109,-0.01667773121812899
1970-01-01 00:00:00.000000091,17.936953684882532,3.4575285446128987,1.0228043324805012,-0.08200216835804541
1970-01-01 00:00:00.000000091,18.29053664277877,3.2400649089341873,1.3140316306221063,-0.13650340793669558
1970-01-01 00:00:00.000000091,18.198851565642666,4.35692906631045,0.7887547640162806,-0.23730179440260013
1970-01-01 00:00:00.000000091,17.450238500855537,6.766849527773992,0.352176644143968,-0.36723241277645013
1970-01-01 00:00:00.000000091,17.563308759251132,9.381101043380152,0.25310748766349955,-0.6112975089385744
1970-01-01 00:00:00.000000091,18.186350724266898,10.784488857989837,0.4933357372703764,-0.8426071322353101
1970-01-01 00:00:00.000000091,18.48346760355369,11.790273078659823,1.0571323749519115,-1.1153371232688003
1970-01-01 00:00:00.000000091,17.372104807973237,12.634428230238868,2.380782350844426,-1.4063682497787908
1970-01-01 00:00:00.000000091,14.610844310464564,14.35927120038543,4.2439731604447815,-1.8030405763312043
1970-01-01 00:00:00.000000091,9.723711714470129,16.96982916386246,6.610427964859928,-2.338209345638994
1970-01-01 00:00:00.000000091,1.0569118628454541,20.2991364730756,8.210602139948552,-2.572008524916779
1970-01-01 00:00:00.000000091,-9.571899961711978,17.386421919877794,8.605396124447935,-1.9178715345869577
1970-01-01 00:00:00.000000091,-21.55495240097208,16.429599606269534,12.8054374627892,-1.3815956844570065
1970-01-01 00:00:00.000000091,-27.822379269403818,20.052517390470044,17.731165311931562,-1.7618790228506023
1970-01-01 00:00:00.000000091,-30.814016231922686,18.906661171741185,18.354317194682352,-1.4872637153586945
1970-01-01 00:00:00.000000092,-32.84597070334728,10.959071305685839,15.367136003636274,-0.07892125085984958
1970-01-01 00:00:00.000000092,-31.92832008199296,5.924057470361184,15.744148292081679,0.5757663125575877
1970-01-01 00:00:00.000000092,-28.568083854005412,-1.6856409248772644,14.7987465636257,1.4820733528015506
1970-01-01 00:00:00.000000092,-22.94344872784831,-8.135431749645953,11.622939618213664,2.274727887316023
1970-01-01 00:00:00.000000092,-17.14826635204289,-11.925156545442524,8.31648289826423,2.765022356682441
1970-01-01 00:00:00.000000092,-11.408553973380496,-13.84438540717451,6.921508205048098,2.6638682950677475
1970-01-01 00:00:00.000000092,-9.031821087468423,-13.151906485425204,7.535581600878304,2.4143475548205156
1970-01-01 00:00:00.000000092,-6.9544641438334365,-11.882986968044301,6.413297749927688,2.6812013981779192
1970-01-01 00:00:00.000000092,-4.091131540910131,-12.309158605526624,5.878040693413538,2.9502328139757394
1970-01-01 00:00:00.000000092,-1.881050956777352,-13.666812709141364,6.34128364427088,2.9241034128662684
1970-01-01 00:00:00.000000092,-0.17327986778900817,-15.30540909876917,6.8509931444211265,2.9164709376007556
1970-01-01 00:00:00.000000092,0.6949832813223191,-16.832329188934043,7.3824350237917695,2.969051832712851
1970-01-01 00:00:00.000000092,1.3197418798766918,-18.244450082646434,7.647781417760058,3.072493627115882
1970-01-01 00:00:00.000000092,2.084103661973547,-19.219294253024245,7.406192045225357,3.188341050577884
1970-01-01 00:00:00.000000092,3.125361515089235,-20.234812320358067,6.761086231974626,3.355933328803347
1970-01-01 00:00:00.000000092,4.708913974274193,-22.09080406125532,5.922970553477664,3.6032293241669637
1970-01-01 00:00:00.000000092,6.74259774996012,-24.901040525009567,4.974975520448542,3.8986513938971536
1970-01-01 00:00:00.000000092,8.454998991229514,-28.309843687388277,4.078814925248031,4.2393408993377335
1970-01-01 00:00:00.000000092,9.517990975880881,-31.06388827360415,4.553878222118012,4.365939810757908
1970-01-01 00:00:00.000000092,9.511609226687174,-31.34789031082887,6.193146461032949,4.1098195418874655
1970-01-01 00:00:00.000000092,7.5701365183663,-30.004842774384596,7.985383570161212,3.8250313262598388
1970-01-01 00:00:00.000000092,5.086410626416506,-27.565487640943562,9.12958688993141,3.5349393854060542
1970-01-01 00:00:00.000000092,2.2708468183471258,-24.376250580103996,8.400535408974207,3.4069411923576385
1970-01-01 00:00:00.000000092,-0.3587313116920199,-20.832690541055094,6.445456633181325,3.3645964507255295
1970-01-01 00:00:00.000000092,-2.8404546605642316,-17.323764049454773,3.909423665850431,3.371329117826857
1970-01-01 00:00:00.000000092,-5.40192175562041,-14.999945601790152,1.7679755372141208,3.4718190846994332
1970-01-01 00:00:00.000000092,-7.948489289212584,-14.299656124500407,-0.0489730866905107,3.6444334051027916
1970-01-01 00:00:00.000000092,-11.621182602778259,-15.247556468730588,-1.4970355868666947,3.922632305733389
1970-01-01 00:00:00.000000092,-17.55774283771415,-13.917500787459712,-1.4041200149450497,3.8850427551304825
1970-01-01 00:00:00.000000092,-25.506409484839423,-3.103770410286291,0.5069895657460575,2.5462526268516235
1970-01-01 00:00:00.000000092,-39.5665778603895,9.477494490161662,1.9546330705205068,1.6271091119614627
1970-01-01 00:00:00.000000092,-54.693278505834705,18.695395883841865,4.967377577498187,1.7365037969649877
1970-01-01 00:00:00.000000092,-57.08156710028157,29.12635553776179,5.992722686123641,1.2381907319525474
1970-01-01 00:00:00.000000092,-49.605877833730226,33.00698612194149,4.62691743405545,0.8869646136357197
1970-01-01 00:00:00.000000092,-37.93646474108427,28.50126147157744,3.37303975029191,1.0503817147967232
1970-01-01 00:00:00.000000092,-24.718351363681734,21.20161956953509,1.8697017827121656,1.2994238064280255
1970-01-01 00:00:00.000000092,-12.962067192343897,13.337784951052052,0.7542264281184976,1.58091526560818
1970-01-01 00:00:00.000000092,-3.470675141160264,7.32323349541316,-0.6009288369698679,1.691483913202209
1970-01-01 00:00:00.000000092,1.9628390862546536,4.627134783099456,-2.241689668308668,1.7283019105140327
1970-01-01 00:00:00.000000092,4.439715194259911,5.737083716488555,-5.547014139147902,1.7518819005592996
1970-01-01 00:00:00.000000092,5.352472868717443,6.739134855185079,-6.8126827955911935,1.6890548593469192
1970-01-01 00:00:00.000000092,5.493606513295672,7.73743984022429,-5.627538875098794,1.5220179301893617
1970-01-01 00:00:00.000000092,6.787089226519778,8.297506657211036,-5.5051010057362735,1.432731243772258
1970-01-01 00:00:00.000000092,8.86604078378793,8.320981242893382,-5.234446941360759,1.339003151747747
1970-01-01 00:00:00.000000092,11.574098508836864,7.397929991632895,-3.796023320281885,1.1508331058056465
1970-01-01 00:00:00.000000092,14.276236255359816,6.786530378636455,-0.6447808588080643,0.7484287141130721
1970-01-01 00:00:00.000000092,16.87073510896203,6.264698301814763,1.563248202727609,0.3845864071772802
1970-01-01 00:00:00.000000092,18.441823143208428,5.0597344475024375,2.80189300959388,0.2363511184797431
1970-01-01 00:00:00.000000092,18.988026271073227,4.062499789836108,3.802231065392469,0.11279796252749641
1970-01-01 00:00:00.000000092,17.964358691521138,4.693035282814402,3.923621160744616,0.02600543617097406
1970-01-01 00:00:00.000000092,16.131159677311466,6.826105098951545,3.562192527510563,-0.08246277144611103
1970-01-01 00:00:00.000000092,14.243870617411641,8.573392429487132,3.467167122649688,-0.13937406294053023
1970-01-01 00:00:00.000000092,12.863954809836386,9.38867058943911,3.03449987627008,-0.04592067404300382
1970-01-01 00:00:00.000000092,12.640591335864825,9.270159968305133,1.813776019579309,0.15049850838222234
1970-01-01 00:00:00.000000092,13.115239706810728,8.228785493981551,0.7605895915532255,0.33405350121094624
1970-01-01 00:00:00.000000092,13.300510207340208,6.995461974700063,1.3105565578609717,0.35889579148278994
1970-01-01 00:00:00.000000092,12.804489705967578,6.653233059033353,2.3789827068069975,0.2622142666051117
1970-01-01 00:00:00.000000092,11.715922482046109,7.463674803754159,3.743820710482022,-0.05573024692396178
1970-01-01 00:00:00.000000092,8.333787265935477,9.474493567538813,3.8126834014168893,-0.256887846676519
1970-01-01 00:00:00.000000092,2.8270162458872594,12.73873596055634,2.5897155685367923,-0.33762101091318053
1970-01-01 00:00:00.000000092,-4.551817595612438,15.403828499994539,1.7920880815878055,-0.2748921538015514
1970-01-01 00:00:00.000000092,-13.177919879714388,15.98293835675735,2.864967451794728,-0.11462616260209302
1970-01-01 00:00:00.000000092,-22.538593549143048,17.435176006277835,8.861701990695309,-0.3688092009635362
1970-01-01 00:00:00.000000092,-29.865254414115427,23.00453960538629,17.388712089620483,-1.2039603091047044
1970-01-01 00:00:00.000000092,-31.84958079945708,26.623163858962208,18.56929494886708,-1.8008124633879055
1970-01-01 00:00:00.000000092,-37.51729191353125,20.74788542694166,15.409252370141887,-0.33943920035154074
1970-01-01 00:00:00.000000092,-38.175426037495924,19.74373885138143,13.154515227882577,0.21148639848174322
1970-01-01 00:00:00.000000092,-36.74524953643916,16.91605434499383,11.845649567325314,0.7840989056622387
1970-01-01 00:00:00.000000092,-32.44706373120963,8.73994697596956,12.178241602418284,1.610938728581892
1970-01-01 00:00:00.000000092,-25.23054637328307,0.3210514841601175,10.475411175944167,2.3713204056908337
1970-01-01 00:00:00.000000092,-18.0639459298526,-6.205902413399201,7.523514638321324,2.9319028769840836
1970-01-01 00:00:00.000000092,-13.092202395188277,-9.854613528706755,5.185287175964111,3.2173965517782013
1970-01-01 00:00:00.000000092,-10.32759356918668,-10.927524056619921,3.9203779177724694,3.280478987756761
1970-01-01 00:00:00.000000092,-8.665428797309737,-11.405834645155922,3.4476179587682294,3.289773634196091
1970-01-01 00:00:00.000000092,-7.341551814185271,-11.855224334246309,2.840093997313788,3.3697323255483775
1970-01-01 00:00:00.000000092,-5.501801007449456,-12.168946618311086,2.5011957298877143,3.3608110784603498
1970-01-01 00:00:00.000000092,-3.5938840911943557,-13.41569080544292,3.2328342643646684,3.314346509257329
1970-01-01 00:00:00.000000092,-1.9245502067899567,-15.305402824033724,4.534631712573194,3.277383137768739
1970-01-01 00:00:00.000000092,-0.6402552548273881,-17.124448891945296,5.657958526633777,3.282270923686996
1970-01-01 00:00:00.000000092,0.43475110074572276,-19.410517632901556,6.624448132127419,3.3896675890349877
1970-01-01 00:00:00.000000092,1.7126066034175444,-22.47560557401401,7.1860626631895155,3.624211764306704
1970-01-01 00:00:00.000000092,3.3800136607471014,-25.16151904470685,6.6685575947591165,3.884900029681698
1970-01-01 00:00:00.000000092,4.9057905749079715,-26.95527197262522,5.545129055752563,4.099761859210932
1970-01-01 00:00:00.000000092,5.928767446133143,-28.355552770866232,5.075198355867903,4.2354777759875315
1970-01-01 00:00:00.000000092,6.627522674634121,-29.028358897778443,5.101520495665048,4.275968197103257
1970-01-01 00:00:00.000000092,7.311901462179923,-29.70822715899676,5.1177653372420515,4.3191100176203765
1970-01-01 00:00:00.000000092,8.069501783427729,-30.273172367968517,5.148745637036127,4.312140467478756
1970-01-01 00:00:00.000000092,8.355354106723686,-30.182470237986138,5.1333234008986866,4.245175304137609
1970-01-01 00:00:00.000000092,7.902047082639597,-29.9710785085127,5.633431736373297,4.141574455047889
1970-01-01 00:00:00.000000092,6.716826851754998,-28.302771631066562,5.7032113419703485,3.9627490046114455
1970-01-01 00:00:00.000000092,4.754657743049218,-25.883269881486484,5.173760145624329,3.8246704799257953
1970-01-01 00:00:00.000000092,2.4335201174258136,-22.80322546491396,4.230602294040478,3.69717981920562
1970-01-01 00:00:00.000000092,0.04319382576543407,-19.58026429436056,2.776055170298547,3.6242741771221842
1970-01-01 00:00:00.000000092,-2.2313625854832693,-17.288118148590428,1.2986796382516206,3.6355514589910394
1970-01-01 00:00:00.000000092,-4.581719217040767,-16.20215062269323,0.5350701573828109,3.6839264721896603
1970-01-01 00:00:00.000000092,-7.235037186574555,-15.1020278666518,0.7161354085590719,3.549920249271163
1970-01-01 00:00:00.000000093,-11.881579115166328,-13.217178662168509,1.1360089884491962,3.400879534534675
1970-01-01 00:00:00.000000093,-18.34118116614481,-9.005386667373148,1.4625166240940772,3.181772689356235
1970-01-01 00:00:00.000000093,-24.993736103998994,0.6632305216271817,-0.30656825937560306,2.50001111828319
1970-01-01 00:00:00.000000093,-33.97114848784422,13.22003187244871,-2.932438506093518,1.7774847870980894
1970-01-01 00:00:00.000000093,-44.211724066135716,22.23816380244472,-1.6587376371925329,1.6041480629883695
1970-01-01 00:00:00.000000093,-46.656911373700815,28.830642450115956,2.7667739584523066,1.5563007318114987
1970-01-01 00:00:00.000000093,-31.925188039651186,25.670392075767758,2.34284424048627,0.7987175826699169
1970-01-01 00:00:00.000000093,-25.654538110180916,22.914068681954852,1.634145621018288,1.30473524828406
1970-01-01 00:00:00.000000093,-12.029603054897223,14.322336668903745,-0.03303814110207626,2.0185446145563124
1970-01-01 00:00:00.000000093,-6.124608518259711,10.406364194902446,-0.15883261431824314,2.046375626064501
1970-01-01 00:00:00.000000093,-2.7362451019045166,8.885798312711033,-0.01914072624153218,1.9529624733063506
1970-01-01 00:00:00.000000093,-0.7897541547229827,8.96262142525668,-0.40553581724242505,1.8691057950394845
1970-01-01 00:00:00.000000093,0.6502708306584997,10.0525573573158,-2.982749151207509,1.9435346457284357
1970-01-01 00:00:00.000000093,1.821781022734983,10.684684248563993,-5.150434239066241,2.0676501307943767
1970-01-01 00:00:00.000000093,3.2057135533261483,10.500528874059569,-6.512363783433614,2.182693870739462
1970-01-01 00:00:00.000000093,4.7797179519459485,9.993543017125186,-7.269440247560185,2.2620955101241442
1970-01-01 00:00:00.000000093,6.607139889249839,8.98242048741692,-6.85523500159475,2.284236266581356
1970-01-01 00:00:00.000000093,9.133501772515505,6.3583491986368275,-4.745365739993063,2.221886207949531
1970-01-01 00:00:00.000000093,11.688543311559945,3.2790665766428053,-0.9335812773526928,2.0258135137935156
1970-01-01 00:00:00.000000093,14.26033298133732,1.4979512178450074,1.8601740985966697,1.7796449764739306
1970-01-01 00:00:00.000000093,16.51408355426121,0.2875695920215866,2.7802352263116883,1.6296176027236806
1970-01-01 00:00:00.000000093,17.550380752860317,-0.3597172020809343,3.080032042999542,1.5769487931181043
1970-01-01 00:00:00.000000093,17.96092656166062,-0.6422992511308286,3.238264731752064,1.538698073413233
1970-01-01 00:00:00.000000093,17.858658023837148,-0.4342550845218859,2.901223208236596,1.4990701478413961
1970-01-01 00:00:00.000000093,16.759961860729632,0.30896052760037884,1.9863104491973866,1.5608079417379614
1970-01-01 00:00:00.000000093,15.58865908918106,1.7591686082728126,0.9621381986340762,1.6087870224964067
1970-01-01 00:00:00.000000093,15.031128066453208,2.7575952377716293,0.06042425592828571,1.6785084725429795
1970-01-01 00:00:00.000000093,15.33086553621933,3.0389008392530474,-1.2376852608783828,1.7870032287281843
1970-01-01 00:00:00.000000093,15.821641260563187,3.1572577462658646,-3.1133959754395995,1.9181724921953884
1970-01-01 00:00:00.000000093,15.73058834255377,2.745059439572878,-4.036004946343683,2.024718655066744
1970-01-01 00:00:00.000000093,15.057962937670892,2.3752215179528227,-3.942863180088662,1.898169055230064
1970-01-01 00:00:00.000000093,11.359948901691759,4.728308791128068,-3.8289136700755844,1.5512965469918203
1970-01-01 00:00:00.000000093,3.5940369593832595,10.894689368152479,-3.33223238630361,1.0754747040694985
1970-01-01 00:00:00.000000093,-6.105569042841953,17.432825253333327,-2.886839655776814,0.7241050321022664
1970-01-01 00:00:00.000000093,-16.573125871743176,22.219666089568797,-1.684364701948712,0.6364982452858143
1970-01-01 00:00:00.000000093,-25.447640927586573,29.207823510418343,1.368657048555773,0.15407540088123417
1970-01-01 00:00:00.000000093,-30.804293095338867,39.33818801875821,7.584724339985131,-1.2967796295902114
1970-01-01 00:00:00.000000093,-36.04577106357887,36.841779904412704,15.087427039399872,-1.5155350265873846
1970-01-01 00:00:00.000000093,-39.975953062021624,26.551257074215535,19.937193397643767,-0.4782149495631933
1970-01-01 00:00:00.000000093,-39.1063493493688,20.59287350263197,17.26750710020822,0.6375072564806956
1970-01-01 00:00:00.000000093,-34.93067491413287,12.044889003430965,12.87405981456152,2.0125358459978386
1970-01-01 00:00:00.000000093,-27.930907796687464,3.2505100909117717,9.213488393860514,3.065404551240735
1970-01-01 00:00:00.000000093,-20.55307447281519,-3.3439716438212486,6.0772717246643415,3.6735954073659856
1970-01-01 00:00:00.000000093,-15.028223211546313,-7.638153729496524,4.772438916665648,4.0043256571017904
1970-01-01 00:00:00.000000093,-9.754411957593957,-9.93979961584642,4.974958462046903,3.8726402359930434
1970-01-01 00:00:00.000000093,-6.537075458494804,-10.834584164117267,5.578291292840065,3.69187591382186
1970-01-01 00:00:00.000000093,-4.46993508351833,-12.135821105634259,5.597058154320542,3.749224611754978
1970-01-01 00:00:00.000000093,-1.9612369796595188,-14.059988718469837,6.814875843352614,3.6678490379728714
1970-01-01 00:00:00.000000093,-0.30068140472560334,-16.712013223241158,7.6764506860103525,3.787623948194974
1970-01-01 00:00:00.000000093,1.4843695705962237,-19.551404466836892,8.312256521131514,3.94402487036834
1970-01-01 00:00:00.000000093,3.2673621058460363,-22.49200006935518,8.688382696540371,4.1180183286221155
1970-01-01 00:00:00.000000093,4.666691359744984,-25.115815414093262,8.39085827711816,4.342315458960481
1970-01-01 00:00:00.000000093,5.6440781285530885,-26.465248203099705,7.284558693713509,4.527330436246853
1970-01-01 00:00:00.000000093,6.0521328257653835,-26.712072416358968,6.526040106386078,4.612483437815999
1970-01-01 00:00:00.000000093,6.367854844923671,-26.90253416623912,6.776697051063385,4.600958722010122
1970-01-01 00:00:00.000000093,6.781587753841347,-27.904330535473722,7.696799808949774,4.598485057953458
1970-01-01 00:00:00.000000093,7.284048125526237,-29.38092524898669,8.420362833144662,4.674666350169018
1970-01-01 00:00:00.000000093,8.112167338971261,-30.48367950731817,8.299968365805324,4.74754154133128
1970-01-01 00:00:00.000000093,8.595865691575282,-30.86812155215399,7.489082940049335,4.802318627097674
1970-01-01 00:00:00.000000093,8.238548929180727,-30.28594961519153,6.324923801174874,4.817777640826469
1970-01-01 00:00:00.000000093,6.825620429231822,-28.793588298245382,5.342789451443488,4.819670899860784
1970-01-01 00:00:00.000000093,5.322897535700602,-26.71465675263916,4.856669072594231,4.722677805081717
1970-01-01 00:00:00.000000093,3.888404748632208,-24.33349851810138,3.9559210135110927,4.594338807127738
1970-01-01 00:00:00.000000093,1.869397224757947,-22.08644413454011,2.6565573937636633,4.510892553797824
1970-01-01 00:00:00.000000093,-1.3523589403825245,-19.947360387034028,1.5742613455555368,4.485956337733481
1970-01-01 00:00:00.000000093,-5.47050957953839,-17.696908983904965,0.8938762677097862,4.38836936135184
1970-01-01 00:00:00.000000093,-11.524358445149879,-14.839114950525703,-0.15953488951709272,4.263147111513001
1970-01-01 00:00:00.000000093,-21.052736172387526,-9.914893682035887,-1.6570172864178097,4.24396711262482
1970-01-01 00:00:00.000000093,-31.533781664196045,1.5036274101772986,-0.9632899691433526,3.4236702688499627
1970-01-01 00:00:00.000000093,-41.97320936488271,16.91154793257698,0.5469022953012893,2.0769077869501706
1970-01-01 00:00:00.000000093,-53.1528438954208,23.602898830948433,5.974384003825262,1.8806355052239396
1970-01-01 00:00:00.000000093,-53.94144016385528,27.02428263366959,11.16902793862021,1.5908764496077499
1970-01-01 00:00:00.000000093,-44.90279386348301,29.515577659563355,9.30221572035323,1.2689374804899907
1970-01-01 00:00:00.000000093,-33.50161902960989,25.062126040122077,5.656608376497759,1.5693108540748149
1970-01-01 00:00:00.000000093,-22.58789437439508,18.515048035706233,2.7794330570600367,1.9387416563760307
1970-01-01 00:00:00.000000093,-13.940724327887194,12.752958746309554,1.796871986486451,2.168565155313179
1970-01-01 00:00:00.000000093,-6.883348839090628,8.654437336679925,1.5757098001022962,2.1851802239803297
1970-01-01 00:00:00.000000093,-1.9114017635743201,6.751051334200874,0.33149460642784623,2.1485663471802177
1970-01-01 00:00:00.000000093,0.618711617050601,6.263718629233153,-1.4855854840610467,2.1989445572468793
1970-01-01 00:00:00.000000093,1.9016870736925078,7.108699545068192,-3.2029547861020466,2.1953480533316103
1970-01-01 00:00:00.000000093,2.5426975890214623,8.036909918108798,-4.378452910193662,2.17425717807925
1970-01-01 00:00:00.000000093,2.88353770815477,8.800478622273172,-4.852663410722638,2.1552695980843355
1970-01-01 00:00:00.000000093,3.645719259384602,9.529718647656631,-5.939753414927821,2.2047911994595784
1970-01-01 00:00:00.000000093,5.1519176705543455,9.45989489912645,-6.812708757657823,2.3151262868672706
1970-01-01 00:00:00.000000093,7.968062955501137,7.4795122006636605,-6.66131446992741,2.3787505827347855
1970-01-01 00:00:00.000000093,10.83037515218024,5.539801456429157,-4.239914992745469,2.197069849480779
1970-01-01 00:00:00.000000093,13.705707084513946,4.8190920544644475,-1.8424254026593032,1.899163749659404
1970-01-01 00:00:00.000000093,16.86127940347797,4.582145522135951,-0.2491093710304948,1.5698763642205233
1970-01-01 00:00:00.000000093,19.390978472074842,3.8147851795490864,0.5324205211779285,1.386509685509414
1970-01-01 00:00:00.000000093,20.92655745609539,2.389818433121211,1.5972275502665214,1.3217127168370117
1970-01-01 00:00:00.000000093,22.038778974853173,1.644176174157656,2.0265869954521296,1.2166607933963836
1970-01-01 00:00:00.000000093,21.663792861355805,1.9651132423935875,1.082796300198665,1.2233671429951982
1970-01-01 00:00:00.000000093,20.092463686752467,4.3362910076413606,-0.8686772529165951,1.219725169517404
1970-01-01 00:00:00.000000093,18.000902132826464,7.405013934796953,-2.7468121580726423,1.2325458697200793
1970-01-01 00:00:00.000000093,16.669333569157413,9.995656924665335,-4.398679322255623,1.188648470586135
1970-01-01 00:00:00.000000093,15.296622593581061,11.938825270774768,-5.3064273032213904,1.0551285405853421
1970-01-01 00:00:00.000000094,12.659507845441794,14.239029429627811,-4.238453821347244,0.6692896334646936
1970-01-01 00:00:00.000000094,7.705797411349875,17.891386312208482,-2.005408890123215,0.12517201086490948
1970-01-01 00:00:00.000000094,0.45139951150067636,21.85620267635462,0.37021546437282815,-0.27878019888739347
1970-01-01 00:00:00.000000094,-7.732366054265144,24.047353163278455,2.5724936421019398,-0.34790670203943197
1970-01-01 00:00:00.000000094,-15.47586649967143,22.212218241154353,5.876998381371424,-0.09175178231357917
1970-01-01 00:00:00.000000094,-22.064866599843455,20.79075118066644,10.214674487703663,-0.038116122777712036
1970-01-01 00:00:00.000000094,-27.418650032310214,26.015372905463703,13.546522055250742,-0.577010799188999
1970-01-01 00:00:00.000000094,-30.944463645700473,29.3583865281036,14.025490265317416,-0.824042729202358
1970-01-01 00:00:00.000000094,-35.04658365853904,21.48387360181433,14.464525356798678,0.3837308240765176
1970-01-01 00:00:00.000000094,-34.8794525951962,16.02022960866499,13.330723256029202,1.2318673319230262
1970-01-01 00:00:00.000000094,-31.993666073372257,10.930671686686242,10.333348410535113,0.7280964572622309
1970-01-01 00:00:00.000000094,-27.401940566650374,2.9145159514054404,8.726293847960811,1.5731620419510992
1970-01-01 00:00:00.000000094,-21.82189755607285,-5.063347237150752,7.95197924599531,2.262487445258191
1970-01-01 00:00:00.000000094,-16.232650205662797,-10.366204389049646,6.985832759338099,2.6125009536979125
1970-01-01 00:00:00.000000094,-11.861958181670731,-12.986379870314362,6.003296653009667,2.7026447097138577
1970-01-01 00:00:00.000000094,-9.093778382923533,-14.14404003913602,6.475188942225095,2.5707332871306727
1970-01-01 00:00:00.000000094,-7.6911623359974595,-14.749728995245313,7.4797769781805155,2.4499412421796123
1970-01-01 00:00:00.000000094,-6.572219327710733,-15.495953433180777,7.581478867955427,2.520184659277261
1970-01-01 00:00:00.000000094,-4.534939148522492,-16.185821404885683,6.425344752365722,2.6400518623083737
1970-01-01 00:00:00.000000094,-2.2691333532340043,-17.330937978965434,4.843115965686195,2.791317151068008
1970-01-01 00:00:00.000000094,-0.6066231140868941,-18.924968638165236,4.66332171017797,2.8898616137963473
1970-01-01 00:00:00.000000094,0.8085588715042875,-20.83761939881566,6.122166061799787,2.8803572823658747
1970-01-01 00:00:00.000000094,2.372084171725578,-22.202267311132424,8.373649777140862,2.7080878370595656
1970-01-01 00:00:00.000000094,3.7864154787623594,-23.118866272530575,9.971109650232558,2.582561055723728
1970-01-01 00:00:00.000000094,5.40057039887542,-24.28325330991136,10.57017951641946,2.584744413014432
1970-01-01 00:00:00.000000094,7.251743479418329,-25.571816380307922,9.880894007860975,2.75250981868613
1970-01-01 00:00:00.000000094,9.771396961931009,-27.237496805807094,8.382250848422494,2.991127852358611
1970-01-01 00:00:00.000000094,12.44927992803543,-29.861296612620468,6.419179663409915,3.3270579671115033
1970-01-01 00:00:00.000000094,14.593202300460522,-31.8746665680062,4.3284452305848955,3.5720974348437995
1970-01-01 00:00:00.000000094,15.153801513493137,-32.61020371558182,3.3433385703470977,3.603884789887549
1970-01-01 00:00:00.000000094,13.65103129265128,-31.78724837461597,4.5052815468731335,3.3861922784592373
1970-01-01 00:00:00.000000094,10.921287819488597,-29.736862635401543,6.707902958875736,3.0717615004122463
1970-01-01 00:00:00.000000094,8.509982630156165,-27.012719537397547,8.203421586599381,2.7365064847511777
1970-01-01 00:00:00.000000094,6.204816523012248,-23.949147892893894,7.691896860745854,2.5611455775598406
1970-01-01 00:00:00.000000094,3.8957941880547793,-20.691318371602083,5.900748852673791,2.427194316751621
1970-01-01 00:00:00.000000094,0.2390718415577482,-16.883592582472406,3.461177719336866,2.395771540876329
1970-01-01 00:00:00.000000094,-4.319230722207882,-14.21873754051007,0.9979933840644246,2.5453961098043605
1970-01-01 00:00:00.000000094,-9.522633985108639,-13.874678071330285,-1.36771340962847,2.817381372062611
1970-01-01 00:00:00.000000094,-17.806341442205827,-14.083106279968717,-2.3617913385937803,3.1781800495774917
1970-01-01 00:00:00.000000094,-28.05667639098812,-7.611735032871088,1.8568037225508065,2.590751429736092
1970-01-01 00:00:00.000000094,-36.458877186517356,6.092557894705345,6.771789349720667,0.6382210638040393
1970-01-01 00:00:00.000000094,-51.76698168422745,12.335340904711497,10.206051434703006,0.7055750160210329
1970-01-01 00:00:00.000000094,-59.37129023760747,21.678331960255736,11.008284815011082,0.718804804766466
1970-01-01 00:00:00.000000094,-54.446747163104526,32.4094127262894,5.947429274692329,0.22176042502186255
1970-01-01 00:00:00.000000094,-44.564530242319016,29.74294479699992,3.6894387491233793,0.47567482651786896
1970-01-01 00:00:00.000000094,-31.298273556625922,23.273171083703524,2.5404912426340553,0.5843491902079487
1970-01-01 00:00:00.000000094,-19.762123377971417,15.96514837035731,1.9862987093585691,0.724042224711322
1970-01-01 00:00:00.000000094,-11.023135978722458,10.264634120649271,1.8183731147527986,0.783405089955326
1970-01-01 00:00:00.000000094,-5.015332050054804,8.12747052897379,0.8072730307677604,0.7152078541353089
1970-01-01 00:00:00.000000094,-1.0835839895892896,8.05555602748957,0.10648458182307141,0.49550784579661
1970-01-01 00:00:00.000000094,0.8334593314383962,9.16666628050615,-0.3880652542835068,0.2974430578866829
1970-01-01 00:00:00.000000094,2.039673544078938,10.54585341137929,-1.4828265822745932,0.2266895905988977
1970-01-01 00:00:00.000000094,3.539856266480216,11.403638286308555,-3.315990007556814,0.24525335610921295
1970-01-01 00:00:00.000000094,4.786888606185065,11.917866312789641,-4.983417627921162,0.30045202644010827
1970-01-01 00:00:00.000000094,5.887373549297994,12.473505413133664,-5.64153269219251,0.30151962014795575
1970-01-01 00:00:00.000000094,7.6958992827365895,12.61006257665019,-4.844682326446165,0.17367546063722772
1970-01-01 00:00:00.000000094,10.433636817118067,11.970414346008758,-2.9426599322664817,-0.05023698510304331
1970-01-01 00:00:00.000000094,13.826356895775522,10.71267639633009,-0.4855842140047102,-0.31870741942332925
1970-01-01 00:00:00.000000094,17.60368111746274,9.549464870351938,2.109502669587016,-0.6874318156270112
1970-01-01 00:00:00.000000094,20.740434278413048,8.516001251257032,3.8352824409398725,-1.0090104461682425
1970-01-01 00:00:00.000000094,22.22030128069092,7.951760900978776,4.012315223180421,-1.1468432352724882
1970-01-01 00:00:00.000000094,21.941927989466848,8.420139484328505,2.7358249940892745,-1.127345488779041
1970-01-01 00:00:00.000000094,20.4085805589759,9.791387427232229,1.2543418685705094,-1.0522877021688166
1970-01-01 00:00:00.000000094,18.803028436731427,11.594124638073383,0.2782090444456129,-1.0478038743954579
1970-01-01 00:00:00.000000094,17.448307753816717,12.642713117703845,0.1500376484157524,-1.0058665813015835
1970-01-01 00:00:00.000000094,17.408137447871102,12.267560168608568,0.7812380914564008,-1.0123481838178283
1970-01-01 00:00:00.000000094,17.714034033159283,10.946752206216377,1.8087315923945635,-1.1223786020409667
1970-01-01 00:00:00.000000094,16.023166251802945,10.573689140072197,3.583454644036591,-1.4231193221961214
1970-01-01 00:00:00.000000094,10.685328262017629,13.863604360153182,4.765293581013338,-1.8912783045823722
1970-01-01 00:00:00.000000094,1.49898977811853,19.56443790973123,4.650281368990917,-2.2307705676082747
1970-01-01 00:00:00.000000094,-10.402389092819764,24.453922704103555,4.370006883254879,-2.172008511075678
1970-01-01 00:00:00.000000094,-22.239243832016392,26.05120849436199,5.949637872189621,-1.7139108298836412
1970-01-01 00:00:00.000000094,-29.810103395008813,26.372038208776413,8.213547230972122,-1.3204373224240415
1970-01-01 00:00:00.000000094,-31.705810793943815,29.157955147730906,11.730269369186612,-1.9339498621849358
1970-01-01 00:00:00.000000094,-35.54032244226909,15.297880277912645,15.783855235021601,-0.5262644503621885
1970-01-01 00:00:00.000000094,-35.4144999164931,12.134204920437,12.183214540923135,0.3140172751843783
1970-01-01 00:00:00.000000094,-33.89950696692458,9.618021413749895,7.205306209766915,1.1369147284562182
1970-01-01 00:00:00.000000094,-31.206702911024156,3.795098153911095,5.352778025884577,1.9652203044866619
1970-01-01 00:00:00.000000094,-26.47411963845007,-1.7054262904778956,5.014645456789127,2.4587934686083264
1970-01-01 00:00:00.000000094,-20.512606205472988,-6.473209516903251,5.411047787332873,2.6304168361010625
1970-01-01 00:00:00.000000094,-14.958692895977702,-9.275426137429342,6.1294493296788435,2.4480806428530175
1970-01-01 00:00:00.000000094,-12.014316688101339,-10.98222808560917,7.065152222075765,2.288643637262473
1970-01-01 00:00:00.000000094,-10.886615571195374,-12.556515120130912,7.8178777202538035,2.3733296253728944
1970-01-01 00:00:00.000000094,-8.751358888700022,-13.396971790080922,8.664254592621328,2.2777796239021026
1970-01-01 00:00:00.000000094,-6.689650263521377,-15.096870510929445,9.431848981646326,2.2813879293600885
1970-01-01 00:00:00.000000094,-4.692928935117326,-18.17368538521199,10.290514531631628,2.454356096874712
1970-01-01 00:00:00.000000094,-2.2499551227141943,-21.477238947533376,10.277439314668745,2.6914376367705284
1970-01-01 00:00:00.000000094,-0.02551315986633851,-25.448602365680475,9.713510796932727,3.067438936689953
1970-01-01 00:00:00.000000094,2.120489877666593,-28.822778102077688,9.799599026276187,3.2814754858719306
1970-01-01 00:00:00.000000094,3.5968778354095807,-30.1405473044289,10.251521998512429,3.248073276092292
1970-01-01 00:00:00.000000094,4.0444497881808275,-30.358384595455586,11.355109455606767,3.1199324989194137
1970-01-01 00:00:00.000000094,4.230433222613882,-30.797809199291297,12.824460876451264,3.067946776564711
1970-01-01 00:00:00.000000094,5.541579959609324,-30.918245078934735,12.6695529150521,3.0686641830545973
1970-01-01 00:00:00.000000094,7.243864373897687,-31.78093557307245,10.217340188829688,3.339673533035425
1970-01-01 00:00:00.000000094,8.855514790698475,-33.6463110845721,7.719336492797698,3.713040526603047
1970-01-01 00:00:00.000000094,10.254516491312335,-34.152484726368996,5.721724100712779,3.769214677503471
1970-01-01 00:00:00.000000094,9.154159750512743,-33.2452895561531,5.492701197683754,3.6210577454794297
1970-01-01 00:00:00.000000094,6.002185494273402,-31.472982085544324,7.578559440970224,3.336510662914758
1970-01-01 00:00:00.000000095,2.6308486473968067,-28.825916823354767,9.577713638701317,3.0038550916601334
1970-01-01 00:00:00.000000095,-0.5083621062460824,-25.483884339418807,9.862596609580994,2.70027962577658
1970-01-01 00:00:00.000000095,-4.620337568701901,-21.875590131007026,8.575765029931997,2.606880022505887
1970-01-01 00:00:00.000000095,-9.19633733538018,-18.309679349776964,6.530429046576796,2.622665838128569
1970-01-01 00:00:00.000000095,-14.194310054662084,-13.21344505863907,2.5181264819732445,2.5672198695489827
1970-01-01 00:00:00.000000095,-22.074960942330176,-7.559900128163427,-2.1475769279843373,2.6755227532608865
1970-01-01 00:00:00.000000095,-32.07481930735511,0.6810294442766001,-3.667815691500695,2.346597322797056
1970-01-01 00:00:00.000000095,-43.02443336395097,10.890853557394296,-1.9402883087721572,1.465578404273968
1970-01-01 00:00:00.000000095,-56.17340308369132,15.682915193404417,3.5909299426874566,1.3747331888872605
1970-01-01 00:00:00.000000095,-61.88891754056367,21.668963848695757,11.76650394550425,0.8631398881049066
1970-01-01 00:00:00.000000095,-55.25816985303746,32.493138205148725,11.218706069695564,-0.11611171803480169
1970-01-01 00:00:00.000000095,-42.75980317037589,35.263488722759206,3.2562809687149463,0.9593797656468983
1970-01-01 00:00:00.000000095,-27.902789613499,27.940613762422466,-3.7295634613193713,1.7658160428650842
1970-01-01 00:00:00.000000095,-13.917809651948682,18.35713791560732,-5.730439371377903,2.118602643961554
1970-01-01 00:00:00.000000095,-4.107733541144093,9.940491548570714,-3.7539179762885255,2.10173113298365
1970-01-01 00:00:00.000000095,1.4750794075187215,6.037165254207437,-1.3743146300067175,1.8060635042937383
1970-01-01 00:00:00.000000095,3.662394005453438,6.036247098677715,-0.8793002502449502,1.5621544658863855
1970-01-01 00:00:00.000000095,4.381307968650718,8.139002485703344,-2.6692960509937818,1.496497349542845
1970-01-01 00:00:00.000000095,5.172682330884284,10.493627974476855,-5.164885167422426,1.546976130226278
1970-01-01 00:00:00.000000095,7.1901093209499285,12.082714770144033,-7.388841524439309,1.592514310830317
1970-01-01 00:00:00.000000095,10.391563098344177,11.408453871635562,-7.915052940215449,1.5465875137071428
1970-01-01 00:00:00.000000095,13.238268094413863,9.878883121430176,-5.134244503963725,1.2755861159677666
1970-01-01 00:00:00.000000095,15.999640927062227,9.416118268032477,-2.864820805752055,0.9158596777667303
1970-01-01 00:00:00.000000095,18.145965381836334,9.3610432011724,-1.7111841656157678,0.6342524687509243
1970-01-01 00:00:00.000000095,19.30376125108386,9.156283410001869,-0.5129164194946003,0.4600864241779796
1970-01-01 00:00:00.000000095,20.291523160894663,9.022511146747654,-0.7236568828688328,0.37887746121524657
1970-01-01 00:00:00.000000095,20.116345236575796,9.398019371889703,-1.8293175982593488,0.3930010476293333
1970-01-01 00:00:00.000000095,18.817576283915212,10.459966058339145,-2.4319641060675576,0.39499918813400603
1970-01-01 00:00:00.000000095,17.375019871250544,11.963407709764146,-2.891369759067355,0.39121473777725146
1970-01-01 00:00:00.000000095,16.647817683626442,13.033407333044957,-2.9036541609993334,0.3260581588947655
1970-01-01 00:00:00.000000095,16.141268186877564,13.122279890938728,-2.323602979425646,0.2729393601615513
1970-01-01 00:00:00.000000095,15.542145302785844,12.337093003807022,-1.5146830019866782,0.2891420462648724
1970-01-01 00:00:00.000000095,14.979707544215263,12.816810647300427,-0.9852586387652422,0.04836952373119363
1970-01-01 00:00:00.000000095,11.83442252339591,15.447928641982388,-0.3561660759953176,-0.32513653755310123
1970-01-01 00:00:00.000000095,5.880780333864139,19.896648087985344,-1.011840011345977,-0.530776436611931
1970-01-01 00:00:00.000000095,-1.1711983677759887,23.722558324885593,-1.2525256390810975,-0.6179444604140696
1970-01-01 00:00:00.000000095,-8.657036398709558,23.278659949507023,0.8598810217371908,-0.5605965296966011
1970-01-01 00:00:00.000000095,-17.98198972458925,20.621977136858362,4.040030051038482,-0.27055081704933626
1970-01-01 00:00:00.000000095,-28.533571945700665,21.441386698350676,9.147594308984097,-0.14071737866231793
1970-01-01 00:00:00.000000095,-33.799716366302555,31.399223436275413,13.798776009198086,-1.4981644898759443
1970-01-01 00:00:00.000000095,-40.94829722388557,31.7352605916085,15.566972449886716,-1.2352151381744312
1970-01-01 00:00:00.000000095,-45.24903074371422,23.20587054666905,18.76253814725864,0.0773079679711155
1970-01-01 00:00:00.000000095,-40.108338223885404,19.26724291086176,16.21555626850318,0.6934232150923265
1970-01-01 00:00:00.000000095,-33.40118624891837,7.713524146608812,12.761317202337741,2.025849138823743
1970-01-01 00:00:00.000000095,-25.97193863616395,-3.461237829385186,11.130861317654619,2.9722508554788027
1970-01-01 00:00:00.000000095,-20.110591802305937,-9.746766666876127,10.442117247469671,3.321997031527829
1970-01-01 00:00:00.000000095,-16.650181994615032,-12.437944160885648,10.319822379411328,3.412081210448642
1970-01-01 00:00:00.000000095,-14.184289622106494,-13.122132873119172,9.898679800553827,3.4366826537941053
1970-01-01 00:00:00.000000095,-11.430852658344872,-13.725817514163294,9.078358134710603,3.439070540451598
1970-01-01 00:00:00.000000095,-9.147283685153173,-15.003345486086502,7.938584359835878,3.566710660893888
1970-01-01 00:00:00.000000095,-7.280850739384171,-15.682050876934824,6.445879314095759,3.721471236211936
1970-01-01 00:00:00.000000095,-5.2396186631714405,-16.26750080549914,5.744684506403953,3.7344343017744537
1970-01-01 00:00:00.000000095,-3.703363599488533,-17.231192742023143,6.719880488329742,3.594427240508142
1970-01-01 00:00:00.000000095,-3.3210169279919666,-18.263128389023557,8.65366351860127,3.453570231338515
1970-01-01 00:00:00.000000095,-3.329737713284574,-18.886000555026683,10.666307720490623,3.3161364115088436
1970-01-01 00:00:00.000000095,-3.1367408083868042,-19.69147825881006,12.304053272532144,3.2264154165779813
1970-01-01 00:00:00.000000095,-2.873514399104068,-21.40531414951581,13.171728921206537,3.3525723187172223
1970-01-01 00:00:00.000000095,-1.8450331542666012,-23.578000007127446,12.756631371033611,3.6439351590678335
1970-01-01 00:00:00.000000095,0.09415102201857439,-26.317574973187032,11.140429166439418,4.093682245143866
1970-01-01 00:00:00.000000095,3.148341112041299,-29.50392891542619,8.777551476326222,4.554975012603313
1970-01-01 00:00:00.000000095,6.207889180368513,-33.40122815443661,6.990738283251726,4.954814883320362
1970-01-01 00:00:00.000000095,8.080483865931981,-37.80380838266554,8.247805043167663,5.177343908035334
1970-01-01 00:00:00.000000095,9.570388253407808,-40.361876329450546,11.889719730359182,4.950086681008466
1970-01-01 00:00:00.000000095,10.302336290660303,-39.85517400062369,14.386306188406065,4.5135691903606325
1970-01-01 00:00:00.000000095,9.615890002888452,-37.78518437733543,14.233184666658797,4.285812968074044
1970-01-01 00:00:00.000000095,8.16104866470037,-34.024433292739246,10.980050706074941,4.200646041623477
1970-01-01 00:00:00.000000095,5.163414918632818,-28.721363512382123,5.881335411606154,4.211675369292767
1970-01-01 00:00:00.000000095,0.4997126802731573,-23.41974459150931,2.0986423573604194,4.224120078641835
1970-01-01 00:00:00.000000095,-4.7783380970237115,-19.44799986701067,0.6957488284838664,4.1802015446868985
1970-01-01 00:00:00.000000095,-10.310537190834431,-17.271770887450835,0.0910569420319185,4.222696757523791
1970-01-01 00:00:00.000000095,-16.612842416640316,-16.47226550375392,-0.5696628032134012,4.427053698155469
1970-01-01 00:00:00.000000095,-23.769966742085344,-11.817460608327847,0.1899844767832206,4.146584397542032
1970-01-01 00:00:00.000000095,-30.821012052983953,2.4561477583842524,0.004562355842322265,2.512937914252932
1970-01-01 00:00:00.000000095,-45.91126889446269,16.220928427249483,-0.2293225264937283,1.717111829125165
1970-01-01 00:00:00.000000095,-61.34645113265482,26.66126585666156,4.706075508136797,1.6783217507274557
1970-01-01 00:00:00.000000095,-61.197793524927846,37.473493613755224,8.383605157330155,0.8647135509501449
1970-01-01 00:00:00.000000095,-49.364962257131914,37.92607381440842,7.204275839455773,0.648850423896481
1970-01-01 00:00:00.000000095,-33.31926173744364,30.404203144122036,3.7555462768256884,0.9548458623956635
1970-01-01 00:00:00.000000095,-19.264229583216117,21.75511974587782,0.963182303829266,1.3265907290690557
1970-01-01 00:00:00.000000095,-8.61050233788589,13.749844689065856,1.0161906210510427,1.5558127162466078
1970-01-01 00:00:00.000000095,-0.18465489676357927,8.740591034781037,0.47386864042978283,1.6071509847616186
1970-01-01 00:00:00.000000095,5.619001264620752,6.059227178682971,-0.6586234007860698,1.5772720002690859
1970-01-01 00:00:00.000000095,8.635893197293141,4.652951677710283,-0.4622915736024342,1.4504961098461127
1970-01-01 00:00:00.000000095,9.727998896012256,4.859928608160672,-0.2837885978136254,1.3024776535331477
1970-01-01 00:00:00.000000095,9.889447982863269,6.653889197498871,-1.3612321124944005,1.2320631897108176
1970-01-01 00:00:00.000000095,10.37306457808051,9.265885462086931,-2.498672701757103,1.110928405728429
1970-01-01 00:00:00.000000095,11.827958527188414,9.58681255489849,-2.0411365588973833,1.001692240298174
1970-01-01 00:00:00.000000095,14.042311657781916,8.2815257374437,-0.1585421712002344,0.815128498885723
1970-01-01 00:00:00.000000095,15.953996397462891,7.116631490906816,2.362747071316571,0.5359205637327764
1970-01-01 00:00:00.000000095,17.13298988510646,6.580711409931094,4.415899989638875,0.29480781408172385
1970-01-01 00:00:00.000000095,17.963144304047923,7.109137330591432,4.413113402291645,0.14734536912349672
1970-01-01 00:00:00.000000095,17.95860784216047,8.380477293910726,2.752642650108002,0.12489212941667649
1970-01-01 00:00:00.000000095,16.9525476324922,9.913458298817996,1.1579468444435799,0.15134501823716695
1970-01-01 00:00:00.000000095,15.596779869523537,11.961030204427665,0.6900555801231829,0.06645099253265752
1970-01-01 00:00:00.000000095,14.598918046108501,13.137811852490216,1.5770084506446613,-0.07681938880218953
1970-01-01 00:00:00.000000095,14.110792113748602,12.801345494892445,2.9306282693661334,-0.17222460881719615
1970-01-01 00:00:00.000000095,13.553487706176483,12.59786211561675,3.3993004282518253,-0.2970052439606232
1970-01-01 00:00:00.000000095,10.968371481001434,14.189999835893964,1.4495515025680734,-0.3209545696936398
1970-01-01 00:00:00.000000096,5.423345268621934,18.238723466605826,-1.679819845829273,-0.23528392539136833
1970-01-01 00:00:00.000000096,-1.160623750181626,21.309491682264603,-2.75072942015619,-0.3008592967787398
1970-01-01 00:00:00.000000096,-10.436833163850162,22.399553589571635,-1.8078728633530012,-0.17902125330933227
1970-01-01 00:00:00.000000096,-21.079978233352282,23.54456144771569,0.7542683211696932,-0.03971413173740945
1970-01-01 00:00:00.000000096,-30.560082558316306,30.36302743932763,6.732539475510928,-0.6569441637336353
1970-01-01 00:00:00.000000096,-34.717786366243125,37.13992043998621,13.657038543480592,-1.8881430639239136
1970-01-01 00:00:00.000000096,-39.31661888015675,27.627851398167888,18.72052815633331,-0.9329974050529501
1970-01-01 00:00:00.000000096,-38.73506011065573,17.660170975713708,19.895325342684654,0.2222109919505213
1970-01-01 00:00:00.000000096,-34.3774815028438,11.9947917497778,15.751282899829121,1.1576151906846621
1970-01-01 00:00:00.000000096,-29.21602958214603,2.5862186554112245,14.02632533982576,2.3473057429508013
1970-01-01 00:00:00.000000096,-20.125854398142607,-7.891485980488493,10.984903348652558,2.921936141464376
1970-01-01 00:00:00.000000096,-11.342556424267558,-13.10535881020895,6.117046392184934,2.835962456664972
1970-01-01 00:00:00.000000096,-7.993207108982753,-12.646642533759294,5.106908601734242,2.6337374739641044
1970-01-01 00:00:00.000000096,-6.436030135432447,-12.681315629111264,5.942159826820662,2.5007512366271416
1970-01-01 00:00:00.000000096,-4.4276878303546505,-14.63952654107754,7.690759633590853,2.4240267502164072
1970-01-01 00:00:00.000000096,-2.512587497747041,-16.420131050130117,8.624120209984849,2.416868873149024
1970-01-01 00:00:00.000000096,-0.7822602623746356,-18.563490811308107,8.551007037127562,2.5250817500153464
1970-01-01 00:00:00.000000096,0.05640512610296233,-21.78351533761494,8.513675310033339,2.8240718189199705
1970-01-01 00:00:00.000000096,0.7465835522625246,-24.79834484832457,9.1113047897434,3.0710637408744876
1970-01-01 00:00:00.000000096,1.6680802865984459,-27.137569236119088,9.37578034406837,3.2820034398012368
1970-01-01 00:00:00.000000096,3.042935006000996,-29.084072485881162,9.36671654111182,3.4281090988486325
1970-01-01 00:00:00.000000096,4.362958541719523,-30.697810923713607,9.460143224908302,3.514647112150082
1970-01-01 00:00:00.000000096,5.351921191103036,-32.15439026966888,9.659582716129655,3.6229230380010264
1970-01-01 00:00:00.000000096,6.591137037713347,-34.03064009988719,9.538676368051478,3.79748909541724
1970-01-01 00:00:00.000000096,8.136961644226371,-35.48260273382973,8.824968914714335,3.902700155799383
1970-01-01 00:00:00.000000096,8.783880096725483,-35.272992368819075,7.712125673932305,3.855184379943509
1970-01-01 00:00:00.000000096,7.521938461594667,-33.633189874634695,6.907425631109927,3.7454073764082105
1970-01-01 00:00:00.000000096,4.996199372679175,-30.04003216616325,5.571468446188073,3.607044787311279
1970-01-01 00:00:00.000000096,2.2977832356569845,-25.93563766212347,4.034263365617611,3.459970754727309
1970-01-01 00:00:00.000000096,-0.2990764279476916,-22.764310474499315,3.061516662158186,3.3231677510778637
1970-01-01 00:00:00.000000096,-3.251637612530276,-20.712167851398725,2.3652638106126656,3.3072637464145247
1970-01-01 00:00:00.000000096,-6.265009015696869,-19.396642923224455,1.618184814426269,3.3436599162366325
1970-01-01 00:00:00.000000096,-9.927199200648326,-18.65756642120537,0.4153508333523446,3.3643065705102786
1970-01-01 00:00:00.000000096,-16.83338012395172,-16.271389327126453,-1.3174511917187666,3.3820065338156
1970-01-01 00:00:00.000000096,-27.254965074021694,-8.966430694516506,-1.2830182930670566,2.956512483282817
1970-01-01 00:00:00.000000096,-39.271383924927406,3.1671158099039443,1.6653125136315468,1.7363136736244167
1970-01-01 00:00:00.000000096,-54.3179138205204,13.498511622786342,6.0164102219821265,1.2470386895203425
1970-01-01 00:00:00.000000096,-62.486368701259636,22.50575712975138,11.240822604310157,0.949917991929425
1970-01-01 00:00:00.000000096,-56.311894380461105,30.75461523000685,10.58348444389886,0.30155936616085954
1970-01-01 00:00:00.000000096,-43.2096408474814,29.783734934828235,5.428138235354185,0.41019367288930786
1970-01-01 00:00:00.000000096,-28.984583638572847,22.14769184109689,1.717711741404392,0.8182615566717243
1970-01-01 00:00:00.000000096,-17.126238313450276,15.007909790350505,-0.24595620187288358,1.039961296890591
1970-01-01 00:00:00.000000096,-8.738603179066143,9.811850505843813,-0.6125511844952791,1.0597993909318193
1970-01-01 00:00:00.000000096,-3.546751311215166,7.0452112106434965,-0.9097684362886386,1.010907525560097
1970-01-01 00:00:00.000000096,-0.615132498754968,6.78865113287235,-1.8213976439559785,0.9176306746132067
1970-01-01 00:00:00.000000096,0.9297093964959176,7.799156184934106,-3.217181142498685,0.8690354211011774
1970-01-01 00:00:00.000000096,2.156956361163247,9.099962673221384,-4.9810963906358054,0.9108504320717701
1970-01-01 00:00:00.000000096,4.2607176751275295,9.999488618212634,-5.922768778498734,0.8767067950862913
1970-01-01 00:00:00.000000096,7.405600694259045,10.450307580272511,-5.119583067077265,0.627438521091304
1970-01-01 00:00:00.000000096,11.08948976796726,10.758540330123022,-3.2062497516093535,0.21698547943732138
1970-01-01 00:00:00.000000096,14.874061393435182,11.11999635780756,-0.10944520161658877,-0.37598762744488656
1970-01-01 00:00:00.000000096,17.977278931488172,11.300746813342283,3.070614790621664,-0.9961380137084881
1970-01-01 00:00:00.000000096,19.246602393702833,11.288010190053997,5.303887136021482,-1.428768230983972
1970-01-01 00:00:00.000000096,18.475732600589552,12.750805329041443,6.409614892884701,-1.7521992878529329
1970-01-01 00:00:00.000000096,16.407941766798604,16.408607656490737,5.180588934291693,-1.9026106545381027
1970-01-01 00:00:00.000000096,14.58215131162835,19.802219892050072,2.4869048288300255,-1.7945419647552534
1970-01-01 00:00:00.000000096,14.459744483377742,20.611475099686285,0.8259871149444682,-1.6367487989480494
1970-01-01 00:00:00.000000096,15.36978341868992,18.96691779659937,1.0740572717889698,-1.5852376856431545
1970-01-01 00:00:00.000000096,15.37316250664458,17.163295753744094,2.5915495686050294,-1.6935504440890539
1970-01-01 00:00:00.000000096,13.175554884527866,17.510089788126393,4.965803314182127,-2.01947414704561
1970-01-01 00:00:00.000000096,8.697773494135044,19.629714090935657,6.75572547958018,-2.258538036794227
1970-01-01 00:00:00.000000096,3.848490212534615,22.281187545990324,6.977781513336658,-2.3689280434638347
1970-01-01 00:00:00.000000096,-1.4715337929701775,23.918134952507778,5.850160682215215,-2.1936059109430266
1970-01-01 00:00:00.000000096,-6.977260250512655,22.87945230170095,5.847553036457029,-1.9343074979353085
1970-01-01 00:00:00.000000096,-14.300462552384476,19.47469630827541,7.6813904169825316,-1.5819494943716919
1970-01-01 00:00:00.000000096,-24.066106695799625,19.72066944678556,11.08330964712274,-1.441879500970089
1970-01-01 00:00:00.000000096,-32.223123740735396,26.95627551826233,15.5408668186585,-2.0727723444127975
1970-01-01 00:00:00.000000096,-36.75337753738925,31.179808722089348,16.601133632448285,-2.3888066983047245
1970-01-01 00:00:00.000000096,-41.48104363369087,21.35688327332839,16.148064552624028,-0.6635572905546228
1970-01-01 00:00:00.000000096,-38.45918436231937,14.600304881661652,15.040874512285502,0.17015300129540023
1970-01-01 00:00:00.000000096,-34.019850082210475,7.910381330266247,13.514580077815273,0.8698490483418115
1970-01-01 00:00:00.000000096,-29.59805255087875,-2.4069721303081,14.215824422891968,1.7319360621791737
1970-01-01 00:00:00.000000096,-24.714375094913134,-11.14428246939814,14.317025719454676,2.4498989337632695
1970-01-01 00:00:00.000000096,-19.7208203874015,-16.55099574179526,13.031528804030728,2.906121875156142
1970-01-01 00:00:00.000000096,-15.392147439702576,-18.694467182436863,10.822387366011672,3.1066549961699996
1970-01-01 00:00:00.000000096,-12.244892716183559,-18.384012711846175,8.738535550438819,3.092296417668358
1970-01-01 00:00:00.000000096,-10.137130024767602,-17.377460681652703,7.664487851593911,2.9848915607133892
1970-01-01 00:00:00.000000096,-8.365571450895878,-16.68067949804511,6.829382637328155,2.929649840405029
1970-01-01 00:00:00.000000096,-6.357479913149829,-16.5478345563876,6.181894565443606,2.8718332634801524
1970-01-01 00:00:00.000000096,-4.729145327498565,-17.353168697347826,5.58945545672112,2.9206610247120564
1970-01-01 00:00:00.000000096,-3.4856182785310352,-18.551170926865417,5.41995211116503,2.9756916729644085
1970-01-01 00:00:00.000000096,-2.840467464180339,-20.68404501722855,6.5936528555255265,3.0705433801980364
1970-01-01 00:00:00.000000096,-1.7151568714143899,-23.21837725677629,10.30834226955265,2.9317747979915216
1970-01-01 00:00:00.000000096,0.02273891763331215,-24.154587744703278,12.539141593424702,2.6980572606820874
1970-01-01 00:00:00.000000096,1.438931883090726,-24.28631350003055,12.417659103096002,2.6380775146869566
1970-01-01 00:00:00.000000096,2.468192191740245,-25.073619021228797,11.239911925060154,2.8354212948391355
1970-01-01 00:00:00.000000096,4.072296224142564,-26.527186900529983,9.484176046144915,3.1456385426672524
1970-01-01 00:00:00.000000096,6.226472179889963,-28.736854157422684,7.006414456510913,3.573520416915443
1970-01-01 00:00:00.000000096,8.688193066396787,-31.721990148648278,4.084899480883454,4.038425839363998
1970-01-01 00:00:00.000000096,10.28284236290715,-34.05484161360219,2.987909769821098,4.219143412472077
1970-01-01 00:00:00.000000096,10.056165197940807,-34.98927915534009,5.358118567556543,3.9510284847330586
1970-01-01 00:00:00.000000096,7.713176196869508,-33.89166212797196,8.945325006814608,3.5257870520096244
1970-01-01 00:00:00.000000096,4.898504688456369,-30.75503458568557,10.74622033065427,3.1289135578244247
1970-01-01 00:00:00.000000096,2.193122043938984,-26.62392815494269,10.07296745144674,2.8783504639263073
1970-01-01 00:00:00.000000096,-0.5595038174706082,-22.60641520417419,7.208511252000834,2.8742872858599284
1970-01-01 00:00:00.000000096,-3.339614792065178,-18.816939338851142,3.7391793714848913,2.9628771972820496
1970-01-01 00:00:00.000000096,-6.195309013649537,-15.545658543480874,0.6546201794170723,3.0818133661615614
1970-01-01 00:00:00.000000097,-9.004455796041436,-14.667712103576363,-2.0663052956673083,3.297340844716974
1970-01-01 00:00:00.000000097,-13.679262335321518,-15.66488473917451,-3.1271796485275747,3.5672008791832965
1970-01-01 00:00:00.000000097,-20.878359023097815,-13.9454833686503,-1.5288527290928502,3.4089033027963467
1970-01-01 00:00:00.000000097,-29.72701714815949,-3.4226405687315262,2.2886816086735244,1.966841866051643
1970-01-01 00:00:00.000000097,-44.167378000600614,9.461382478009002,6.00045062838784,0.9261494697885333
1970-01-01 00:00:00.000000097,-57.363510984966055,18.852494165713342,11.196012048536918,0.8148484330581262
1970-01-01 00:00:00.000000097,-56.00813334441339,29.581228190278548,12.817142876136195,0.40315434088875635
1970-01-01 00:00:00.000000097,-38.99339127098498,28.617643481857613,7.6438221171910214,0.4004232050689698
1970-01-01 00:00:00.000000097,-19.815024141999476,17.657243686577992,3.378152154722177,0.5234979867546391
1970-01-01 00:00:00.000000097,-11.414590315309074,12.2332244901049,3.6715744946648714,1.6424387957434112
1970-01-01 00:00:00.000000097,-5.282277749325904,8.974834520057282,3.8393761750321733,1.6481698063221013
1970-01-01 00:00:00.000000097,-0.5131447220437282,7.67236602050859,1.8266407002709852,1.6840077782223328
1970-01-01 00:00:00.000000097,2.6152449910536877,7.10650434354355,-0.3426209578468433,1.7382998497512
1970-01-01 00:00:00.000000097,4.242801953291031,7.402996329186988,-1.3776614881158875,1.6906365732810877
1970-01-01 00:00:00.000000097,5.022068343815102,8.191887994486159,-1.4367477713009624,1.5671824130210656
1970-01-01 00:00:00.000000097,5.616161136259408,8.908778872586268,-1.7837289863634196,1.4948912631360283
1970-01-01 00:00:00.000000097,6.190473475925828,10.20745541453308,-2.3616210113207394,1.3979988750443306
1970-01-01 00:00:00.000000097,6.931533968195938,11.935197727238497,-2.2373579118649163,1.2345621046940671
1970-01-01 00:00:00.000000097,8.859238807856242,12.867526139122798,-0.972399690815673,1.0006242041132027
1970-01-01 00:00:00.000000097,12.31759352515471,12.69960531376476,0.6941635445291072,0.7346920252515394
1970-01-01 00:00:00.000000097,16.74182013631135,11.88423060870762,1.8272286692832846,0.43927708806135657
1970-01-01 00:00:00.000000097,20.287154117070497,10.22698875090317,3.193378155681953,0.16896031616900586
1970-01-01 00:00:00.000000097,21.599187848984307,8.909464546621548,4.308980415072709,0.028453663647070915
1970-01-01 00:00:00.000000097,21.377382287706848,9.359212158521244,4.679751201924931,-0.1292499128532003
1970-01-01 00:00:00.000000097,19.886783912550566,10.785842127846477,4.54088043129588,-0.2808195820867887
1970-01-01 00:00:00.000000097,17.109495880985822,13.383413121207566,3.9489082709382393,-0.4371876414139493
1970-01-01 00:00:00.000000097,13.292701139273046,17.42968135663432,3.1930120959134576,-0.6690741900115325
1970-01-01 00:00:00.000000097,8.6193851883708,20.9418419801272,3.486276790933545,-0.9131536824871627
1970-01-01 00:00:00.000000097,3.145466354861498,19.276389643640314,7.212798796132731,-1.093934366099905
1970-01-01 00:00:00.000000097,-5.718684940257857,18.545473095886457,8.784085402376448,-1.232476170283371
1970-01-01 00:00:00.000000097,-22.47274538693014,19.397229809788243,9.653352932525356,-0.49627303285570656
1970-01-01 00:00:00.000000097,-35.997878353958406,26.803844519717504,14.855556527128517,-0.6769796312982046
1970-01-01 00:00:00.000000097,-41.687906857528226,22.407736762785184,15.797837840144075,0.30979086220548746
1970-01-01 00:00:00.000000097,-41.5814207260413,8.949715114521027,18.30573219579974,1.901803284086908
1970-01-01 00:00:00.000000097,-34.35850184339026,0.792473456028165,16.514833573194366,2.837603269087963
1970-01-01 00:00:00.000000097,-24.649295225307583,-9.876944469098783,12.145761613109848,4.0052756481514376
1970-01-01 00:00:00.000000097,-14.777696968576054,-16.24384494709414,7.646859155372278,4.52177173980251
1970-01-01 00:00:00.000000097,-8.364770193465082,-18.18441313054721,3.9668915538371667,4.5958206326138455
1970-01-01 00:00:00.000000097,-5.948765719558651,-15.911007267011641,1.033515108899829,4.5054909856414405
1970-01-01 00:00:00.000000097,-4.286793321863776,-15.511391160903052,2.3394083043224954,4.194631231770692
1970-01-01 00:00:00.000000097,-3.40083677102802,-15.787739912046959,6.489323273131529,3.724169771692684
1970-01-01 00:00:00.000000097,-2.845678077601272,-17.07772393462455,9.552182599969008,3.528618467873417
1970-01-01 00:00:00.000000097,-1.8662991583457902,-19.29962826005255,11.68078498879512,3.5505102578546466
1970-01-01 00:00:00.000000097,-0.0029629547678604595,-22.228302996408598,11.612948187885392,3.85989791878957
1970-01-01 00:00:00.000000097,3.0368527804141516,-25.686383560043684,9.796985167046806,4.3357059666018465
1970-01-01 00:00:00.000000097,6.7919186340507816,-29.354562407519747,6.605142039629175,4.894457230913098
1970-01-01 00:00:00.000000097,10.441656609738747,-32.15018691152142,3.0284644344084355,5.2920571337209985
1970-01-01 00:00:00.000000097,12.134544869044769,-33.818605250999916,2.0452766419561206,5.3637676663129445
1970-01-01 00:00:00.000000097,11.629804084782789,-34.159253389012086,4.736906374870613,5.063374667393702
1970-01-01 00:00:00.000000097,9.876181204250752,-33.36931932347169,8.213112408405363,4.700068616373913
1970-01-01 00:00:00.000000097,8.332949550055027,-32.14756852307558,9.931928473721698,4.494081130551008
1970-01-01 00:00:00.000000097,7.487104356814453,-31.060285830473212,10.00370135117638,4.435670211800794
1970-01-01 00:00:00.000000097,7.174829787325199,-29.5959082185408,8.552248689200594,4.394058603431886
1970-01-01 00:00:00.000000097,5.969243854689394,-27.82938815956563,6.356861167801581,4.394563325623472
1970-01-01 00:00:00.000000097,3.1074436164552877,-26.099933986336627,4.7806409448368665,4.447592625997909
1970-01-01 00:00:00.000000097,-0.7145955342924335,-23.377446548874026,3.711827265442438,4.422623833169767
1970-01-01 00:00:00.000000097,-4.9686750382537435,-20.12984574278068,2.1499723125907497,4.415331294269205
1970-01-01 00:00:00.000000097,-9.631773985351588,-17.654280329198667,0.31153335151280315,4.506232623305405
1970-01-01 00:00:00.000000097,-15.230010028478599,-16.334143631707548,-1.2869923078694636,4.695332383054432
1970-01-01 00:00:00.000000097,-22.14776310998095,-11.757048882741953,-1.9497768198251717,4.369093897528565
1970-01-01 00:00:00.000000097,-32.48822159161415,-0.3499256773391797,-1.6007313024241046,3.267256709404502
1970-01-01 00:00:00.000000097,-48.498546561417726,8.83284385830115,1.2538199180913479,2.8614288543116655
1970-01-01 00:00:00.000000097,-61.77466310557738,16.428926548951058,7.546085788371294,2.8243423886928256
1970-01-01 00:00:00.000000097,-60.62778743882464,26.09667881593371,11.58900222048987,1.9851248271525124
1970-01-01 00:00:00.000000097,-48.727662063295654,27.46892992442368,11.394502608019629,1.5523597217907388
1970-01-01 00:00:00.000000097,-32.79687351542904,20.76209487429613,9.010233926830379,1.6170567261893272
1970-01-01 00:00:00.000000097,-19.53266587083906,13.261997336661501,6.536179071490023,1.7533408746121268
1970-01-01 00:00:00.000000097,-11.519308898313572,7.444896726532858,6.349664514368714,1.8470137335080896
1970-01-01 00:00:00.000000097,-6.353505309844644,6.039746901976762,6.694295438716257,1.64636588655913
1970-01-01 00:00:00.000000097,-2.5790531844021145,6.292584870210628,5.810627574341287,1.5099837811611492
1970-01-01 00:00:00.000000097,0.7179501161633466,6.480444291072594,4.063048765861415,1.4843992363562821
1970-01-01 00:00:00.000000097,3.404902450442616,6.847115022134113,2.059393137302259,1.477302968045202
1970-01-01 00:00:00.000000097,5.15319368458747,7.697903480780127,0.5968081155320848,1.4498264092976991
1970-01-01 00:00:00.000000097,6.7416022073390245,9.174303974565627,-0.26754900230044276,1.3368384328299987
1970-01-01 00:00:00.000000097,8.747359067772418,10.080967148384618,-0.7479678617504887,1.2082779272074864
1970-01-01 00:00:00.000000097,10.924159933876952,10.092520456081125,-1.0968718407003493,1.1081803602361884
1970-01-01 00:00:00.000000097,12.579779453268225,10.437142476550413,-1.3475145264137727,0.9734524441158428
1970-01-01 00:00:00.000000097,13.553698118374136,11.482030047562084,-0.5143167356895841,0.6875426018754154
1970-01-01 00:00:00.000000097,13.908101797521931,12.85711985969421,0.7404137148639536,0.36045219279150453
1970-01-01 00:00:00.000000097,13.837542158036367,14.721560537221407,1.316841410056028,0.0968243107366944
1970-01-01 00:00:00.000000097,13.682154960187667,16.67684091819134,-0.6338693704430454,0.046433804208389606
1970-01-01 00:00:00.000000097,12.626793601568384,18.336436718064938,-3.898021947897452,0.18098420121225578
1970-01-01 00:00:00.000000097,10.292326576683518,20.77707445932236,-5.7425992330282,0.20106695248386997
1970-01-01 00:00:00.000000097,7.697399871657543,23.78580362775796,-4.260927399744723,-0.12014320582672333
1970-01-01 00:00:00.000000097,5.772039101832146,24.538041343582076,1.0459772933601212,-0.6057123221639711
1970-01-01 00:00:00.000000097,5.134762459725934,23.157590587170404,7.168592258682562,-1.0770082201849251
1970-01-01 00:00:00.000000097,4.675117538765876,21.094899299082623,11.384008480132499,-1.354711499563376
1970-01-01 00:00:00.000000097,3.1216697773646915,19.35035821216398,12.14530442899844,-1.3137312097217286
1970-01-01 00:00:00.000000097,-0.6063500500319785,19.18015401238809,10.104592685870381,-1.0598462456771531
1970-01-01 00:00:00.000000097,-6.889984212215873,19.134623268705333,8.049521235894359,-0.6904909429676138
1970-01-01 00:00:00.000000098,-15.605280508855152,19.488442965209334,8.016249405830319,-0.30883715769368614
1970-01-01 00:00:00.000000098,-23.827104925020656,22.140857450572714,11.476733380150286,-0.5697883219333599
1970-01-01 00:00:00.000000098,-31.961237654414788,25.37884210887619,17.419685766849316,-1.0205102916832902
1970-01-01 00:00:00.000000098,-37.81359512364522,22.736883708649923,23.25378654434867,-0.8441819997478248
1970-01-01 00:00:00.000000098,-39.71523127194473,13.871792546195042,26.537325452089394,0.07317415421836726
1970-01-01 00:00:00.000000098,-37.717458374118614,5.996477059522477,25.448962682970834,1.005649518750547
1970-01-01 00:00:00.000000098,-34.90825890629238,1.0310763917665164,22.33265531897737,1.8181545171023235
1970-01-01 00:00:00.000000098,-31.24578937831535,-4.270597015566134,18.66954839567851,2.7121432434742765
1970-01-01 00:00:00.000000098,-26.107097200473554,-9.489558570339627,14.592788606054981,3.498153632617191
1970-01-01 00:00:00.000000098,-20.696700458261247,-13.180258169982883,11.102970181426691,3.9960343850124778
1970-01-01 00:00:00.000000098,-16.033547575060826,-15.187316791810211,8.87750151985331,4.575673324308829
1970-01-01 00:00:00.000000098,-12.710316546385183,-15.658438801326398,7.3084272621798405,4.579971903381738
1970-01-01 00:00:00.000000098,-10.663604656453991,-15.005460716524802,6.2851046864801905,4.482608318964763
1970-01-01 00:00:00.000000098,-9.347082492656481,-14.362729553730842,6.0156702638970465,4.390693824267452
1970-01-01 00:00:00.000000098,-7.85248884278174,-14.624757407897834,6.551472265050307,4.293574887055474
1970-01-01 00:00:00.000000098,-6.3168437613443515,-16.15177216030776,8.228029191664035,4.203746549921892
1970-01-01 00:00:00.000000098,-4.806415808252441,-18.3674946864398,10.46091214385044,4.127148319296439
1970-01-01 00:00:00.000000098,-3.4192176745640337,-20.6406718473701,11.59651121849483,4.173140721767818
1970-01-01 00:00:00.000000098,-2.3164526826792944,-24.075409021415712,12.000126926647303,4.4668574640608005
1970-01-01 00:00:00.000000098,-0.9553161575099014,-28.4440429902718,11.608244541563774,4.94730967294431
1970-01-01 00:00:00.000000098,0.9232921469876958,-31.71624490179209,10.369982509705451,5.371980644054902
1970-01-01 00:00:00.000000098,3.167104313628238,-33.655524387813365,8.620328190784884,5.649182811328292
1970-01-01 00:00:00.000000098,5.090778293153072,-35.20049024203297,7.911301968622192,5.75234871343371
1970-01-01 00:00:00.000000098,6.154882993744185,-36.53728117730306,8.955255931788267,5.698633545644324
1970-01-01 00:00:00.000000098,6.593104260815046,-37.40041672246395,10.53629301234708,5.580411966137151
1970-01-01 00:00:00.000000098,6.634838218117212,-38.00471803691796,11.29390769388867,5.555711956853825
1970-01-01 00:00:00.000000098,6.65735704581116,-36.974154453108014,10.40203054385914,5.490596814617242
1970-01-01 00:00:00.000000098,5.848121254182404,-34.83163743882387,8.27673174848307,5.4701869204749745
1970-01-01 00:00:00.000000098,4.162890152279222,-32.3057386244017,6.494044435917424,5.442737933429924
1970-01-01 00:00:00.000000098,2.09751042286783,-29.356542505107655,4.87923093620313,5.36447032153718
1970-01-01 00:00:00.000000098,-0.46255953850608855,-26.253009521338843,3.3130903337340234,5.279830364729726
1970-01-01 00:00:00.000000098,-3.626304437930982,-23.263017717036025,2.0359049286195807,5.216616504658653
1970-01-01 00:00:00.000000098,-7.173791044635541,-20.569684684364518,1.185126893263782,5.161569539812375
1970-01-01 00:00:00.000000098,-11.01757414719055,-17.758182965019703,0.07280698528903717,5.070016990550727
