time,ax,ay,az,speed
1970-01-01 00:00:00.000000000,-0.91,0.301973391358064,2.4731071818670753,1.290859169185426e-92
1970-01-01 00:00:00.000000000,-0.5769230769230769,-0.349357040738736,0.8784662752208473,6.583381762845672e-91
1970-01-01 00:00:00.000000000,-0.4038461538461538,-0.7346134913039365,0.24548224909580052,1.7762222167991423e-89
1970-01-01 00:00:00.000000000,-0.28846153846153844,-0.9852072244675494,-0.250445549634231,4.789216603594832e-88
1970-01-01 00:00:00.000000000,-0.25961538461538464,-1.1159815693198993,-0.7575120892200378,1.2913122607538043e-86
1970-01-01 00:00:00.000000000,-0.2980769230769231,-1.1462951471697294,-1.20238085930679,3.4817538874316736e-85
1970-01-01 00:00:00.000000000,-0.423076923076923,-1.0839874042627962,-1.4567711120632947,9.387822373457966e-84
1970-01-01 00:00:00.000000000,-0.6153846153846153,-0.871364767925765,-1.630439166402166,2.531230286946221e-82
1970-01-01 00:00:00.000000000,-0.8365384615384615,-0.6928613297328586,-1.8150863807951876,6.824933952381344e-81
1970-01-01 00:00:00.000000000,-0.9423076923076922,-0.5858911348614175,-1.876893115067899,1.8402009368560178e-79
1970-01-01 00:00:00.000000000,-1.0480769230769231,-0.6261993115254147,-1.8610277260380874,4.96171759555887e-78
1970-01-01 00:00:00.000000000,-1.1057692307692306,-0.5714902763247814,-1.8708554879604615,1.3378235498640399e-76
1970-01-01 00:00:00.000000000,-1.1249999999999998,-0.5540381492436833,-1.6520704488943725,3.6071618670373515e-75
1970-01-01 00:00:00.000000000,-1.0192307692307692,-0.6375397532546678,-1.4850466321875957,9.725958805502215e-74
1970-01-01 00:00:00.000000000,-0.9134615384615383,-0.659535188632349,-1.4441886201707115,2.6224017156185626e-72
1970-01-01 00:00:00.000000000,-0.7596153846153846,-0.6699103398187527,-1.5080461124216158,7.070758673364622e-71
1970-01-01 00:00:00.000000000,-0.5576923076923076,-0.6780439864739756,-1.7730564152129127,1.9064824400928308e-69
1970-01-01 00:00:00.000000000,-0.30769230769230765,-0.6372772949785848,-2.114477098327032,5.140431829577282e-68
1970-01-01 00:00:00.000000000,-0.04807692307692307,-0.5284429779478124,-2.5678252396169423,1.3860101115457744e-66
1970-01-01 00:00:00.000000000,0.2115384615384615,-0.38068310961234686,-2.966804371330416,3.737086869344016e-65
1970-01-01 00:00:00.000000000,0.43269230769230765,-0.25000098158555345,-3.2858927863042795,1.0076274446113393e-63
1970-01-01 00:00:00.000000000,0.7115384615384615,-0.1193433931975952,-3.502300858885125,2.716857013581274e-62
1970-01-01 00:00:00.000000000,1.0673076923076923,0.027729365250483317,-3.5262304035941114,7.325437662223332e-61
1970-01-01 00:00:00.000000000,1.2788461538461537,0.11803625496064461,-3.205920038155878,1.9751513117867199e-59
1970-01-01 00:00:00.000000000,1.2019230769230769,-0.09075048131307879,-3.0336106266145872,5.325583104161924e-58
1970-01-01 00:00:00.000000000,1.0673076923076923,-0.31829925041377194,-2.9515668804379818,1.4359322868119338e-56
1970-01-01 00:00:00.000000000,1.0,-0.5033292798587635,-2.9086951452109147,3.8716915912880625e-55
1970-01-01 00:00:00.000000000,0.8653846153846153,-0.5215913057728435,-3.083202040256718,1.0439207973609656e-53
1970-01-01 00:00:00.000000000,0.798076923076923,-0.32963597600800865,-3.3377599417204773,2.814714461283321e-52
1970-01-01 00:00:00.000000000,0.7596153846153846,-0.12858004644338952,-3.7863163861961646,7.589289837491363e-51
1970-01-01 00:00:00.000000000,0.8173076923076922,0.10797472203649151,-4.1427824855759585,2.046293541661386e-49
1970-01-01 00:00:00.000000000,0.8653846153846153,0.29389754142865965,-4.318810724354711,5.517403272648255e-48
1970-01-01 00:00:00.000000000,0.7788461538461539,0.327258896537318,-4.215107072001246,1.4876525900733684e-46
1970-01-01 00:00:00.000000000,0.6153846153846153,0.2920926650789248,-3.98908021967892,4.011144589925449e-45
1970-01-01 00:00:00.000000000,0.4711538461538461,0.05924306059365228,-3.7400588593295847,1.0815213866897987e-43
1970-01-01 00:00:00.000000000,0.16346153846153846,-0.4425300290503134,-3.4925089822198605,2.916096599472533e-42
1970-01-01 00:00:00.000000000,0.3269230769230769,-0.5075538449521132,-2.8076836606066573,7.862645604708947e-41
1970-01-01 00:00:00.000000000,0.4807692307692307,-0.5114237846567423,-2.5649498541598814,2.119998216671945e-39
1970-01-01 00:00:00.000000000,0.41346153846153844,-0.5508883407799293,-2.695962401710143,5.716132539409546e-38
1970-01-01 00:00:00.000000000,0.4038461538461538,-0.36256141640134765,-2.7260349920139766,1.5412357874239066e-36
1970-01-01 00:00:00.000000000,0.5288461538461539,0.01173009794354275,-2.6569823826672225,4.155620493505141e-35
1970-01-01 00:00:00.000000000,0.6826923076923076,0.4292740608770019,-2.5124893400010326,1.120476297458965e-33
1970-01-01 00:00:00.000000000,0.5769230769230769,0.8286695457355069,-2.1802297973606626,3.021130382645703e-32
1970-01-01 00:00:00.000000000,0.3269230769230769,1.1948036739816847,-1.6037151887368581,8.145847270168815e-31
1970-01-01 00:00:00.000000000,0.3461538461538461,1.431029651769984,-0.8700802985345033,2.196357632562936e-29
1970-01-01 00:00:00.000000000,0.625,1.4429969238078861,-0.13845287169473144,5.922019760649762e-28
1970-01-01 00:00:00.000000000,0.798076923076923,1.2798872910429413,0.8818527627767532,1.596748977742874e-26
1970-01-01 00:00:00.000000000,0.8076923076923076,1.1139599343515245,2.1984774666670717,4.305300220145113e-25
1970-01-01 00:00:00.000000000,0.6153846153846153,1.0470309364482229,2.9770388372341774,1.1608343104614386e-23
1970-01-01 00:00:00.000000000,0.6153846153846153,1.1558753497504946,1.9315711386557146,3.1299473380257413e-22
1970-01-01 00:00:00.000000000,0.6538461538461539,1.1616035068151334,0.42538190647011975,8.439249469564894e-21
1970-01-01 00:00:00.000000000,1.0096153846153846,1.2074193342581088,-0.9462596639624773,2.275467409444497e-19
1970-01-01 00:00:00.000000000,1.423076923076923,1.6887185181538051,-1.9743928334570078,6.135322756030581e-18
1970-01-01 00:00:00.000000000,1.442307692307692,2.3879806558946313,-2.362346839376735,1.6542616767188136e-16
1970-01-01 00:00:00.000000000,1.8461538461538458,2.7867591910012477,-2.3089718297148436,4.460371204384769e-15
1970-01-01 00:00:00.000000000,2.7019230769230766,2.604517501139047,-1.979892562924041,1.2026459635071697e-13
1970-01-01 00:00:00.000000000,3.288461538461538,1.7852133397530292,-1.1481273692342677,3.2426837302649757e-12
1970-01-01 00:00:00.000000000,3.798076923076923,1.0962426721927396,1.9804535935988197,8.74321961208037e-11
1970-01-01 00:00:00.000000000,3.8557692307692304,-0.18666119054906624,7.120374396402406,2.3574266115314366e-09
1970-01-01 00:00:00.000000000,3.432692307692307,-1.3860948170175262,12.269655109266138,6.356308631522803e-08
1970-01-01 00:00:00.000000000,2.9615384615384612,-0.7378988689241424,15.410313553783308,1.7138459038996267e-06
1970-01-01 00:00:00.000000000,2.423076923076923,1.7128253560656854,16.808810842883165,4.621027631897473e-05
1970-01-01 00:00:00.000000000,1.6201923076923077,5.484183482697647,17.42757920406209,0.0012459636147084188
1970-01-01 00:00:00.000000000,1.2307692307692306,6.735128676770793,18.485827666793313,0.033594807320808356
1970-01-01 00:00:00.000000000,0.9230769230769229,5.614290790113773,19.189767799357377,0.9058138340471179
1970-01-01 00:00:00.000000000,0.7596153846153846,4.350722656301083,18.887902915855754,0.9381626777532178
1970-01-01 00:00:00.000000000,0.45192307692307687,3.355220930015466,17.03361092874794,0.9393624310916072
1970-01-01 00:00:00.000000000,-0.3365384615384615,2.740242454116507,14.269592160338577,0.9394069275220224
1970-01-01 00:00:00.000000000,-1.4903846153846152,2.1313253311302125,11.495377400393666,0.9394085778048399
1970-01-01 00:00:00.000000000,-2.355769230769231,1.805541486399224,8.60559765029044,0.9394086390104996
1970-01-01 00:00:00.000000000,-2.875,1.618294801648834,5.60575915744823,0.939408641280494
1970-01-01 00:00:00.000000000,-2.9519230769230766,1.3884181581192945,3.249899600811785,0.9394086413646835
1970-01-01 00:00:00.000000000,-2.6634615384615383,1.1189954675721205,1.8915300644699637,0.939408641367806
1970-01-01 00:00:00.000000000,-2.519230769230769,0.5744594663279616,1.3214121398772403,0.9394086413679217
1970-01-01 00:00:00.000000000,-2.5,-0.108589876717154,1.286597712215519,0.939408641367926
1970-01-01 00:00:00.000000000,-2.1346153846153846,-0.5063861376911206,1.1667260899417768,0.9394086413679262
1970-01-01 00:00:00.000000000,-1.6249999999999998,-0.8138358409431027,0.7150067162124548,0.9394086413679262
1970-01-01 00:00:00.000000000,-1.0480769230769231,-1.4671815677726525,-0.11154475220549791,0.9394086413679262
1970-01-01 00:00:00.000000000,-0.5865384615384615,-2.800066488918518,-1.2267150257608987,0.9394086413679262
1970-01-01 00:00:00.000000000,0.1923076923076923,-4.134613633027343,-2.5097609433387698,0.9394086413679262
1970-01-01 00:00:00.000000000,0.8557692307692307,-5.584501602819763,-4.0368304443858785,0.9394086413679262
1970-01-01 00:00:00.000000000,1.5480769230769231,-7.396929643106269,-5.234661055079936,0.9394086413679262
1970-01-01 00:00:00.000000000,2.567307692307692,-8.882598761049499,-6.049018042772401,0.9394086413679262
1970-01-01 00:00:00.000000000,3.721153846153846,-9.933236905230192,-6.588826099774884,0.9394086413679262
1970-01-01 00:00:00.000000000,4.624999999999999,-10.81479768016572,-6.349286651149467,0.9394086413679262
1970-01-01 00:00:00.000000000,5.086538461538461,-11.816300459244195,-5.341913481260723,0.9394086413679262
1970-01-01 00:00:00.000000000,5.586538461538461,-12.975314719427505,-4.382377342890052,0.9394086413679262
1970-01-01 00:00:00.000000000,6.490384615384615,-14.017196965298421,-4.482274776770704,0.9394086413679262
1970-01-01 00:00:00.000000000,7.490384615384615,-14.989003343629859,-5.889041629918978,0.9394086413679262
1970-01-01 00:00:00.000000000,8.634615384615385,-15.685893312707805,-7.521849231041712,0.9394086413679262
1970-01-01 00:00:00.000000000,9.5,-16.280116099480882,-8.700887608207248,0.9394086413679262
1970-01-01 00:00:00.000000000,9.913461538461538,-16.627241373276014,-8.652116190553976,0.9394086413679262
1970-01-01 00:00:00.000000000,9.75,-16.655400978971517,-7.656249536750126,0.9394086413679262
1970-01-01 00:00:00.000000000,8.826923076923077,-16.068585058954984,-6.31662130169941,0.9394086413679262
1970-01-01 00:00:00.000000000,7.884615384615383,-15.196395612813093,-4.392525609133932,0.9394086413679262
1970-01-01 00:00:00.000000000,7.0,-14.484096486998569,-2.5315701449167447,0.9394086413679262
1970-01-01 00:00:00.000000000,6.019230769230768,-13.124209536148248,-1.2098683036181814,0.9394086413679262
1970-01-01 00:00:00.000000000,4.841346153846153,-11.869560989004125,-0.6348740527741542,0.9394086413679262
1970-01-01 00:00:00.000000001,2.865384615384615,-11.228937166963112,-1.3067311212839827,0.9394086413679262
1970-01-01 00:00:00.000000001,0.8557692307692307,-11.311742518999928,-2.146866221893378,0.9394086413679262
1970-01-01 00:00:00.000000001,-1.8269230769230766,-11.438110846034903,-2.6586568698372135,0.9394086413679262
1970-01-01 00:00:00.000000001,-5.0,-10.76725032394243,-2.136869263711377,0.9394086413679262
1970-01-01 00:00:00.000000001,-9.201923076923077,-8.027647900410727,-0.03681325036995861,0.9394086413679262
1970-01-01 00:00:00.000000001,-14.913461538461537,-1.9792429871471935,3.6429115037225,0.9394086413679262
1970-01-01 00:00:00.000000001,-21.624999999999996,5.088087247436485,6.645423850877462,0.9394086413679262
1970-01-01 00:00:00.000000001,-28.730769230769226,10.107598667932283,7.533532469968965,0.9394086413679262
1970-01-01 00:00:00.000000001,-33.61538461538461,14.56707678673509,7.009952838284605,0.9394086413679262
1970-01-01 00:00:00.000000001,-33.98076923076923,19.453474573915102,6.235194163715379,0.9394086413679262
1970-01-01 00:00:00.000000001,-31.21153846153846,21.426736708972633,6.090289582030623,0.9394086413679262
1970-01-01 00:00:00.000000001,-26.31730769230769,19.568416568346066,6.202624551111452,0.9394086413679262
1970-01-01 00:00:00.000000001,-20.009615384615383,15.920510636371167,5.880573297978582,0.9394086413679262
1970-01-01 00:00:00.000000001,-13.413461538461537,12.035370613675447,4.822854494310279,0.9394086413679262
1970-01-01 00:00:00.000000001,-7.807692307692307,8.784495932865893,3.3364980483989473,0.9394086413679262
1970-01-01 00:00:00.000000001,-3.2115384615384612,7.3960195737036605,1.762592812461308,0.9394086413679262
1970-01-01 00:00:00.000000001,-0.08653846153846152,7.4080325571329535,0.5035078880563683,0.9394086413679262
1970-01-01 00:00:00.000000001,2.1634615384615383,7.8708594688861,-0.41787983493936437,0.9394086413679262
1970-01-01 00:00:00.000000001,4.028846153846154,8.105173102791735,-1.536263431419208,0.9394086413679262
1970-01-01 00:00:00.000000001,6.0,7.7188143064907475,-3.0612328133792497,0.9394086413679262
1970-01-01 00:00:00.000000001,8.153846153846153,7.052813172458432,-4.617022529820535,0.9394086413679262
1970-01-01 00:00:00.000000001,10.192307692307692,6.207141349886939,-5.598375491775191,0.9394086413679262
1970-01-01 00:00:00.000000001,12.0,5.29000327448892,-5.7891157481096425,0.9394086413679262
1970-01-01 00:00:00.000000001,13.663461538461538,4.622947061313892,-5.2077497071851475,0.9394086413679262
1970-01-01 00:00:00.000000001,15.528846153846152,4.279567380986146,-4.070126345889346,0.9394086413679262
1970-01-01 00:00:00.000000001,17.25,4.425372225312065,-2.935661631827202,0.9394086413679262
1970-01-01 00:00:00.000000001,18.25,4.45548270243962,-2.1927377134451236,0.9394086413679262
1970-01-01 00:00:00.000000001,18.499999999999996,3.872660740557681,-1.7682566311911287,0.9394086413679262
1970-01-01 00:00:00.000000001,18.14423076923077,3.1063572926177665,-1.3001913287153515,0.9394086413679262
1970-01-01 00:00:00.000000001,17.134615384615383,2.7489861601220063,-1.0869092441233603,0.9394086413679262
1970-01-01 00:00:00.000000001,15.788461538461538,2.866269030676403,-1.2963582626153762,0.9394086413679262
1970-01-01 00:00:00.000000001,14.21153846153846,3.640277668140882,-1.4147638464918013,0.9394086413679262
1970-01-01 00:00:00.000000001,12.663461538461537,4.921228009127407,-1.4022655926632637,0.9394086413679262
1970-01-01 00:00:00.000000001,11.028846153846153,6.4828785782991085,-1.1964071554163187,0.9394086413679262
1970-01-01 00:00:00.000000001,9.644230769230768,8.366493604948532,-0.4007276035773395,0.9394086413679262
1970-01-01 00:00:00.000000001,8.269230769230768,10.162448755311274,0.8767618588281505,0.9394086413679262
1970-01-01 00:00:00.000000001,6.596153846153846,12.019622788455868,2.3232977919374,0.9394086413679262
1970-01-01 00:00:00.000000001,3.7596153846153846,13.867366532997194,3.852278523481654,0.9394086413679262
1970-01-01 00:00:00.000000001,-0.41346153846153844,15.399273602468346,4.938222342067249,0.9394086413679262
1970-01-01 00:00:00.000000001,-4.634615384615384,15.913020733648189,4.729724712334043,0.9394086413679262
1970-01-01 00:00:00.000000001,-8.490384615384615,16.75228620603276,3.264344890951937,0.9394086413679262
1970-01-01 00:00:00.000000001,-12.403846153846153,19.898706829236325,2.907587343368256,0.9394086413679262
1970-01-01 00:00:00.000000001,-17.009615384615383,22.512798183347897,5.49051337999097,0.9394086413679262
1970-01-01 00:00:00.000000001,-23.125,22.446844121156897,9.336273916387938,0.9394086413679262
1970-01-01 00:00:00.000000001,-29.788461538461537,22.801993087888306,11.838882362483355,0.9394086413679262
1970-01-01 00:00:00.000000001,-34.5576923076923,22.95696925182739,13.063549870662623,0.9394086413679262
1970-01-01 00:00:00.000000001,-34.84615384615385,18.536176711451198,13.1269641454075,0.9394086413679262
1970-01-01 00:00:00.000000001,-30.65384615384615,9.519801957354979,11.614482055339927,0.9394086413679262
1970-01-01 00:00:00.000000001,-23.644230769230766,0.9984761371332493,8.71405134877056,0.9394086413679262
1970-01-01 00:00:00.000000001,-16.548076923076923,-4.560946254757251,6.164904361465256,0.9394086413679262
1970-01-01 00:00:00.000000001,-11.21153846153846,-7.394025015579024,5.488366410791354,0.9394086413679262
1970-01-01 00:00:00.000000001,-7.836538461538461,-8.327729165876399,6.020988729901279,0.9394086413679262
1970-01-01 00:00:00.000000001,-5.567307692307692,-8.704662463083706,6.328329296543184,0.9394086413679263
1970-01-01 00:00:00.000000001,-3.7115384615384612,-9.448157337383707,5.59390227676466,0.9394086413679278
1970-01-01 00:00:00.000000001,-2.2115384615384612,-10.645585646276391,3.7070321761026306,0.9394086413679671
1970-01-01 00:00:00.000000001,-0.5,-11.982655112078806,1.4959664780063642,0.9394086413690291
1970-01-01 00:00:00.000000001,1.3557692307692306,-13.136102379851357,-0.0659372699307928,0.939408641397665
1970-01-01 00:00:00.000000001,3.0,-13.942109143907814,-0.5262727661377645,0.9394086421697706
1970-01-01 00:00:00.000000001,4.0673076923076925,-14.800844505659606,-0.14342741578884963,0.9394086629879863
1970-01-01 00:00:00.000000001,4.653846153846153,-15.93069250890159,0.9037325398388258,0.9394092243077047
1970-01-01 00:00:00.000000001,5.067307692307692,-17.327853234683353,2.044205991437142,0.9394243591218848
1970-01-01 00:00:00.000000001,5.2980769230769225,-19.171344827549046,2.2898292289640056,0.9398324377850286
1970-01-01 00:00:00.000000001,5.711538461538462,-21.048457109140834,1.7811831905910107,0.9508354268757298
1970-01-01 00:00:00.000000001,6.336538461538461,-22.88699711925345,0.8021169169932788,1.247508053661519
1970-01-01 00:00:00.000000001,7.307692307692307,-24.65046511070226,-0.3740264317724854,1.2585110427522201
1970-01-01 00:00:00.000000001,8.769230769230768,-25.925560869707468,-1.4008305748503815,1.2589191214153639
1970-01-01 00:00:00.000000001,10.10576923076923,-26.339678371399323,-1.948399089187818,1.258934256229544
1970-01-01 00:00:00.000000001,10.538461538461538,-26.245755158074243,-1.2059448332207017,1.2589348175492623
1970-01-01 00:00:00.000000001,10.288461538461537,-26.295710896605243,0.6378885922288737,1.258934838367478
1970-01-01 00:00:00.000000001,10.21153846153846,-25.98843905026733,2.428936823400288,1.2589348391395836
1970-01-01 00:00:00.000000001,9.865384615384615,-25.392143460612704,3.1934056395788963,1.2589348391682196
1970-01-01 00:00:00.000000001,8.894230769230768,-24.34943438627569,3.0430154452299085,1.2589348391692816
1970-01-01 00:00:00.000000001,6.499999999999999,-21.79258496883085,2.218011381628637,1.258934839169321
1970-01-01 00:00:00.000000001,2.942307692307692,-17.80035977215728,1.5932918587432923,1.2589348391693225
1970-01-01 00:00:00.000000001,-1.2884615384615383,-13.067128879415726,1.3008688044402519,1.2589348391693225
1970-01-01 00:00:00.000000001,-5.673076923076923,-8.012119972067367,0.7801658611435094,1.2589348391693225
1970-01-01 00:00:00.000000001,-9.115384615384615,-7.260110366403238,-0.48639055356549743,1.2589348391693225
1970-01-01 00:00:00.000000001,-11.201923076923077,-11.010859920820067,-1.6627108074119397,1.2589348391693225
1970-01-01 00:00:00.000000001,-12.576923076923077,-12.283107495738607,-2.406801246556876,1.2589348391693225
1970-01-01 00:00:00.000000001,-16.028846153846153,-4.133042464122281,-0.3209228496237132,1.2589348391693225
1970-01-01 00:00:00.000000001,-26.94230769230769,6.69096096443704,2.991884306716619,1.2589348391693225
1970-01-01 00:00:00.000000001,-42.16346153846153,14.53898850392235,6.351799130972417,1.2589348391693225
1970-01-01 00:00:00.000000001,-48.40384615384615,25.11172864146645,7.256692229538626,1.2589348391693225
1970-01-01 00:00:00.000000001,-45.91346153846153,31.977684815671648,3.8288910665704705,1.2589348391693225
1970-01-01 00:00:00.000000001,-37.38461538461539,30.535761381667914,0.8733665678640736,1.2589348391693225
1970-01-01 00:00:00.000000001,-26.951923076923077,24.23787248936198,-1.4979937342404823,1.2589348391693225
1970-01-01 00:00:00.000000001,-16.942307692307693,17.88679583110554,-5.319197392357097,1.2589348391693225
1970-01-01 00:00:00.000000001,-7.798076923076922,11.705614950487652,-8.620335859401129,1.2589348391693225
1970-01-01 00:00:00.000000001,-0.9807692307692307,7.164807832061045,-7.179870811473345,1.2589348391693225
1970-01-01 00:00:00.000000001,4.269230769230769,4.744196515160555,-4.486176050379189,1.2589348391693225
1970-01-01 00:00:00.000000001,7.576923076923076,3.428498077273925,-1.9468825487647656,1.2589348391693225
1970-01-01 00:00:00.000000001,9.01923076923077,3.3252515712354254,-0.07965276626948686,1.2589348391693225
1970-01-01 00:00:00.000000001,9.634615384615383,3.1032943460825555,1.2962578594886216,1.2589348391693225
1970-01-01 00:00:00.000000001,10.326923076923077,2.713695772993575,2.3286149724622653,1.2589348391693225
1970-01-01 00:00:00.000000001,10.711538461538462,2.416491524743961,2.576346396992552,1.2589348391693225
1970-01-01 00:00:00.000000001,11.057692307692307,2.7815753950933684,2.482737746336641,1.2589348391693225
1970-01-01 00:00:00.000000001,11.317307692307692,3.18604414277698,1.9575727540967587,1.2589348391693225
1970-01-01 00:00:00.000000001,11.884615384615383,2.9916164598850883,1.3717266142758426,1.2589348391693225
1970-01-01 00:00:00.000000001,12.923076923076922,2.0876002741204003,0.8290458313509892,1.2589348391693225
1970-01-01 00:00:00.000000002,14.173076923076922,0.8735909413657136,0.5125108322008674,1.2589348391693225
1970-01-01 00:00:00.000000002,15.173076923076922,-0.500644857246132,0.258746638072427,1.2589348391693225
1970-01-01 00:00:00.000000002,15.548076923076923,-2.141002087011277,-0.27635160424533917,1.2589348391693225
1970-01-01 00:00:00.000000002,15.509615384615381,-3.5564114920583516,-1.2202399526965844,1.2589348391693225
1970-01-01 00:00:00.000000002,15.346153846153845,-4.132108198564225,-2.6701271185624402,1.2589348391693225
1970-01-01 00:00:00.000000002,14.96153846153846,-4.010509869175733,-3.6231922484892922,1.2589348391693225
1970-01-01 00:00:00.000000002,14.634615384615383,-3.4016582691805533,-3.9060635906484493,1.2589348391693225
1970-01-01 00:00:00.000000002,13.865384615384613,-2.334263398699208,-4.090524699018827,1.2589348391693225
1970-01-01 00:00:00.000000002,12.740384615384615,-0.6234534956980526,-3.5381032828598693,1.2589348391693225
1970-01-01 00:00:00.000000002,11.269230769230768,1.7510190148517837,-2.1882639381976428,1.2589348391693225
1970-01-01 00:00:00.000000002,9.403846153846152,4.150966896696216,-0.795023048476491,1.2589348391693225
1970-01-01 00:00:00.000000002,7.211538461538461,6.3250871959460575,0.2226416293323842,1.2589348391693225
1970-01-01 00:00:00.000000002,3.8076923076923075,8.376387393847324,1.5563470404508668,1.2589348391693225
1970-01-01 00:00:00.000000002,-1.3269230769230766,11.587372437931691,4.048728462841016,1.2589348391693225
1970-01-01 00:00:00.000000002,-8.538461538461538,15.232668430308346,6.009321456256565,1.2589348391693225
1970-01-01 00:00:00.000000002,-15.173076923076922,19.94467518039364,8.95295085608625,1.2589348391693225
1970-01-01 00:00:00.000000002,-19.04807692307692,28.02356144032004,11.970351658072207,1.2589348391693225
1970-01-01 00:00:00.000000002,-28.581730769230766,28.691483708247404,13.746543911863364,1.2589348391693225
1970-01-01 00:00:00.000000002,-31.711538461538456,26.146498682359827,14.936333962238619,1.2589348391693225
1970-01-01 00:00:00.000000002,-29.29807692307692,20.013980715467905,13.534473068579382,1.2589348391693225
1970-01-01 00:00:00.000000002,-22.105769230769226,7.980980635273651,10.494438889404732,1.2589348391693225
1970-01-01 00:00:00.000000002,-12.278846153846152,-2.027503563079347,6.690376945348368,1.2589348391693225
1970-01-01 00:00:00.000000002,-8.163461538461538,-7.098576838416021,5.270738635001211,1.2589348391693225
1970-01-01 00:00:00.000000002,-6.326923076923077,-9.134071074153207,4.119566199684349,1.2589348391693225
1970-01-01 00:00:00.000000002,-4.278846153846153,-10.2713421637206,2.7075487564762066,1.2589348391693225
1970-01-01 00:00:00.000000002,-2.2692307692307687,-11.192167346302984,1.7342502251732261,1.2589348391693225
1970-01-01 00:00:00.000000002,-1.3365384615384612,-11.417176186459956,0.8672073232008987,1.2589348391693225
1970-01-01 00:00:00.000000002,0.1394230769230769,-10.571589688115836,1.43034750125104,1.2589348391693225
1970-01-01 00:00:00.000000002,2.1394230769230766,-13.015745392667645,2.6271752105771866,1.2589348391693225
1970-01-01 00:00:00.000000002,4.3173076923076925,-16.728535913910573,3.253383184332996,1.2589348391693225
1970-01-01 00:00:00.000000002,5.788461538461537,-19.154724282917797,3.339170766413709,1.2589348391693225
1970-01-01 00:00:00.000000002,6.913461538461538,-20.699019724869874,2.6542275088371525,1.2589348391693225
1970-01-01 00:00:00.000000002,8.85576923076923,-23.71880828856882,1.0749719721894082,1.2589348391693225
1970-01-01 00:00:00.000000002,10.884615384615383,-27.33380406648828,-0.12998425972312813,1.2589348391693225
1970-01-01 00:00:00.000000002,11.874999999999998,-29.043901506614745,-0.08454698471386789,1.2589348391693225
1970-01-01 00:00:00.000000002,11.865384615384615,-29.351536612109797,1.3472156724486968,1.2589348391693225
1970-01-01 00:00:00.000000002,10.673076923076922,-28.197587020349836,3.459370140828682,1.2589348391693225
1970-01-01 00:00:00.000000002,8.625,-25.98331293733585,4.305778129925714,1.2589348391693225
1970-01-01 00:00:00.000000002,6.067307692307692,-22.851862287718127,3.046639367165608,1.2589348391693225
1970-01-01 00:00:00.000000002,3.817307692307692,-18.766968831053617,0.7034847835457138,1.2589348391693225
1970-01-01 00:00:00.000000002,1.7980769230769231,-14.606296150729621,-1.5525502114313248,1.2589348391693225
1970-01-01 00:00:00.000000002,-0.07692307692307691,-11.103027238646174,-2.1223404921914804,1.2589348391693225
1970-01-01 00:00:00.000000002,-2.2692307692307687,-8.925439292717057,-1.0006430777386388,1.2589348391693225
1970-01-01 00:00:00.000000002,-4.846153846153846,-7.633833664714352,0.8549773932482316,1.2589348391693225
1970-01-01 00:00:00.000000002,-8.846153846153845,-6.938069654570436,1.8350326954408898,1.2589348391693225
1970-01-01 00:00:00.000000002,-13.81730769230769,-4.944047008687408,1.4409053836557961,1.2589348391693225
1970-01-01 00:00:00.000000002,-18.192307692307693,1.9488004200104105,1.819412663265604,1.2589348391693225
1970-01-01 00:00:00.000000002,-23.307692307692303,11.811658348968486,2.9332365245155114,1.2589348391693251
1970-01-01 00:00:00.000000002,-33.96153846153846,14.9659750021387,5.627973498653213,1.2589348391693944
1970-01-01 00:00:00.000000002,-40.93269230769231,19.519666708776423,12.272047939121228,1.2589348391712634
1970-01-01 00:00:00.000000002,-39.49999999999999,28.06502613482475,16.467320857619967,1.2589348392216564
1970-01-01 00:00:00.000000002,-33.567307692307686,29.48603893149172,15.345615216617931,1.2589348405803957
1970-01-01 00:00:00.000000002,-24.19230769230769,24.308025015451708,11.364289991064108,1.2589348772159659
1970-01-01 00:00:00.000000002,-14.134615384615383,16.83063648570443,6.4902145421129696,1.25893586501762
1970-01-01 00:00:00.000000002,-5.60576923076923,9.619160098567923,2.12150264598608,1.2589624990267114
1970-01-01 00:00:00.000000002,0.08653846153846152,5.136686175629504,-1.4596431004887997,1.2596806294705252
1970-01-01 00:00:00.000000002,3.009615384615384,3.8213666434286897,-3.281866359183662,1.2790435174444035
1970-01-01 00:00:00.000000002,4.096153846153846,4.290213196945119,-4.650748597470067,1.801123362295306
1970-01-01 00:00:00.000000002,4.98076923076923,4.264389674089529,-4.788345772508136,1.8204862502691843
1970-01-01 00:00:00.000000002,5.653846153846153,3.5983080034721477,-3.8845872602495954,1.8212043807129978
1970-01-01 00:00:00.000000002,6.826923076923076,2.889926419658454,-4.095510254230956,1.8212310147220894
1970-01-01 00:00:00.000000002,7.730769230769229,2.1797053273061118,-4.444189603986215,1.8212320025237434
1970-01-01 00:00:00.000000002,8.432692307692307,1.7121174176065617,-4.397609053396856,1.8212320391593135
1970-01-01 00:00:00.000000002,8.98076923076923,1.0474649480710547,-4.541254837728916,1.8212320405180529
1970-01-01 00:00:00.000000002,10.173076923076922,-0.18056381968809082,-4.216271565283877,1.821232040568446
1970-01-01 00:00:00.000000002,11.557692307692307,-1.6726880796495087,-3.2980774249357756,1.8212320405703148
1970-01-01 00:00:00.000000002,12.423076923076922,-2.982014330848642,-2.0818189079820675,1.8212320405703841
1970-01-01 00:00:00.000000002,12.961538461538462,-3.5916988532638268,-0.9110330905800511,1.8212320405703868
1970-01-01 00:00:00.000000002,12.894230769230768,-3.243854707274676,0.23392546232069034,1.8212320405703868
1970-01-01 00:00:00.000000002,12.999999999999998,-2.4923782431524253,0.9770205732386893,1.8212320405703868
1970-01-01 00:00:00.000000002,13.75,-2.550357857840804,1.645630015123919,1.8212320405703868
1970-01-01 00:00:00.000000002,14.721153846153845,-3.117283918549293,2.4549898351071264,1.8212320405703868
1970-01-01 00:00:00.000000002,15.33653846153846,-3.86630794299011,3.1390955327684855,1.8212320405703868
1970-01-01 00:00:00.000000002,15.432692307692307,-4.023030542183665,3.800589549641986,1.8212320405703868
1970-01-01 00:00:00.000000002,14.913461538461537,-3.005516695968862,4.226822307565141,1.8212320405703868
1970-01-01 00:00:00.000000002,13.653846153846152,-1.1259202489756155,4.3236127546168035,1.8212320405703868
1970-01-01 00:00:00.000000002,11.740384615384615,1.6056699736272442,4.51072206708855,1.8212320405703868
1970-01-01 00:00:00.000000002,9.096153846153847,4.979009536911199,4.965883056774046,1.8212320405703868
1970-01-01 00:00:00.000000002,6.125,8.827587522975112,5.5681204658106775,1.8212320405703868
1970-01-01 00:00:00.000000002,1.8749999999999998,12.615853583416797,6.3733695201142515,1.8212320405703868
1970-01-01 00:00:00.000000002,-3.7499999999999996,16.300459229278474,8.012856577274123,1.8212320405703868
1970-01-01 00:00:00.000000002,-9.201923076923077,20.996545607101957,10.473758066287028,1.8212320405703868
1970-01-01 00:00:00.000000002,-14.96153846153846,27.10627216247432,12.778611212475607,1.8212320405703868
1970-01-01 00:00:00.000000002,-20.182692307692303,30.622802779704564,15.548744670554363,1.8212320405703868
1970-01-01 00:00:00.000000002,-24.048076923076923,27.459402889548894,18.287494892492198,1.8212320405703868
1970-01-01 00:00:00.000000002,-25.826923076923073,23.28107523811557,18.963617426735,1.8212320405703868
1970-01-01 00:00:00.000000002,-27.471153846153843,19.129628539571417,17.480175629352747,1.8212320405703868
1970-01-01 00:00:00.000000002,-26.54807692307692,14.218895330312703,14.751124565789215,1.8212320405703868
1970-01-01 00:00:00.000000002,-22.615384615384613,7.5305453788716,10.800187646956038,1.8212320405703868
1970-01-01 00:00:00.000000002,-17.326923076923077,1.1058298992205124,6.10394190202381,1.8212320405703868
1970-01-01 00:00:00.000000002,-12.317307692307692,-3.1731380999177503,2.506243707686849,1.8212320405703868
1970-01-01 00:00:00.000000002,-8.894230769230768,-5.780558596999762,0.5646382055211148,1.8212320405703868
1970-01-01 00:00:00.000000003,-6.778846153846153,-7.151944019075805,-0.2610121586167453,1.8212320405703868
1970-01-01 00:00:00.000000003,-5.278846153846153,-8.07192991804698,-0.3619664881732343,1.8212320405703868
1970-01-01 00:00:00.000000003,-3.6730769230769225,-9.290163768192627,-0.012083022060579906,1.8212320405703868
1970-01-01 00:00:00.000000003,-2.2692307692307687,-10.762491823153995,0.03572489253757641,1.8212320405703868
1970-01-01 00:00:00.000000003,-0.36538461538461536,-11.797115456965287,0.47665512057514314,1.8212320405703868
1970-01-01 00:00:00.000000003,1.2884615384615383,-13.259625514908778,1.333963362991288,1.8212320405703868
1970-01-01 00:00:00.000000003,2.490384615384615,-15.212773445571722,2.040355680189632,1.8212320405703868
1970-01-01 00:00:00.000000003,3.2692307692307687,-17.485257515527746,2.7556400021287737,1.8212320405703868
1970-01-01 00:00:00.000000003,4.115384615384615,-19.38917947367741,2.8619243772872562,1.8212320405703868
1970-01-01 00:00:00.000000003,4.98076923076923,-21.02258827376232,2.5163181846271465,1.8212320405703868
1970-01-01 00:00:00.000000003,5.7980769230769225,-22.72070391790527,2.078666607645699,1.8212320405703868
1970-01-01 00:00:00.000000003,6.4326923076923075,-24.686417509679924,1.3576802218067408,1.8212320405703868
1970-01-01 00:00:00.000000003,7.567307692307692,-26.562568843452546,0.828699381136298,1.8212320405703868
1970-01-01 00:00:00.000000003,8.442307692307692,-28.002941263538798,0.5172030688733085,1.8212320405703868
1970-01-01 00:00:00.000000003,9.278846153846153,-30.26684527209499,0.3857834784430327,1.8212320405703868
1970-01-01 00:00:00.000000003,10.83653846153846,-31.701881083025935,0.3989508490885731,1.8212320405703868
1970-01-01 00:00:00.000000003,11.288461538461538,-31.433943969605206,0.1358894469484407,1.8212320405703868
1970-01-01 00:00:00.000000003,9.759615384615383,-29.514606096314594,0.5200642185193265,1.8212320405703868
1970-01-01 00:00:00.000000003,7.288461538461538,-25.960420630888915,0.9058444530733717,1.8212320405703868
1970-01-01 00:00:00.000000003,4.394230769230769,-21.416750937686096,0.937736014461708,1.8212320405703868
1970-01-01 00:00:00.000000003,1.990384615384615,-17.541854686635716,0.9130279373927467,1.8212320405703868
1970-01-01 00:00:00.000000003,0.43269230769230765,-15.21332560147822,0.4640182951424502,1.8212320405703868
1970-01-01 00:00:00.000000003,-0.3461538461538461,-13.96793655327623,-0.8845339685465896,1.8212320405703868
1970-01-01 00:00:00.000000003,-2.442307692307692,-13.17096133698001,-3.0964354459003705,1.8212320405703868
1970-01-01 00:00:00.000000003,-8.038461538461537,-10.89801954518406,-4.219223070763409,1.8212320405703868
1970-01-01 00:00:00.000000003,-17.54807692307692,-4.32556638298961,-3.5725874647116624,1.8212320405703868
1970-01-01 00:00:00.000000003,-26.615384615384613,8.607727204464588,-0.2406384764514757,1.8212320405703868
1970-01-01 00:00:00.000000003,-33.567307692307686,20.234200903533484,3.325348600521821,1.8212320405703868
1970-01-01 00:00:00.000000003,-42.20192307692307,19.71569719093945,7.525050690540648,1.8212320405703868
1970-01-01 00:00:00.000000003,-43.730769230769226,19.339623251831686,11.351020044075673,1.8212320405703868
1970-01-01 00:00:00.000000003,-37.07692307692307,22.45413060851608,10.202490499502527,1.8212320405703868
1970-01-01 00:00:00.000000003,-29.40384615384615,21.421903178102546,6.366223442492551,1.8212320405703868
1970-01-01 00:00:00.000000003,-22.201923076923073,17.68725520025268,3.185542447796341,1.8212320405703868
1970-01-01 00:00:00.000000003,-15.153846153846152,13.13398722871978,1.8934226480086722,1.8212320405703868
1970-01-01 00:00:00.000000003,-8.98076923076923,9.430399975181361,1.68686904843781,1.8212320405703868
1970-01-01 00:00:00.000000003,-4.211538461538461,7.486812101176959,-0.8479583401878057,1.8212320405703868
1970-01-01 00:00:00.000000003,-0.6826923076923076,5.463526756596527,-2.8317442335085574,1.8212320405703868
1970-01-01 00:00:00.000000003,0.8653846153846153,4.278410326929286,-2.1091359645432393,1.8212320405703868
1970-01-01 00:00:00.000000003,2.2788461538461537,4.053552070494211,-2.114926809158907,1.8212320405703868
1970-01-01 00:00:00.000000003,3.6634615384615383,3.667495576414411,-2.4938878827472566,1.8212320405703868
1970-01-01 00:00:00.000000003,5.336538461538461,3.218828492694881,-2.720046025017012,1.8212320405703868
1970-01-01 00:00:00.000000003,6.932692307692307,2.7408737263473655,-2.9473547927120625,1.8212320405703868
1970-01-01 00:00:00.000000003,8.221153846153847,2.5347621186839873,-2.858533378208674,1.8212320405703868
1970-01-01 00:00:00.000000003,9.076923076923075,2.697703478120288,-1.9830464189221424,1.8212320405703868
1970-01-01 00:00:00.000000003,9.836538461538462,2.8032317905637876,-0.4337199326891771,1.8212320405703868
1970-01-01 00:00:00.000000003,11.08653846153846,3.239554867101982,1.0226082363143598,1.8212320405703868
1970-01-01 00:00:00.000000003,12.60576923076923,3.9147496211897193,1.7941423131768945,1.8212320405703868
1970-01-01 00:00:00.000000003,14.076923076923077,4.208684905020434,1.6692342194617882,1.8212320405703868
1970-01-01 00:00:00.000000003,15.326923076923075,3.969742814361962,0.5251816122913864,1.8212320405703868
1970-01-01 00:00:00.000000003,16.057692307692307,3.7243710827525347,-1.239330687594354,1.8212320405703868
1970-01-01 00:00:00.000000003,15.913461538461538,3.5882764199564723,-2.487110177338944,1.8212320405703868
1970-01-01 00:00:00.000000003,15.067307692307692,3.6590922560722166,-2.912644100557127,1.8212320405703868
1970-01-01 00:00:00.000000003,13.740384615384613,3.9572144939933764,-2.9042805377034684,1.8212320405703841
1970-01-01 00:00:00.000000003,12.58653846153846,4.685699081748952,-2.2529304174365263,1.821232040570314
1970-01-01 00:00:00.000000003,11.56730769230769,5.806660713228334,-1.6748407330827464,1.821232040568422
1970-01-01 00:00:00.000000003,10.663461538461537,6.594140175416066,-0.7177693757976257,1.82123204051741
1970-01-01 00:00:00.000000003,9.336538461538462,7.735124023005444,0.04506758654685347,1.821232039141977
1970-01-01 00:00:00.000000003,6.740384615384615,10.254208445730923,-0.0654057874373311,1.8212320020562989
1970-01-01 00:00:00.000000003,2.6346153846153846,13.628504011729449,0.6889761526452082,1.8212310021184208
1970-01-01 00:00:00.000000003,-5.788461538461537,17.215399870964244,3.4177619088579525,1.821204040881391
1970-01-01 00:00:00.000000003,-15.096153846153845,19.8122925043052,6.215595386519502,1.8204770874194651
1970-01-01 00:00:00.000000003,-19.14903846153846,27.21649774527617,11.403313527168608,1.8008763051844987
1970-01-01 00:00:00.000000003,-25.21153846153846,24.03314661815132,16.923869847032925,1.2723821383023268
1970-01-01 00:00:00.000000003,-25.389423076923077,17.678460944809455,19.79117234272034,1.2527813560673604
1970-01-01 00:00:00.000000003,-24.0,10.535298891703967,15.312783406416273,1.2520544026054348
1970-01-01 00:00:00.000000003,-22.125,3.5246091311976806,12.153979630519055,1.252027441368405
1970-01-01 00:00:00.000000003,-18.413461538461537,-1.8708523493665725,9.594666617598225,1.2520264414305267
1970-01-01 00:00:00.000000003,-14.163461538461538,-5.537622564095134,7.902019044632978,1.2520264043448486
1970-01-01 00:00:00.000000003,-9.437499999999998,-9.394956881202026,6.509847587492195,1.2520264029694155
1970-01-01 00:00:00.000000003,-6.269230769230768,-11.87621322835955,4.988865817656299,1.2520264029184036
1970-01-01 00:00:00.000000003,-4.701923076923076,-13.262800284505841,3.4395294892278647,1.2520264029165116
1970-01-01 00:00:00.000000003,-2.533653846153846,-14.719394453298179,1.1284303914960432,1.2520264029164416
1970-01-01 00:00:00.000000003,0.6826923076923076,-16.160849954544986,-0.34690891883469904,1.2520264029164387
1970-01-01 00:00:00.000000003,2.5,-17.623554319416385,-1.2449712000329123,1.2520264029164387
1970-01-01 00:00:00.000000003,3.7596153846153846,-19.42511666969742,-1.017313482053932,1.2520264029164387
1970-01-01 00:00:00.000000003,4.701923076923076,-21.35459576241384,0.027507184576747605,1.2520264029164387
1970-01-01 00:00:00.000000003,5.5480769230769225,-22.89896891547622,1.260007465626118,1.2520264029164387
1970-01-01 00:00:00.000000003,5.740384615384615,-23.667564955444163,1.9926943873284353,1.2520264029164387
1970-01-01 00:00:00.000000003,5.759615384615384,-23.875284881516134,2.542740992241633,1.2520264029164387
1970-01-01 00:00:00.000000003,5.865384615384614,-24.215126845491373,2.661312403195654,1.2520264029164387
1970-01-01 00:00:00.000000003,6.317307692307692,-25.183139946750963,2.0626938940410247,1.2520264029164387
1970-01-01 00:00:00.000000003,7.096153846153846,-26.97965171678466,0.7814227359120246,1.2520264029164387
1970-01-01 00:00:00.000000003,7.913461538461538,-29.01745640643491,0.28571997558364,1.2520264029164387
1970-01-01 00:00:00.000000003,8.375,-30.24167125695793,0.9330166048462551,1.2520264029164387
1970-01-01 00:00:00.000000003,7.884615384615383,-30.257667531429146,2.9057283552652473,1.2520264029164387
1970-01-01 00:00:00.000000003,6.586538461538461,-28.715352091629075,4.7716489873154195,1.2520264029164387
1970-01-01 00:00:00.000000003,4.653846153846153,-25.806838942555867,5.178794302251083,1.2520264029164387
1970-01-01 00:00:00.000000003,2.144230769230769,-21.819299357379272,4.555797173463815,1.2520264029164387
1970-01-01 00:00:00.000000003,-0.9903846153846153,-17.06424370668449,3.5777293812719067,1.2520264029164387
1970-01-01 00:00:00.000000003,-3.9903846153846154,-13.165280723101933,2.5428961208776704,1.2520264029164387
1970-01-01 00:00:00.000000003,-6.4230769230769225,-11.648335817067668,1.5804658824251925,1.2520264029164387
1970-01-01 00:00:00.000000003,-8.913461538461537,-11.58978633772515,0.6296827046025228,1.2520264029164387
1970-01-01 00:00:00.000000003,-12.576923076923077,-10.525895301511376,0.17096714184292655,1.2520264029164387
1970-01-01 00:00:00.000000003,-17.528846153846153,-5.609386803082002,0.986430125156495,1.2520264029164387
1970-01-01 00:00:00.000000004,-23.519230769230766,4.322451618297309,2.9626462373824385,1.2520264029164387
1970-01-01 00:00:00.000000004,-33.97115384615384,13.565580497109357,4.505018284169352,1.2520264029164387
1970-01-01 00:00:00.000000004,-44.192307692307686,20.948221803655322,7.92284743519008,1.2520264029164387
1970-01-01 00:00:00.000000004,-44.16346153846153,28.036408201584337,10.161862465962807,1.2520264029164387
1970-01-01 00:00:00.000000004,-36.92307692307692,29.28479963912167,7.947439145805742,1.2520264029164387
1970-01-01 00:00:00.000000004,-27.394230769230766,24.403182054700682,4.168994470792234,1.2520264029164387
1970-01-01 00:00:00.000000004,-19.384615384615383,18.101115837796787,1.6154115655845829,1.2520264029164387
1970-01-01 00:00:00.000000004,-13.548076923076922,13.57694556581254,1.1971177999915021,1.2520264029164387
1970-01-01 00:00:00.000000004,-8.942307692307692,11.726414439141783,1.2067690341859771,1.2520264029164387
1970-01-01 00:00:00.000000004,-6.0480769230769225,12.03624429101554,-1.864353876970126,1.2520264029164387
1970-01-01 00:00:00.000000004,-2.6249999999999996,10.752181418277793,-6.5443237123793905,1.2520264029164387
1970-01-01 00:00:00.000000004,-1.0096153846153846,9.27265400248492,-6.832386357273425,1.2520264029164387
1970-01-01 00:00:00.000000004,0.41346153846153844,8.85947664881506,-5.180107934003057,1.2520264029164387
1970-01-01 00:00:00.000000004,1.6634615384615383,8.183215515521686,-4.0305278608091095,1.2520264029164387
1970-01-01 00:00:00.000000004,3.7499999999999996,6.587342270270451,-3.1441443078429048,1.2520264029164387
1970-01-01 00:00:00.000000004,6.067307692307692,4.675025781780485,-2.1113684509493185,1.2520264029164387
1970-01-01 00:00:00.000000004,8.653846153846153,2.3883538378026072,-1.6128038677886862,1.2520264029164387
1970-01-01 00:00:00.000000004,10.951923076923077,0.3105278388899181,-0.9343359793452031,1.2520264029164387
1970-01-01 00:00:00.000000004,12.855769230769228,-1.0041021877748242,-0.11426757453179767,1.2520264029164387
1970-01-01 00:00:00.000000004,14.451923076923075,-1.42128690881017,0.5991114669866654,1.2520264029164387
1970-01-01 00:00:00.000000004,15.586538461538462,-1.1206443500997643,1.2902771831717619,1.2520264029164387
1970-01-01 00:00:00.000000004,16.028846153846153,-0.5861105438834687,1.7383724786509065,1.2520264029164387
1970-01-01 00:00:00.000000004,16.115384615384617,-0.2043403347538929,0.895779740402711,1.2520264029164387
1970-01-01 00:00:00.000000004,15.826923076923077,0.3189215055283594,-0.8023194877777113,1.2520264029164387
1970-01-01 00:00:00.000000004,15.057692307692307,0.8152209840195984,-2.308405910400912,1.2520264029164387
1970-01-01 00:00:00.000000004,14.221153846153845,0.9420450630007969,-3.2746400930469166,1.2520264029164387
1970-01-01 00:00:00.000000004,13.60576923076923,1.1199957170019175,-3.606876601865835,1.2520264029164387
1970-01-01 00:00:00.000000004,13.144230769230768,1.2978392960509701,-3.3610281573306398,1.2520264029164387
1970-01-01 00:00:00.000000004,12.778846153846152,1.6716652763742779,-2.640883646061433,1.2520264029164387
1970-01-01 00:00:00.000000004,12.240384615384615,2.8371231660545373,-2.4428302863280495,1.2520264029164387
1970-01-01 00:00:00.000000004,11.10576923076923,4.930660207098234,-2.8155340847959,1.2520264029164387
1970-01-01 00:00:00.000000004,8.990384615384615,8.040702425597797,-3.3265900031612494,1.2520264029164387
1970-01-01 00:00:00.000000004,5.73076923076923,11.668305284042273,-3.002396000557837,1.2520264029164387
1970-01-01 00:00:00.000000004,1.4134615384615383,15.253540243543542,-1.7381020119003467,1.2520264029164387
1970-01-01 00:00:00.000000004,-4.336538461538461,17.427281291633342,0.32364167924847526,1.2520264029164387
1970-01-01 00:00:00.000000004,-9.85576923076923,20.03305463055669,4.226427351609174,1.2520264029164387
1970-01-01 00:00:00.000000004,-14.33653846153846,26.21519373339731,10.039896814199235,1.2520264029164387
1970-01-01 00:00:00.000000004,-18.076923076923077,32.27717617117075,14.850786631770198,1.2520264029164387
1970-01-01 00:00:00.000000004,-23.749999999999996,31.518562888213026,16.6813422435961,1.2520264029164387
1970-01-01 00:00:00.000000004,-27.115384615384613,29.224021810581036,16.795453945324418,1.2520264029164387
1970-01-01 00:00:00.000000004,-28.576923076923073,25.03002599747484,14.795914280163222,1.2520264029164387
1970-01-01 00:00:00.000000004,-27.884615384615383,17.08668012123966,13.194231619082586,1.2520264029164387
1970-01-01 00:00:00.000000004,-24.31730769230769,8.560337275996073,11.948339435066618,1.2520264029164387
1970-01-01 00:00:00.000000004,-19.913461538461537,1.542426330654341,10.410933127716092,1.2520264029164387
1970-01-01 00:00:00.000000004,-16.038461538461537,-3.164826348328861,8.64685501326785,1.2520264029164387
1970-01-01 00:00:00.000000004,-13.394230769230768,-6.242737735533578,7.054152230515806,1.2520264029164387
1970-01-01 00:00:00.000000004,-11.46153846153846,-8.139092511077736,5.815255210658899,1.2520264029164387
1970-01-01 00:00:00.000000004,-9.624999999999998,-9.51276006356528,4.7077384572744965,1.2520264029164387
1970-01-01 00:00:00.000000004,-7.624999999999999,-11.205429205184807,3.793683135752491,1.2520264029164387
1970-01-01 00:00:00.000000004,-5.4230769230769225,-13.03382847642451,3.221706208042772,1.2520264029164387
1970-01-01 00:00:00.000000004,-3.5865384615384612,-14.457939658276942,2.4423844814023674,1.2520264029164387
1970-01-01 00:00:00.000000004,-1.7115384615384615,-15.330542297052924,1.9726747898211394,1.2520264029164387
1970-01-01 00:00:00.000000004,-0.17307692307692304,-16.216702362152027,2.0698348437683998,1.2520264029164387
1970-01-01 00:00:00.000000004,0.875,-17.27042148105179,2.662865991925657,1.2520264029164387
1970-01-01 00:00:00.000000004,1.4038461538461537,-18.834677626246307,3.3275469382243377,1.2520264029164387
1970-01-01 00:00:00.000000004,1.9807692307692306,-20.265874427598465,3.6809013401314545,1.2520264029164399
1970-01-01 00:00:00.000000004,2.8076923076923075,-21.593931918912244,3.306789245324934,1.2520264029164707
1970-01-01 00:00:00.000000004,4.028846153846154,-23.270287383032088,2.3524082836417657,1.2520264029173012
1970-01-01 00:00:00.000000004,5.499999999999999,-25.203827422954024,0.9582344130027359,1.252026402939691
1970-01-01 00:00:00.000000004,7.057692307692307,-27.23305303672654,-0.4800791325678962,1.25202640354339
1970-01-01 00:00:00.000000004,8.423076923076922,-29.33860456866254,-1.1703709923359318,1.2520264198208697
1970-01-01 00:00:00.000000004,9.278846153846153,-30.90927031716203,-0.6199376605022614,1.2520268587091252
1970-01-01 00:00:00.000000004,9.298076923076922,-31.211693994712288,0.9320541587748767,1.2520386924145417
1970-01-01 00:00:00.000000004,8.365384615384613,-30.05646754006975,2.78539994742393,1.2523577635725323
1970-01-01 00:00:00.000000004,6.567307692307692,-27.56292958717104,4.023744421671224,1.2609608511328596
1970-01-01 00:00:00.000000004,4.144230769230768,-24.392631313548396,4.355699437699141,1.492925144103706
1970-01-01 00:00:00.000000004,1.644230769230769,-20.788115878635672,3.8301403962056115,1.501528231664033
1970-01-01 00:00:00.000000004,-0.625,-17.63649740961481,2.8080912598523637,1.5018473028220236
1970-01-01 00:00:00.000000004,-2.6826923076923075,-15.147314180964274,1.7383236198082164,1.50185913652744
1970-01-01 00:00:00.000000004,-4.605769230769231,-13.59098547642061,0.8766464749694798,1.5018595754156954
1970-01-01 00:00:00.000000004,-6.769230769230768,-13.809293682392186,0.18113120436773847,1.5018595916931752
1970-01-01 00:00:00.000000004,-10.019230769230768,-14.259943948168347,-0.9861039570405394,1.5018595922968743
1970-01-01 00:00:00.000000004,-14.10576923076923,-9.959192918153194,-2.0559380444623017,1.5018595923192641
1970-01-01 00:00:00.000000004,-20.02884615384615,2.3617351580321193,-1.0242232434416136,1.5018595923200946
1970-01-01 00:00:00.000000004,-31.788461538461537,14.72604218502044,1.15191047153873,1.5018595923201252
1970-01-01 00:00:00.000000004,-45.27884615384615,22.241403837519773,5.37580597498733,1.5018595923201266
1970-01-01 00:00:00.000000004,-48.88461538461539,30.291861428013487,9.494850853119173,1.5018595923201266
1970-01-01 00:00:00.000000004,-42.29807692307692,34.63885471884437,9.485167059230314,1.5018595923201266
1970-01-01 00:00:00.000000004,-25.56730769230769,26.457215980784365,6.1046597460992995,1.5018595923201266
1970-01-01 00:00:00.000000004,-11.634615384615383,13.830976762333409,4.21564608545076,1.5018595923201266
1970-01-01 00:00:00.000000004,-6.269230769230768,10.229156602217653,2.9677845610712112,1.5018595923201266
1970-01-01 00:00:00.000000004,-1.0192307692307692,9.85625149754322,-2.0854629365280597,1.5018595923201266
1970-01-01 00:00:00.000000004,1.1634615384615383,7.139633831449287,-2.7752838473288137,1.5018595923201266
1970-01-01 00:00:00.000000004,2.855769230769231,6.1638619515875455,-1.8472009413499189,1.5018595923201266
1970-01-01 00:00:00.000000004,4.759615384615384,4.784638861414446,-1.0991415691189947,1.5018595923201266
1970-01-01 00:00:00.000000004,6.259615384615384,3.521387306602475,0.9203785751370579,1.5018595923201266
1970-01-01 00:00:00.000000004,7.307692307692307,3.2928184168523726,2.199363097819554,1.5018595923201266
1970-01-01 00:00:00.000000004,8.682692307692307,3.134709948411583,2.2124250659909013,1.5018595923201266
1970-01-01 00:00:00.000000004,10.076923076923077,2.5943501902603696,2.0361136839347767,1.5018595923201266
1970-01-01 00:00:00.000000004,11.21153846153846,1.6627451886183937,2.012644400248066,1.5018595923201266
1970-01-01 00:00:00.000000004,12.346153846153845,0.7997699024362626,2.0552851227630047,1.5018595923201266
1970-01-01 00:00:00.000000004,13.432692307692307,-0.0689578228393056,2.480053914353063,1.5018595923201266
1970-01-01 00:00:00.000000004,14.567307692307692,-0.9116311190975115,2.4061705647696967,1.5018595923201266
1970-01-01 00:00:00.000000004,16.322115384615383,-1.5450823927935038,1.4865513344287558,1.5018595923201266
1970-01-01 00:00:00.000000004,17.326923076923077,-1.6805934863270917,0.8557154648067079,1.5018595923201266
1970-01-01 00:00:00.000000004,16.999999999999996,-1.0809417380379704,0.617766215352361,1.5018595923201266
1970-01-01 00:00:00.000000004,16.100961538461537,0.24516655930189132,0.32397234970703925,1.5018595923201266
1970-01-01 00:00:00.000000005,14.884615384615383,1.7004388391890373,-0.24551277326230164,1.5018595923201266
1970-01-01 00:00:00.000000005,14.057692307692305,2.6666820988021174,-0.7028172277891843,1.5018595923201266
1970-01-01 00:00:00.000000005,12.769230769230768,4.049977828468125,-0.4805523770456756,1.5018595923201266
1970-01-01 00:00:00.000000005,11.46153846153846,5.682719269837256,1.227903047555945,1.5018595923201266
1970-01-01 00:00:00.000000005,9.259615384615385,8.633442457137788,2.633934661056188,1.5018595923201266
1970-01-01 00:00:00.000000005,0.9759615384615383,14.420227072883026,4.3883328009611215,1.5018595923201266
1970-01-01 00:00:00.000000005,-11.163461538461537,22.712688510703913,7.101050964894118,1.5018595923201266
1970-01-01 00:00:00.000000005,-20.451923076923073,31.32236271612263,12.840043251180036,1.5018595923201266
1970-01-01 00:00:00.000000005,-26.057692307692307,38.491104824607106,19.830116816966893,1.5018595923201266
1970-01-01 00:00:00.000000005,-31.990384615384617,29.687467548269243,23.823110806926046,1.5018595923201266
1970-01-01 00:00:00.000000005,-29.519230769230766,17.695518978662417,21.518874970036308,1.5018595923201266
1970-01-01 00:00:00.000000005,-26.221153846153843,9.841544875615952,15.686513384054265,1.5018595923201266
1970-01-01 00:00:00.000000005,-22.865384615384613,3.026192662968304,11.266986399428841,1.5018595923201266
1970-01-01 00:00:00.000000005,-19.471153846153843,-1.3843429754717358,7.772119400524451,1.5018595923201266
1970-01-01 00:00:00.000000005,-16.221153846153847,-3.6534530007051744,5.0802374147313305,1.5018595923201266
1970-01-01 00:00:00.000000005,-13.596153846153845,-5.008888043567966,3.644290797221467,1.5018595923201266
1970-01-01 00:00:00.000000005,-11.634615384615383,-6.586524175629898,3.315614110248274,1.5018595923201266
1970-01-01 00:00:00.000000005,-9.75,-8.82726469843928,3.6272901794819368,1.5018595923201266
1970-01-01 00:00:00.000000005,-8.307692307692308,-11.49962268223059,3.371220735764021,1.5018595923201266
1970-01-01 00:00:00.000000005,-6.259615384615384,-13.662547721786718,3.14566968614663,1.5018595923201266
1970-01-01 00:00:00.000000005,-3.471153846153846,-15.6391658060108,2.8118607901949972,1.5018595923201266
1970-01-01 00:00:00.000000005,-0.721153846153846,-18.344929040504926,1.7745716491182946,1.5018595923201266
1970-01-01 00:00:00.000000005,1.346153846153846,-22.173918287622193,0.6015737359989599,1.5018595923201266
1970-01-01 00:00:00.000000005,3.5769230769230766,-25.850864725294326,-0.5320807771463774,1.5018595923201266
1970-01-01 00:00:00.000000005,5.586538461538461,-27.799429295324497,-1.7177547189511484,1.5018595923201266
1970-01-01 00:00:00.000000005,6.365384615384615,-28.233726248467146,-1.8472966345346282,1.5018595923201266
1970-01-01 00:00:00.000000005,5.894230769230768,-28.01117941328839,-0.4092544134838136,1.5018595923201266
1970-01-01 00:00:00.000000005,5.336538461538461,-27.568117910319362,1.0474274704716577,1.5018595923201266
1970-01-01 00:00:00.000000005,5.365384615384615,-27.828004165334434,1.189796116218571,1.5018595923201266
1970-01-01 00:00:00.000000005,6.182692307692307,-29.037994553710448,0.5770676674297588,1.5018595923201266
1970-01-01 00:00:00.000000005,7.394230769230769,-30.197848784847594,0.14103090438491991,1.5018595923201266
1970-01-01 00:00:00.000000005,8.096153846153845,-30.553922637174622,-0.01923324903692136,1.5018595923201266
1970-01-01 00:00:00.000000005,7.576923076923076,-29.758062418867166,0.5896713716182035,1.5018595923201266
1970-01-01 00:00:00.000000005,6.0480769230769225,-27.66376267223888,1.6903602827284192,1.5018595923201266
1970-01-01 00:00:00.000000005,3.8942307692307687,-24.91352973158255,2.5500562620491185,1.5018595923201266
1970-01-01 00:00:00.000000005,1.7307692307692306,-22.25154008049002,2.91115879259779,1.5018595923201266
1970-01-01 00:00:00.000000005,-0.25,-19.62805244164804,2.8012311380912016,1.5018595923201266
1970-01-01 00:00:00.000000005,-2.2115384615384612,-16.955875844007117,1.9720819358646529,1.5018595923201266
1970-01-01 00:00:00.000000005,-4.826923076923076,-15.680595346544147,0.4449811302544264,1.5018595923201266
1970-01-01 00:00:00.000000005,-8.846153846153845,-15.920198512684872,-1.4575914189951362,1.5018595923201266
1970-01-01 00:00:00.000000005,-14.365384615384613,-14.914764495947365,-2.799949443123101,1.5018595923201266
1970-01-01 00:00:00.000000005,-19.673076923076923,-7.7784428778939425,-1.391043545328598,1.5018595923201266
1970-01-01 00:00:00.000000005,-25.19230769230769,5.146806792810922,1.2417737192509528,1.5018595923201266
1970-01-01 00:00:00.000000005,-35.53846153846153,12.992226283788849,3.4189339651043262,1.5018595923201266
1970-01-01 00:00:00.000000005,-44.80769230769231,17.893302869487975,6.569443338565856,1.5018595923201266
1970-01-01 00:00:00.000000005,-44.07692307692307,27.12695119238653,7.2060361761737965,1.5018595923201266
1970-01-01 00:00:00.000000005,-38.03846153846154,31.284379324948425,5.243533418126674,1.5018595923201266
1970-01-01 00:00:00.000000005,-29.365384615384613,27.30129058122091,3.6193661132463917,1.5018595923201266
1970-01-01 00:00:00.000000005,-19.855769230769226,20.10046636801621,2.2293516395259103,1.5018595923201266
1970-01-01 00:00:00.000000005,-11.721153846153845,12.91130135521678,1.82312815395318,1.5018595923201266
1970-01-01 00:00:00.000000005,-5.721153846153846,8.25467022283684,1.4951085172099519,1.5018595923201268
1970-01-01 00:00:00.000000005,-1.8846153846153844,6.464794661377922,1.294801810715525,1.5018595923201297
1970-01-01 00:00:00.000000005,0.09615384615384615,6.29478563436704,1.21454037210922,1.5018595923202114
1970-01-01 00:00:00.000000005,1.4615384615384615,6.744417466532156,0.7477882362334181,1.5018595923224158
1970-01-01 00:00:00.000000005,2.7115384615384612,6.804485962001174,0.47574200619306733,1.5018595923818496
1970-01-01 00:00:00.000000005,4.288461538461538,6.476703507499531,0.3472459309794014,1.5018595939843629
1970-01-01 00:00:00.000000005,6.326923076923077,5.816508740486169,0.14989813025076917,1.5018596371927864
1970-01-01 00:00:00.000000005,8.538461538461538,5.319032485627036,0.20000358579136643,1.5018608022177056
1970-01-01 00:00:00.000000005,10.961538461538462,5.047368371443837,0.25019868611612367,1.501892214682102
1970-01-01 00:00:00.000000005,13.509615384615383,4.95991354335657,-0.19463906065602843,1.5027391861958868
1970-01-01 00:00:00.000000005,15.855769230769228,4.620297299183555,-1.0054533238288907,1.525576004603674
1970-01-01 00:00:00.000000005,17.615384615384613,4.288113534599419,-1.9526006827240194,2.1413231301001487
1970-01-01 00:00:00.000000005,17.990384615384613,4.408768135000793,-2.214765109719638,2.164159948507936
1970-01-01 00:00:00.000000005,16.778846153846153,5.2486261104219984,-1.5960572797061998,2.1650069200217206
1970-01-01 00:00:00.000000005,14.817307692307692,6.5541368463931535,-1.1287814423477502,2.1650383324861173
1970-01-01 00:00:00.000000005,12.971153846153845,7.9630687421931725,-1.3810416636830523,2.1650394975110365
1970-01-01 00:00:00.000000005,11.682692307692307,8.948719192822482,-1.6593434770946651,2.16503954071946
1970-01-01 00:00:00.000000005,10.98076923076923,8.902349464013827,-1.4212322178729075,2.1650395423219733
1970-01-01 00:00:00.000000005,10.721153846153845,8.414716335550821,-0.7139264054738412,2.165039542381407
1970-01-01 00:00:00.000000005,10.567307692307692,8.294991595858352,0.14521927007919141,2.1650395423836115
1970-01-01 00:00:00.000000005,9.894230769230768,8.55005675262474,1.134846697612008,2.1650395423836932
1970-01-01 00:00:00.000000005,8.548076923076923,9.056540725009645,2.245641565445024,2.1650395423836963
1970-01-01 00:00:00.000000005,6.576923076923076,9.976542822635714,2.9974755694036608,2.1650395423836963
1970-01-01 00:00:00.000000005,3.8269230769230766,11.060115486154618,3.186198808453814,2.1650395423836963
1970-01-01 00:00:00.000000005,-0.01923076923076923,11.146575303538995,3.779892258849323,2.1650395423836963
1970-01-01 00:00:00.000000005,-4.759615384615384,9.897417709398274,5.62089218047791,2.1650395423836963
1970-01-01 00:00:00.000000005,-9.096153846153847,10.333702850214411,8.734196614054262,2.1650395423836963
1970-01-01 00:00:00.000000005,-12.749999999999998,14.862559246390838,13.202416398987209,2.1650395423836963
1970-01-01 00:00:00.000000005,-16.134615384615383,20.45539680233816,17.981046158600407,2.1650395423836963
1970-01-01 00:00:00.000000005,-20.923076923076923,20.43315441673942,19.785829883223812,2.1650395423836963
1970-01-01 00:00:00.000000005,-25.38461538461538,18.489772449626162,20.48636068844258,2.1650395423836963
1970-01-01 00:00:00.000000005,-26.33653846153846,18.540701723166887,19.84590870472584,2.1650395423836963
1970-01-01 00:00:00.000000005,-25.846153846153843,14.60917407587982,16.853174339155128,2.1650395423836963
1970-01-01 00:00:00.000000005,-22.932692307692307,7.906998325588185,13.939798452462584,2.1650395423836963
1970-01-01 00:00:00.000000005,-18.865384615384613,1.3797807150011787,11.271383877334674,2.1650395423836963
1970-01-01 00:00:00.000000005,-15.009615384615383,-3.9029190205563515,9.13756623557366,2.1650395423836963
1970-01-01 00:00:00.000000005,-11.990384615384615,-7.508594270022654,7.442904483154162,2.1650395423836963
1970-01-01 00:00:00.000000005,-9.663461538461538,-9.579126270055285,5.8208548095887185,2.1650395423836963
1970-01-01 00:00:00.000000005,-7.769230769230768,-11.127815021470054,4.220175375741234,2.1650395423836963
1970-01-01 00:00:00.000000005,-5.788461538461537,-12.371879309636178,2.8738803354245834,2.1650395423836963
1970-01-01 00:00:00.000000005,-4.259615384615384,-13.412926338706768,1.3745936807225194,2.1650395423836963
1970-01-01 00:00:00.000000005,-2.9807692307692304,-14.02713183544657,0.24014904408343438,2.1650395423836963
1970-01-01 00:00:00.000000005,-1.3942307692307692,-14.319633218350647,-0.14056949046978634,2.1650395423836963
1970-01-01 00:00:00.000000005,-0.125,-14.852965060020923,-0.03552528676766466,2.1650395423836963
1970-01-01 00:00:00.000000005,0.9903846153846153,-15.71042340221431,0.6813867477428411,2.1650395423836963
1970-01-01 00:00:00.000000005,1.7019230769230769,-17.32846679976547,1.432967475824375,2.1650395423836963
1970-01-01 00:00:00.000000006,2.5865384615384612,-20.158180191453322,1.5087350995152824,2.1650395423836963
1970-01-01 00:00:00.000000006,4.144230769230768,-23.19239836947422,0.8028802110882454,2.1650395423836963
1970-01-01 00:00:00.000000006,6.096153846153846,-25.786575784350486,-0.3309694001326543,2.1650395423836963
1970-01-01 00:00:00.000000006,7.586538461538461,-28.04514780798885,-1.2390540146699107,2.1650395423836963
1970-01-01 00:00:00.000000006,8.403846153846153,-29.932415031348587,-1.6234889959549303,2.1650395423836963
1970-01-01 00:00:00.000000006,8.894230769230768,-31.13005803842302,-1.8451488761132084,2.1650395423836963
1970-01-01 00:00:00.000000006,9.269230769230768,-31.82915200607293,-1.945530659101695,2.1650395423836963
1970-01-01 00:00:00.000000006,9.01923076923077,-32.257046125546154,-1.4341789196325556,2.1650395423836963
1970-01-01 00:00:00.000000006,8.21153846153846,-31.86109338367329,-0.27730017097730514,2.1650395423836963
1970-01-01 00:00:00.000000006,6.8076923076923075,-30.492475233632664,0.947074303245315,2.1650395423836963
1970-01-01 00:00:00.000000006,4.413461538461538,-28.43573792440864,1.8483063586008155,2.1650395423836963
1970-01-01 00:00:00.000000006,1.5576923076923077,-25.272448725400658,2.207197378976699,2.1650395423836963
1970-01-01 00:00:00.000000006,-1.7403846153846152,-21.420377661409134,1.4960228737700538,2.1650395423836963
1970-01-01 00:00:00.000000006,-5.586538461538461,-18.327748132645937,-0.06457978718524561,2.1650395423836963
1970-01-01 00:00:00.000000006,-10.163461538461538,-16.678821920031215,-1.7396771277716843,2.1650395423836963
1970-01-01 00:00:00.000000006,-15.346153846153845,-14.75044370819681,-2.6567026626502264,2.1650395423836963
1970-01-01 00:00:00.000000006,-20.5,-7.583158201282645,-1.4912947637844256,2.1650395423836963
1970-01-01 00:00:00.000000006,-26.596153846153843,4.255172273565429,2.14174404047074,2.1650395423836963
1970-01-01 00:00:00.000000006,-36.18269230769231,12.72280958754919,7.318383856494414,2.1650395423836963
1970-01-01 00:00:00.000000006,-44.16346153846153,21.760686590262683,12.454620084878414,2.1650395423836963
1970-01-01 00:00:00.000000006,-36.80769230769231,28.690728349543345,10.581358435222743,2.1650395423836963
1970-01-01 00:00:00.000000006,-27.13461538461538,24.63897884740765,7.992057666135643,2.1650395423836963
1970-01-01 00:00:00.000000006,-13.937499999999998,14.561700530463199,4.454198550439628,2.1650395423836963
1970-01-01 00:00:00.000000006,-5.009615384615384,8.40193547509873,2.2713031957343,2.1650395423836963
1970-01-01 00:00:00.000000006,-2.2884615384615383,8.040557297202525,0.37098773438648436,2.1650395423836963
1970-01-01 00:00:00.000000006,-0.05769230769230768,8.443111549369448,-2.2546343672992166,2.1650395423836963
1970-01-01 00:00:00.000000006,1.1538461538461537,7.923454535772554,-2.7461156514653497,2.1650395423836963
1970-01-01 00:00:00.000000006,2.5961538461538463,7.7401609164895016,-1.8904882222652306,2.1650395423836963
1970-01-01 00:00:00.000000006,4.269230769230769,7.060890209444007,-1.7970663496958723,2.1650395423836963
1970-01-01 00:00:00.000000006,5.913461538461538,6.15387473849866,-1.3803032195233185,2.1650395423836963
1970-01-01 00:00:00.000000006,7.451923076923077,5.343727730019797,-0.7211205774337281,2.1650395423836963
1970-01-01 00:00:00.000000006,8.644230769230768,4.87677397203586,0.4100476288126575,2.1650395423836963
1970-01-01 00:00:00.000000006,9.990384615384615,4.579169514948403,1.0424065553754809,2.1650395423836963
1970-01-01 00:00:00.000000006,12.240384615384615,4.260802931571021,1.7349293663253214,2.1650395423836963
1970-01-01 00:00:00.000000006,14.615384615384613,3.9625096374691795,2.425686335408189,2.1650395423836963
1970-01-01 00:00:00.000000006,15.740384615384615,3.976957280096822,2.5086016896957792,2.1650395423836963
1970-01-01 00:00:00.000000006,16.490384615384613,4.165336925145001,2.8065592863778472,2.1650395423836963
1970-01-01 00:00:00.000000006,16.08653846153846,4.737139698818194,3.268499042506095,2.1650395423836963
1970-01-01 00:00:00.000000006,14.44230769230769,5.987434942946256,2.8179148612867113,2.1650395423836963
1970-01-01 00:00:00.000000006,13.394230769230768,6.673603760730697,2.06520221223511,2.1650395423836963
1970-01-01 00:00:00.000000006,12.701923076923077,7.199866596782558,1.4425448690612568,2.1650395423836963
1970-01-01 00:00:00.000000006,11.903846153846153,7.972794352398368,1.133509252418821,2.1650395423836963
1970-01-01 00:00:00.000000006,10.423076923076922,9.065580917973357,1.6622049462469097,2.1650395423836963
1970-01-01 00:00:00.000000006,8.298076923076923,10.297890432882246,3.4960242962477435,2.1650395423836963
1970-01-01 00:00:00.000000006,5.346153846153845,11.477460769847266,5.980451052442156,2.1650395423836963
1970-01-01 00:00:00.000000006,0.798076923076923,12.093550352993924,7.976154119690445,2.1650395423836963
1970-01-01 00:00:00.000000006,-4.9326923076923075,14.04839876098871,9.125710179199885,2.1650395423836963
1970-01-01 00:00:00.000000006,-11.365384615384615,19.96321619370128,10.91802071870648,2.1650395423836963
1970-01-01 00:00:00.000000006,-18.08653846153846,27.45843846894598,14.910849225875069,2.1650395423836963
1970-01-01 00:00:00.000000006,-24.836538461538456,28.66462246784024,19.924908379920403,2.1650395423836963
1970-01-01 00:00:00.000000006,-30.115384615384613,23.236368162740447,24.061677031975723,2.1650395423836923
1970-01-01 00:00:00.000000006,-31.038461538461537,18.217317926151868,24.24037148342409,2.165039542383591
1970-01-01 00:00:00.000000006,-30.490384615384613,13.131215843360025,20.42835302047471,2.165039542380864
1970-01-01 00:00:00.000000006,-27.990384615384613,7.325509844568766,15.825160069393037,2.1650395423073308
1970-01-01 00:00:00.000000006,-24.29807692307692,1.1575499599966652,11.600968853137305,2.165039540324664
1970-01-01 00:00:00.000000006,-19.875,-3.571660924658785,7.900998965314178,2.1650394868661866
1970-01-01 00:00:00.000000006,-16.048076923076923,-6.592394925783857,5.226003210345488,2.165038045469969
1970-01-01 00:00:00.000000006,-13.249999999999998,-8.42300207150535,3.701087714014025,2.1649991812305704
1970-01-01 00:00:00.000000006,-11.08653846153846,-9.578661004860612,2.9533650680331895,2.1639512881630267
1970-01-01 00:00:00.000000006,-8.923076923076922,-10.700845059731165,2.539769122882097,2.1356970395787442
1970-01-01 00:00:00.000000006,-6.6826923076923075,-12.094155607880882,1.870401249783428,1.373880220870662
1970-01-01 00:00:00.000000006,-4.817307692307692,-13.341356353052662,0.7110646212704598,1.3456259722863795
1970-01-01 00:00:00.000000006,-2.5576923076923075,-13.87246592454103,0.3283435245189806,1.344578079218836
1970-01-01 00:00:00.000000006,-0.5,-14.715223609555194,0.40421054074201607,1.3445392149794373
1970-01-01 00:00:00.000000006,0.9903846153846153,-16.18857153344922,0.3353410755154545,1.3445377735832196
1970-01-01 00:00:00.000000006,2.1346153846153846,-17.87620779357376,0.3999984981752546,1.3445377201247426
1970-01-01 00:00:00.000000006,3.1826923076923075,-19.219038893042214,0.7146183752164196,1.3445377181420755
1970-01-01 00:00:00.000000006,3.8942307692307687,-20.53784231856605,1.1446976326680727,1.3445377180685423
1970-01-01 00:00:00.000000006,4.509615384615385,-21.5527037082411,1.4422177068215445,1.3445377180658151
1970-01-01 00:00:00.000000006,4.9230769230769225,-22.1351578039436,1.5451804515136287,1.3445377180657139
1970-01-01 00:00:00.000000006,5.096153846153846,-22.84655699823614,1.5276544840464263,1.3445377180657103
1970-01-01 00:00:00.000000006,5.519230769230769,-23.971881148432157,1.2014906177398799,1.34453771806571
1970-01-01 00:00:00.000000006,6.480769230769231,-25.644234009432065,0.4125921949303298,1.34453771806571
1970-01-01 00:00:00.000000006,7.596153846153846,-27.422437106233613,-0.311501354620974,1.34453771806571
1970-01-01 00:00:00.000000006,8.413461538461538,-28.761567858875438,-0.573128769696625,1.34453771806571
1970-01-01 00:00:00.000000006,8.634615384615385,-29.389895083403236,-0.16297542718789945,1.34453771806571
1970-01-01 00:00:00.000000006,8.134615384615385,-29.015599393011914,0.9227922356233397,1.34453771806571
1970-01-01 00:00:00.000000006,6.8076923076923075,-27.531288527918512,2.328365789018067,1.34453771806571
1970-01-01 00:00:00.000000006,4.605769230769231,-24.829190860787968,3.1930840678644716,1.34453771806571
1970-01-01 00:00:00.000000006,1.990384615384615,-21.606864713356615,3.3849040433226523,1.34453771806571
1970-01-01 00:00:00.000000006,-0.7788461538461539,-18.556156399840642,2.699325101847141,1.34453771806571
1970-01-01 00:00:00.000000006,-3.9903846153846154,-16.409358082340706,1.246873706550145,1.34453771806571
1970-01-01 00:00:00.000000006,-7.48076923076923,-15.746511823358398,-0.03373502499322741,1.34453771806571
1970-01-01 00:00:00.000000006,-11.076923076923075,-15.246461148336063,-0.9077193813672851,1.34453771806571
1970-01-01 00:00:00.000000006,-14.817307692307692,-10.657939181715314,0.02531172807653241,1.34453771806571
1970-01-01 00:00:00.000000006,-19.990384615384613,-0.767896757977413,2.8411360394336618,1.34453771806571
1970-01-01 00:00:00.000000006,-29.88461538461538,7.674726716325138,6.185361336632337,1.34453771806571
1970-01-01 00:00:00.000000006,-40.86538461538461,13.985518098756112,9.913620049639423,1.34453771806571
1970-01-01 00:00:00.000000006,-43.64423076923077,22.684261950089866,11.232380003632084,1.34453771806571
1970-01-01 00:00:00.000000006,-37.99038461538461,27.739554553670306,9.360640048426843,1.34453771806571
1970-01-01 00:00:00.000000006,-28.807692307692307,24.78371099900845,7.004901303892677,1.34453771806571
1970-01-01 00:00:00.000000006,-18.625,18.670642419557826,4.521695156675416,1.34453771806571
1970-01-01 00:00:00.000000006,-10.846153846153845,12.573634329052805,2.330867926343563,1.34453771806571
1970-01-01 00:00:00.000000006,-5.836538461538462,8.817484464867912,1.1617388546007894,1.34453771806571
1970-01-01 00:00:00.000000006,-2.5384615384615383,7.498446222380793,0.2860811478777518,1.34453771806571
1970-01-01 00:00:00.000000007,-0.1346153846153846,7.140563539413488,-0.4375478619014912,1.34453771806571
1970-01-01 00:00:00.000000007,1.990384615384615,7.046769341783404,-0.8498734192180128,1.34453771806571
1970-01-01 00:00:00.000000007,3.7788461538461537,6.872208688738427,-0.7590344569848535,1.34453771806571
1970-01-01 00:00:00.000000007,5.0480769230769225,7.0028652541540986,-0.39405691937303094,1.34453771806571
1970-01-01 00:00:00.000000007,5.990384615384615,7.205153173422234,0.11949763391301878,1.34453771806571
1970-01-01 00:00:00.000000007,6.875,7.286270428246224,0.37049303502453806,1.34453771806571
1970-01-01 00:00:00.000000007,7.692307692307692,7.5241483892258145,0.3838143117495097,1.34453771806571
1970-01-01 00:00:00.000000007,8.740384615384615,8.115736080850791,0.24249338221222277,1.34453771806571
1970-01-01 00:00:00.000000007,10.10576923076923,8.850725793745545,0.4135070079805054,1.34453771806571
1970-01-01 00:00:00.000000007,11.326923076923075,9.353860350278923,1.172195833261422,1.34453771806571
1970-01-01 00:00:00.000000007,12.528846153846152,9.703503663785392,1.9857804900778886,1.34453771806571
1970-01-01 00:00:00.000000007,13.586538461538462,9.640738571926674,2.4438773988415683,1.34453771806571
1970-01-01 00:00:00.000000007,14.23076923076923,9.0964377782348,2.7489092786444536,1.34453771806571
1970-01-01 00:00:00.000000007,14.596153846153845,8.463081440412928,3.02667312455868,1.34453771806571
1970-01-01 00:00:00.000000007,14.634615384615383,7.906761112914238,2.971265084439905,1.34453771806571
1970-01-01 00:00:00.000000007,14.35576923076923,7.519468608271498,2.447484155318743,1.34453771806571
1970-01-01 00:00:00.000000007,13.923076923076922,7.868891310416183,1.8608071091661569,1.34453771806571
1970-01-01 00:00:00.000000007,13.221153846153845,8.940596772965446,1.794307792167494,1.34453771806571
1970-01-01 00:00:00.000000007,12.096153846153845,10.27722155965084,2.3355032793561796,1.34453771806571
1970-01-01 00:00:00.000000007,10.471153846153845,11.794385337607288,3.764280750449364,1.34453771806571
1970-01-01 00:00:00.000000007,7.85576923076923,12.92118255574592,6.050076982776648,1.34453771806571
1970-01-01 00:00:00.000000007,3.98076923076923,13.827543667532543,8.337797784520143,1.34453771806571
1970-01-01 00:00:00.000000007,-0.5192307692307693,14.672496467632781,10.070463199267191,1.34453771806571
1970-01-01 00:00:00.000000007,-5.067307692307692,15.329860958552517,11.564708595694029,1.34453771806571
1970-01-01 00:00:00.000000007,-10.086538461538462,16.7337494132852,14.176668884471589,1.34453771806571
1970-01-01 00:00:00.000000007,-15.326923076923075,18.73137320014784,18.45535128503886,1.34453771806571
1970-01-01 00:00:00.000000007,-20.749999999999996,18.013326990706453,22.86781581157757,1.34453771806571
1970-01-01 00:00:00.000000007,-25.365384615384613,16.378455548926382,23.475675627555542,1.34453771806571
1970-01-01 00:00:00.000000007,-30.25961538461538,14.95497283030586,19.97542613242204,1.34453771806571
1970-01-01 00:00:00.000000007,-34.20192307692307,12.905810869331809,17.610829947839605,1.34453771806571
1970-01-01 00:00:00.000000007,-33.54807692307692,10.251920641652998,15.76698245924724,1.34453771806571
1970-01-01 00:00:00.000000007,-29.413461538461537,3.896046455299129,13.097696451835835,1.34453771806571
1970-01-01 00:00:00.000000007,-22.96153846153846,-3.8086663485765127,9.870821740320327,1.34453771806571
1970-01-01 00:00:00.000000007,-16.509615384615383,-9.730037866864977,6.4144905368129885,1.34453771806571
1970-01-01 00:00:00.000000007,-12.115384615384613,-13.402356056777865,3.5704227536303934,1.34453771806571
1970-01-01 00:00:00.000000007,-9.884615384615383,-14.883575666137348,1.4869238112076373,1.34453771806571
1970-01-01 00:00:00.000000007,-8.557692307692307,-14.954186928930566,0.07652014897582293,1.34453771806571
1970-01-01 00:00:00.000000007,-7.153846153846153,-15.12947141498794,-0.9208797888604171,1.34453771806571
1970-01-01 00:00:00.000000007,-5.461538461538461,-15.791541275743828,-1.6902744482070824,1.34453771806571
1970-01-01 00:00:00.000000007,-3.2596153846153846,-16.492143030095455,-2.2165303127308094,1.34453771806571
1970-01-01 00:00:00.000000007,-0.6538461538461539,-17.49632053683343,-2.40604399552477,1.34453771806571
1970-01-01 00:00:00.000000007,1.2980769230769231,-19.4085114644071,-2.7466575664379853,1.34453771806571
1970-01-01 00:00:00.000000007,2.644230769230769,-21.533489002158237,-2.7537102983008412,1.34453771806571
1970-01-01 00:00:00.000000007,3.5,-23.49569159386534,-2.1035204876847375,1.34453771806571
1970-01-01 00:00:00.000000007,4.009615384615384,-24.35018403220595,-1.2913428691870792,1.34453771806571
1970-01-01 00:00:00.000000007,4.0480769230769225,-24.45927727569535,-0.5127369803664005,1.34453771806571
1970-01-01 00:00:00.000000007,4.153846153846154,-25.050302411568524,-0.052555600705732994,1.34453771806571
1970-01-01 00:00:00.000000007,4.903846153846153,-26.648887836654687,-0.40626423868839073,1.34453771806571
1970-01-01 00:00:00.000000007,6.259615384615384,-28.969669178108077,-1.6665788438808178,1.34453771806571
1970-01-01 00:00:00.000000007,7.624999999999999,-31.78217997226345,-2.84136454609369,1.34453771806571
1970-01-01 00:00:00.000000007,8.548076923076923,-34.14919007300503,-3.050263900648807,1.34453771806571
1970-01-01 00:00:00.000000007,8.35576923076923,-34.745951998872314,-1.5157607714240942,1.34453771806571
1970-01-01 00:00:00.000000007,5.033653846153846,-31.491513896547463,1.6247230721982628,1.3445377180657105
1970-01-01 00:00:00.000000007,-0.4423076923076923,-26.27492320790917,3.1332837207771917,1.344537718065724
1970-01-01 00:00:00.000000007,-4.10576923076923,-22.1814127170001,2.973937388785906,1.3445377180660874
1970-01-01 00:00:00.000000007,-8.0,-18.87322015109361,2.4130257764422636,1.344537718075881
1970-01-01 00:00:00.000000007,-11.46153846153846,-16.89553136252732,1.4277585751552024,1.344537718339951
1970-01-01 00:00:00.000000007,-14.749999999999998,-17.80612663714394,-0.11354424725179392,1.3445377254600432
1970-01-01 00:00:00.000000007,-17.990384615384613,-16.869887840359098,-1.4934532509536416,1.344537917438462
1970-01-01 00:00:00.000000007,-22.499999999999996,-10.180845052551648,-1.7096935284965236,1.3445430937356795
1970-01-01 00:00:00.000000007,-30.538461538461537,-0.7629285785354281,1.3317279815475116,1.344682661782134
1970-01-01 00:00:00.000000007,-43.442307692307686,13.83177343209512,8.416349030279353,1.3484458227391822
1970-01-01 00:00:00.000000007,-40.50961538461539,27.095811245103683,12.409695835995048,1.449911600533035
1970-01-01 00:00:00.000000007,-27.115384615384613,24.88013018570429,8.145438541586945,1.551377378326888
1970-01-01 00:00:00.000000007,-18.15384615384615,19.167703768912055,4.767144786852463,1.5551405392839364
1970-01-01 00:00:00.000000007,-11.432692307692307,14.147871574921176,3.3174707034295556,1.5552801073303906
1970-01-01 00:00:00.000000007,-4.153846153846154,11.074828753959665,3.304564205745551,1.5552852836276083
1970-01-01 00:00:00.000000007,0.7596153846153846,10.247504781989763,3.280762851700317,1.555285475606027
1970-01-01 00:00:00.000000007,3.019230769230769,10.357800359763926,2.7760327901630197,1.5552854827261193
1970-01-01 00:00:00.000000007,6.04326923076923,10.413104931636243,1.4221224827012062,1.5552854829901892
1970-01-01 00:00:00.000000007,8.85576923076923,9.921032794414598,-0.8787257572304503,1.555285482999983
1970-01-01 00:00:00.000000007,10.653846153846153,9.454780517557893,-2.8977179279233627,1.5552854830003462
1970-01-01 00:00:00.000000007,13.456730769230766,8.858041179648502,-4.859658296700355,1.5552854830003597
1970-01-01 00:00:00.000000007,15.548076923076923,8.712331332951697,-5.063056082986232,1.5552854830003602
1970-01-01 00:00:00.000000007,15.913461538461538,8.87490481004734,-4.092855943927885,1.5552854830003602
1970-01-01 00:00:00.000000007,16.0,9.660098538326514,-3.19405440306667,1.5552854830003602
1970-01-01 00:00:00.000000007,15.961538461538462,10.447755724768523,-2.8966129388722215,1.5552854830003602
1970-01-01 00:00:00.000000007,15.35576923076923,10.179306030423621,-3.2644949464833095,1.5552854830003602
1970-01-01 00:00:00.000000007,14.326923076923077,9.39350709666927,-4.244750616177125,1.5552854830003602
1970-01-01 00:00:00.000000007,13.192307692307692,8.945385579646628,-5.593771690299064,1.5552854830003602
1970-01-01 00:00:00.000000007,11.60576923076923,9.131903553789643,-6.287085021897603,1.5552854830003602
1970-01-01 00:00:00.000000007,9.740384615384615,10.116010372673752,-5.407523900936236,1.5552854830003602
1970-01-01 00:00:00.000000007,7.730769230769229,11.750376508401711,-2.716060303380757,1.5552854830003602
1970-01-01 00:00:00.000000007,5.4326923076923075,13.644155354172414,1.3238957096557937,1.5552854830003602
1970-01-01 00:00:00.000000007,2.6153846153846154,14.891818054253472,5.961244464087187,1.5552854830003602
1970-01-01 00:00:00.000000007,-0.3461538461538461,15.434932110671326,9.129704820698265,1.5552854830003602
1970-01-01 00:00:00.000000007,-4.153846153846154,15.601348933872368,8.290785694765976,1.5552854830003602
1970-01-01 00:00:00.000000007,-9.317307692307692,15.051489103882593,5.471508937983123,1.5552854830003602
1970-01-01 00:00:00.000000007,-14.317307692307692,15.03885687095771,5.4399556307783605,1.5552854830003602
1970-01-01 00:00:00.000000007,-16.69230769230769,18.247646411975612,9.657293093032624,1.5552854830003602
1970-01-01 00:00:00.000000007,-20.31730769230769,19.897596252383906,14.056957881102491,1.5552854830003602
1970-01-01 00:00:00.000000007,-27.663461538461537,15.487452402389822,18.63056969673463,1.5552854830003602
1970-01-01 00:00:00.000000007,-30.33653846153846,15.013618612141327,21.718423930732474,1.5552854830003602
1970-01-01 00:00:00.000000008,-29.240384615384613,13.130250125426004,18.766876433042206,1.5552854830003602
1970-01-01 00:00:00.000000008,-26.471153846153843,5.7531347743607855,13.237239761407016,1.5552854830003602
1970-01-01 00:00:00.000000008,-22.221153846153843,-1.5456112176847903,8.638597124947264,1.5552854830003602
1970-01-01 00:00:00.000000008,-17.990384615384613,-6.23463765185014,5.2548826121691,1.5552854830003602
1970-01-01 00:00:00.000000008,-14.58653846153846,-8.539605382268979,3.2432334036184165,1.5552854830003602
1970-01-01 00:00:00.000000008,-11.701923076923077,-8.83470766941228,2.8124192855281422,1.5552854830003602
1970-01-01 00:00:00.000000008,-9.509615384615385,-8.747501691862633,3.6920873056414227,1.5552854830003602
1970-01-01 00:00:00.000000008,-7.471153846153845,-9.347838010878823,4.873937966790272,1.5552854830003602
1970-01-01 00:00:00.000000008,-5.98076923076923,-10.644124601865592,4.904237797695914,1.5552854830003602
1970-01-01 00:00:00.000000008,-4.374999999999999,-11.793526239492143,4.040482570999411,1.5552854830003602
1970-01-01 00:00:00.000000008,-2.519230769230769,-12.781083864422245,2.938791619288199,1.5552854830003602
1970-01-01 00:00:00.000000008,-0.6826923076923076,-13.795738099908467,2.0568911497819573,1.5552854830003602
1970-01-01 00:00:00.000000008,0.8653846153846153,-14.703844833106377,1.5972694248246428,1.5552854830003602
1970-01-01 00:00:00.000000008,2.009615384615384,-15.458072393963702,1.3193833204833942,1.5552854830003602
1970-01-01 00:00:00.000000008,2.644230769230769,-15.914109803913561,1.2760802282270032,1.5552854830003602
1970-01-01 00:00:00.000000008,2.990384615384615,-16.222892311702456,1.6347828416456927,1.5552854830003602
1970-01-01 00:00:00.000000008,3.1249999999999996,-16.603982612052754,2.1130564962067004,1.5552854830003602
1970-01-01 00:00:00.000000008,3.4807692307692304,-17.33463821372194,2.4177425559352193,1.5552854830003602
1970-01-01 00:00:00.000000008,4.144230769230768,-18.931249158439616,2.1659925140442167,1.5552854830003602
1970-01-01 00:00:00.000000008,5.10576923076923,-21.809089064147674,1.3140553232586238,1.5552854830003602
1970-01-01 00:00:00.000000008,6.480769230769231,-25.41415557354758,0.06350121393862618,1.5552854830003602
1970-01-01 00:00:00.000000008,7.701923076923076,-28.873111421636885,-1.3495225469157175,1.5552854830003602
1970-01-01 00:00:00.000000008,8.596153846153845,-30.909852810648285,-2.0006099806629942,1.5552854830003602
1970-01-01 00:00:00.000000008,8.038461538461537,-30.94291446586692,-1.6669469309851195,1.5552854830003602
1970-01-01 00:00:00.000000008,6.134615384615384,-29.548837767758524,-0.50695715593523,1.5552854830003602
1970-01-01 00:00:00.000000008,3.923076923076923,-27.125705263613202,-0.02089627926609236,1.5552854830003602
1970-01-01 00:00:00.000000008,1.9615384615384615,-24.345204349797886,-0.30724238424926376,1.5552854830003602
1970-01-01 00:00:00.000000008,-0.10576923076923075,-21.694812180929738,-1.5246480954640298,1.5552854830003602
1970-01-01 00:00:00.000000008,-2.6538461538461533,-19.664724535304956,-3.358256193279541,1.5552854830003602
1970-01-01 00:00:00.000000008,-5.461538461538461,-18.752750272304052,-5.648269123083583,1.5552854830003602
1970-01-01 00:00:00.000000008,-8.0,-17.90953281690445,-7.145010129977208,1.5552854830003602
1970-01-01 00:00:00.000000008,-11.730769230769228,-13.304635784116094,-6.517004386301011,1.5552854830003602
1970-01-01 00:00:00.000000008,-21.096153846153847,-4.315633354230092,-2.314108300150078,1.5552854830003602
1970-01-01 00:00:00.000000008,-32.51923076923077,5.782535219903573,5.786080282248917,1.5552854830003602
1970-01-01 00:00:00.000000008,-41.39423076923076,14.444084291626545,11.038275920870806,1.5552854830003602
1970-01-01 00:00:00.000000008,-43.82692307692307,21.957740654013147,11.24736958126287,1.5552854830003602
1970-01-01 00:00:00.000000008,-39.12499999999999,26.41491336672845,7.390702773226663,1.5552854830003602
1970-01-01 00:00:00.000000008,-29.711538461538456,24.494920247654964,3.5516052958570525,1.5552854830003602
1970-01-01 00:00:00.000000008,-19.374999999999996,18.94793331995557,0.5026402149137658,1.5552854830003602
1970-01-01 00:00:00.000000008,-10.894230769230768,13.349279391145435,-0.9803194931853748,1.5552854830003602
1970-01-01 00:00:00.000000008,-5.701923076923076,9.23261024097125,-1.2212665309188835,1.5552854830003602
1970-01-01 00:00:00.000000008,-2.1249999999999996,7.681197115078258,-1.7438768416244772,1.5552854830003602
1970-01-01 00:00:00.000000008,0.6538461538461539,6.159711866141734,-1.6134081929419966,1.5552854830003602
1970-01-01 00:00:00.000000008,2.644230769230769,5.381023270748559,0.431855632190572,1.5552854830003602
1970-01-01 00:00:00.000000008,4.663461538461537,5.12791644406934,1.0235102620874383,1.5552854830003602
1970-01-01 00:00:00.000000008,6.6730769230769225,4.822720719123638,0.7029214441702596,1.5552854830003602
1970-01-01 00:00:00.000000008,8.663461538461538,4.585542972268884,0.4553687305095705,1.5552854830003602
1970-01-01 00:00:00.000000008,10.394230769230768,4.486939532136254,-0.15796572041185603,1.5552854830003602
1970-01-01 00:00:00.000000008,11.932692307692307,4.561824395409952,-0.9704431816296815,1.5552854830003602
1970-01-01 00:00:00.000000008,13.038461538461538,4.93231914393246,-1.544000183589542,1.5552854830003602
1970-01-01 00:00:00.000000008,13.519230769230768,6.11079249076647,-0.21756177528795456,1.5552854830003602
1970-01-01 00:00:00.000000008,12.971153846153845,8.05907810676224,2.4198322508147676,1.5552854830003602
1970-01-01 00:00:00.000000008,12.596153846153845,9.984316391813978,4.553032547286681,1.5552854830003602
1970-01-01 00:00:00.000000008,12.69230769230769,10.767464472215183,5.512046525925622,1.5552854830003602
1970-01-01 00:00:00.000000008,12.903846153846153,10.487224357995967,5.772223652705112,1.5552854830003593
1970-01-01 00:00:00.000000008,13.240384615384613,10.137593193675917,5.587992097112387,1.5552854830003378
1970-01-01 00:00:00.000000008,13.096153846153845,10.2277918712538,4.603562969329353,1.5552854829997527
1970-01-01 00:00:00.000000008,12.057692307692307,10.76278733017663,3.4582080747801296,1.555285482983982
1970-01-01 00:00:00.000000008,10.846153846153845,11.367466043515233,3.0180550497341474,1.5552854825587539
1970-01-01 00:00:00.000000008,9.259615384615385,11.658795844734605,3.279278268041847,1.5552854710933708
1970-01-01 00:00:00.000000008,7.1923076923076925,12.42002176431913,4.272458187395722,1.55528516195325
1970-01-01 00:00:00.000000008,4.85576923076923,13.681791791881931,6.0770927916426505,1.5552768266353725
1970-01-01 00:00:00.000000008,2.2692307692307687,14.488356616493032,7.809047186955828,1.5550520821928
1970-01-01 00:00:00.000000008,-1.0769230769230769,14.75383685342994,8.767181256164715,1.548992317561223
1970-01-01 00:00:00.000000008,-5.5576923076923075,15.365238426115345,8.904846729491455,1.3856034169512146
1970-01-01 00:00:00.000000008,-11.596153846153845,16.357600651684397,9.41368044010456,1.3795436523196376
1970-01-01 00:00:00.000000008,-17.201923076923077,17.78997916936341,12.264525153331684,1.3793189078770653
1970-01-01 00:00:00.000000008,-20.788461538461537,19.9718369211276,16.72849869985091,1.3793105725591877
1970-01-01 00:00:00.000000008,-25.115384615384613,18.699617701081806,18.904939742642856,1.3793102634190668
1970-01-01 00:00:00.000000008,-29.076923076923073,14.417841008081153,18.954874351506277,1.3793102519536837
1970-01-01 00:00:00.000000008,-28.59134615384615,12.0820895171093,15.126667748026644,1.3793102515284557
1970-01-01 00:00:00.000000008,-25.312499999999996,5.423575953869889,10.71515484521309,1.379310251512685
1970-01-01 00:00:00.000000008,-19.990384615384613,-1.645538762622302,8.432513072726808,1.3793102515120998
1970-01-01 00:00:00.000000008,-15.769230769230766,-6.103122544672038,6.462698118410729,1.3793102515120783
1970-01-01 00:00:00.000000008,-12.240384615384615,-9.888769943522737,4.810336124362873,1.3793102515120774
1970-01-01 00:00:00.000000008,-9.384615384615383,-12.64366593044188,3.6663772393868492,1.3793102515120774
1970-01-01 00:00:00.000000008,-6.663461538461537,-14.240210178408056,2.6818493390820493,1.3793102515120774
1970-01-01 00:00:00.000000008,-4.663461538461537,-15.342008886575647,1.4935549158284855,1.3793102515120774
1970-01-01 00:00:00.000000008,-2.7115384615384612,-15.994029759134413,0.8941333882870611,1.3793102515120774
1970-01-01 00:00:00.000000008,-0.5961538461538461,-16.49679461005352,0.8980465679221636,1.3793102515120774
1970-01-01 00:00:00.000000008,1.0576923076923077,-16.919424712310626,1.103123945611359,1.3793102515120774
1970-01-01 00:00:00.000000008,2.1249999999999996,-17.327672622333278,1.886299963584528,1.3793102515120774
1970-01-01 00:00:00.000000008,2.721153846153846,-18.177736090687972,2.826975071170899,1.3793102515120774
1970-01-01 00:00:00.000000008,3.2307692307692304,-19.221201826241888,2.942026958029749,1.3793102515120774
1970-01-01 00:00:00.000000008,3.6826923076923075,-20.294713217843057,2.357752795632324,1.3793102515120774
1970-01-01 00:00:00.000000008,4.240384615384615,-21.486055055520698,1.7172985240429972,1.3793102515120774
1970-01-01 00:00:00.000000008,4.9326923076923075,-22.828773281215813,1.2593073535286017,1.3793102515120774
1970-01-01 00:00:00.000000008,5.721153846153846,-24.390823537306254,1.0340000212292524,1.3793102515120774
1970-01-01 00:00:00.000000008,6.269230769230768,-25.973462226052998,0.908693219661208,1.3793102515120774
1970-01-01 00:00:00.000000008,6.442307692307692,-27.392656566124675,1.0007169096233632,1.3793102515120774
1970-01-01 00:00:00.000000008,6.4230769230769225,-28.128265059313183,1.3606633401695984,1.3793102515120774
1970-01-01 00:00:00.000000008,6.096153846153846,-28.32050003533128,1.737193274955793,1.3793102515120774
1970-01-01 00:00:00.000000008,5.384615384615384,-27.775235894631223,2.2935550836368117,1.3793102515120774
1970-01-01 00:00:00.000000008,3.7307692307692304,-25.61086911971176,2.4387939832381194,1.3793102515120774
1970-01-01 00:00:00.000000008,1.9134615384615383,-23.343230337586334,1.9288824637924158,1.3793102515120774
1970-01-01 00:00:00.000000008,-0.30288461538461536,-21.406349995119346,0.8910325391571082,1.3793102515120774
1970-01-01 00:00:00.000000009,-5.519230769230769,-18.503219530635953,-0.4960039065504918,1.3793102515120774
1970-01-01 00:00:00.000000009,-12.740384615384615,-12.68057733205135,-1.0331380160203874,1.3793102515120774
1970-01-01 00:00:00.000000009,-19.90384615384615,-2.1223684347505305,-0.8987225259999635,1.3793102515120774
1970-01-01 00:00:00.000000009,-24.923076923076923,9.626629593787001,-1.7323701859786267,1.3793102515120774
1970-01-01 00:00:00.000000009,-28.576923076923073,15.041367466999558,-2.8752724954229603,1.3793102515120774
1970-01-01 00:00:00.000000009,-30.749999999999996,13.990292015201051,-1.6499871904412868,1.3793102515120774
1970-01-01 00:00:00.000000009,-30.480769230769226,13.696516943428787,2.8256183535082195,1.3793102515120774
1970-01-01 00:00:00.000000009,-28.79807692307692,16.315665457376177,6.6916827351632255,1.3793102515120774
1970-01-01 00:00:00.000000009,-26.471153846153843,19.576450405728018,8.84981549589887,1.3793102515120774
1970-01-01 00:00:00.000000009,-22.94230769230769,21.248495497280295,10.003335654106223,1.3793102515120774
1970-01-01 00:00:00.000000009,-18.21153846153846,19.882928020839934,10.490247164969158,1.3793102515120774
1970-01-01 00:00:00.000000009,-12.384615384615385,16.590561065397864,9.233337800061014,1.3793102515120774
1970-01-01 00:00:00.000000009,-6.519230769230769,12.81222074490235,6.5598734366782585,1.3793102515120774
1970-01-01 00:00:00.000000009,-1.596153846153846,9.08939904696555,3.8832449902519746,1.3793102515120774
1970-01-01 00:00:00.000000009,2.1634615384615383,6.101553523167459,1.787741300125057,1.3793102515120774
1970-01-01 00:00:00.000000009,4.817307692307692,4.402546078555837,0.3857701131245557,1.3793102515120774
1970-01-01 00:00:00.000000009,6.624999999999999,3.7671905978401377,-0.37194824576204527,1.3793102515120774
1970-01-01 00:00:00.000000009,7.826923076923077,3.5616000631278815,-0.6783727486997788,1.3793102515120774
1970-01-01 00:00:00.000000009,8.884615384615383,3.396011106612659,-0.6941159691319814,1.3793102515120774
1970-01-01 00:00:00.000000009,9.884615384615383,3.1306998154139047,-0.5627584178637194,1.3793102515120774
1970-01-01 00:00:00.000000009,11.028846153846153,3.132883909562763,-0.2503613131884418,1.3793102515120774
1970-01-01 00:00:00.000000009,12.365384615384613,3.207165742780699,-0.6969970382242101,1.3793102515120774
1970-01-01 00:00:00.000000009,13.663461538461538,3.2105911455161067,-1.5685587188652297,1.3793102515120774
1970-01-01 00:00:00.000000009,14.721153846153845,3.4787951861541684,-2.4040883711369916,1.3793102515120774
1970-01-01 00:00:00.000000009,15.365384615384615,3.7168788806464357,-2.5918273018335403,1.3793102515120774
1970-01-01 00:00:00.000000009,15.788461538461538,3.876934591299592,-2.325248778368602,1.3793102515120774
1970-01-01 00:00:00.000000009,15.692307692307692,3.960355084442541,-2.189889714118715,1.3793102515120774
1970-01-01 00:00:00.000000009,15.653846153846153,3.802652688648999,-2.301773502836693,1.3793102515120774
1970-01-01 00:00:00.000000009,15.653846153846153,3.7112675090804306,-3.2079948624720016,1.3793102515120774
1970-01-01 00:00:00.000000009,15.096153846153845,3.651570056522622,-4.314087783907344,1.3793102515120774
1970-01-01 00:00:00.000000009,14.394230769230768,3.881124017030357,-5.0223753030262746,1.3793102515120774
1970-01-01 00:00:00.000000009,13.519230769230768,5.138778403297015,-4.790045397802078,1.3793102515120774
1970-01-01 00:00:00.000000009,11.490384615384613,7.615892871989053,-3.5588504376298262,1.3793102515120774
1970-01-01 00:00:00.000000009,7.730769230769229,11.240329140407406,-1.2989164182032165,1.3793102515120774
1970-01-01 00:00:00.000000009,2.490384615384615,15.122993919010918,1.4881071461429913,1.3793102515120774
1970-01-01 00:00:00.000000009,-4.451923076923077,18.580506672887378,3.7278093640639858,1.3793102515120774
1970-01-01 00:00:00.000000009,-11.413461538461537,23.05068624894831,6.162745683584616,1.3793102515120774
1970-01-01 00:00:00.000000009,-15.846153846153845,29.538022048716968,9.166324092720624,1.3793102515120774
1970-01-01 00:00:00.000000009,-17.894230769230766,35.72590906640981,12.328004819872236,1.3793102515120774
1970-01-01 00:00:00.000000009,-24.85576923076923,31.311522744348014,14.93980604382974,1.3793102515120774
1970-01-01 00:00:00.000000009,-28.788461538461537,25.93520503098652,18.546758363530717,1.3793102515120774
1970-01-01 00:00:00.000000009,-29.25,23.189013092288008,18.07266977149957,1.3793102515120774
1970-01-01 00:00:00.000000009,-27.79807692307692,15.668148460789748,15.66532546695773,1.3793102515120774
1970-01-01 00:00:00.000000009,-23.403846153846153,6.100995349035246,12.391117836359193,1.3793102515120774
1970-01-01 00:00:00.000000009,-17.56730769230769,-1.441274036838067,9.394856114740433,1.3793102515120774
1970-01-01 00:00:00.000000009,-12.788461538461538,-6.51539434366305,6.769997261632491,1.3793102515120774
1970-01-01 00:00:00.000000009,-9.567307692307692,-9.47437324206427,5.145069949336803,1.3793102515120774
1970-01-01 00:00:00.000000009,-7.5480769230769225,-10.542683192072277,4.146891370461194,1.3793102515120774
1970-01-01 00:00:00.000000009,-6.211538461538461,-10.928072943887187,3.5709970531154247,1.3793102515120774
1970-01-01 00:00:00.000000009,-4.9230769230769225,-11.265286292881804,3.2700290636552753,1.3793102515120774
1970-01-01 00:00:00.000000009,-3.6538461538461533,-11.984656963921498,2.9697876655770092,1.3793102515120774
1970-01-01 00:00:00.000000009,-2.3846153846153846,-12.570451732998652,2.41423790692397,1.3793102515120774
1970-01-01 00:00:00.000000009,-0.7307692307692307,-12.667539827042148,2.4646358213701784,1.3793102515120774
1970-01-01 00:00:00.000000009,0.5384615384615384,-13.20312359713933,3.1309292700708555,1.3793102515120776
1970-01-01 00:00:00.000000009,1.1826923076923075,-14.066797295719766,3.8204544705429253,1.3793102515120814
1970-01-01 00:00:00.000000009,1.6249999999999998,-14.850403387294326,4.271341434588125,1.3793102515121851
1970-01-01 00:00:00.000000009,1.8557692307692306,-15.394094161227086,4.255764263336445,1.3793102515149829
1970-01-01 00:00:00.000000009,1.8269230769230766,-15.790138965836961,4.134293675495896,1.3793102515904143
1970-01-01 00:00:00.000000009,2.0288461538461537,-16.189657916370873,4.120164975052752,1.3793102536242674
1970-01-01 00:00:00.000000009,2.6730769230769225,-17.080624776176524,3.860160650928431,1.3793103084628717
1970-01-01 00:00:00.000000009,3.6730769230769225,-18.98721104039524,3.104172600014889,1.3793117870713365
1970-01-01 00:00:00.000000009,5.076923076923077,-22.824073314494935,1.452499549473562,1.3793516546612767
1970-01-01 00:00:00.000000009,7.346153846153845,-28.26276845096797,-0.3866847642287146,1.3804266009811985
1970-01-01 00:00:00.000000009,9.682692307692307,-33.02067486164023,-0.8929881836488572,1.409410284029147
1970-01-01 00:00:00.000000009,10.894230769230768,-35.29545281331839,0.5260038057095712,2.190894780003834
1970-01-01 00:00:00.000000009,9.865384615384615,-34.70655109795632,3.0950909378072806,2.219878463051783
1970-01-01 00:00:00.000000009,7.086538461538461,-31.78142683150233,4.791451515087007,2.2209534093717047
1970-01-01 00:00:00.000000009,4.019230769230768,-27.641973352606623,4.524099969541905,2.2209932769616447
1970-01-01 00:00:00.000000009,1.173076923076923,-23.55185368887651,2.8592476625444347,2.2209947555701097
1970-01-01 00:00:00.000000009,-1.4134615384615383,-20.50807624705909,1.4255869191578285,2.220994810408714
1970-01-01 00:00:00.000000009,-3.8269230769230766,-19.166204981718945,0.8815991547169407,2.220994812442567
1970-01-01 00:00:00.000000009,-6.499999999999999,-18.72945825935248,0.877590258199574,2.220994812517999
1970-01-01 00:00:00.000000009,-10.442307692307692,-16.029168020798014,1.5633378166715586,2.220994812520796
1970-01-01 00:00:00.000000009,-16.40384615384615,-8.308078302193879,2.582530791932503,2.2209948125209
1970-01-01 00:00:00.000000009,-24.759615384615383,4.211053861563252,4.4149935655060295,2.220994812520904
1970-01-01 00:00:00.000000009,-35.605769230769226,15.506532564401681,7.6222954767303035,2.220994812520904
1970-01-01 00:00:00.000000009,-44.16346153846153,21.215325377282113,11.136984306212153,2.220994812520904
1970-01-01 00:00:00.000000009,-43.89423076923077,26.057252622215334,12.076280790997817,2.220994812520904
1970-01-01 00:00:00.000000009,-38.69230769230769,30.08049542253185,9.67259705072888,2.220994812520904
1970-01-01 00:00:00.000000009,-32.16346153846154,29.86612378614457,7.8338395786819515,2.220994812520904
1970-01-01 00:00:00.000000009,-25.21153846153846,26.30484680337156,7.341071573683787,2.220994812520904
1970-01-01 00:00:00.000000009,-16.81730769230769,20.864739904887642,6.625092910780317,2.220994812520904
1970-01-01 00:00:00.000000009,-8.019230769230768,15.043130628594765,3.786437017384779,2.220994812520904
1970-01-01 00:00:00.000000009,-0.8653846153846153,10.049787067171014,-0.14129344139128538,2.220994812520904
1970-01-01 00:00:00.000000009,4.076923076923077,6.801120185022612,-4.351359934949481,2.220994812520904
1970-01-01 00:00:00.000000009,6.499999999999999,5.580457928439536,-5.595424802244668,2.220994812520904
1970-01-01 00:00:00.000000009,6.826923076923076,6.871243882844851,-4.725109725656568,2.220994812520904
1970-01-01 00:00:00.000000009,6.663461538461537,8.94312690837144,-4.48253779048266,2.220994812520904
1970-01-01 00:00:00.000000009,7.365384615384615,9.343182643184024,-5.05341061737527,2.220994812520904
1970-01-01 00:00:00.000000009,8.769230769230768,7.822804457597191,-5.459548878649654,2.220994812520904
1970-01-01 00:00:00.000000009,10.259615384615383,5.37253771194012,-3.104409106165381,2.220994812520904
1970-01-01 00:00:00.000000009,11.48076923076923,3.9857137647860346,-0.1094969878156253,2.220994812520904
1970-01-01 00:00:00.000000009,12.60576923076923,2.9917339372828184,1.8979904351434862,2.220994812520904
1970-01-01 00:00:00.000000009,13.923076923076922,2.5411025418500555,3.105238736689744,2.220994812520904
1970-01-01 00:00:00.000000009,15.115384615384615,2.11803469266868,3.4434554554795898,2.220994812520904
1970-01-01 00:00:00.000000009,15.682692307692305,1.3958341602043003,2.618058561259174,2.220994812520904
1970-01-01 00:00:00.000000009,15.596153846153843,0.8194876328474332,0.7441256985181027,2.220994812520904
1970-01-01 00:00:00.000000009,15.038461538461538,0.23033192667639787,-1.276664701270399,2.220994812520904
1970-01-01 00:00:00.000000009,14.346153846153845,-0.3505256125846889,-2.71407263281888,2.220994812520904
1970-01-01 00:00:00.000000010,13.71153846153846,-0.6945234664629976,-3.2532963848393557,2.220994812520904
1970-01-01 00:00:00.000000010,13.163461538461537,-0.6516079819162456,-3.124929757843722,2.220994812520904
1970-01-01 00:00:00.000000010,12.749999999999998,-0.3988920452756332,-2.6198070769411212,2.220994812520904
1970-01-01 00:00:00.000000010,12.35576923076923,0.13152275947414857,-2.1098613195665528,2.220994812520904
1970-01-01 00:00:00.000000010,11.769230769230768,1.7000065510776459,-2.3464485513558015,2.220994812520904
1970-01-01 00:00:00.000000010,10.096153846153845,4.518654119622288,-2.4942495670400815,2.220994812520904
1970-01-01 00:00:00.000000010,7.163461538461538,8.553654678724122,-1.7482897587264041,2.220994812520904
1970-01-01 00:00:00.000000010,3.048076923076923,13.180022205929008,0.2904260814271716,2.220994812520904
1970-01-01 00:00:00.000000010,-2.1634615384615383,17.05694488135908,3.5897939572600372,2.220994812520904
1970-01-01 00:00:00.000000010,-8.451923076923075,20.357489590766164,7.134010764593821,2.220994812520904
1970-01-01 00:00:00.000000010,-15.076923076923075,25.095274069327324,11.028496686773142,2.220994812520904
1970-01-01 00:00:00.000000010,-20.923076923076923,31.214910281071614,13.885399778281,2.220994812520904
1970-01-01 00:00:00.000000010,-29.25480769230769,32.707303519606256,15.627297326813853,2.220994812520904
1970-01-01 00:00:00.000000010,-31.346153846153843,25.882284748297362,16.92662804569301,2.220994812520904
1970-01-01 00:00:00.000000010,-28.913461538461537,16.11438468442255,15.891659906897456,2.220994812520904
1970-01-01 00:00:00.000000010,-23.990384615384613,6.956101731111418,13.648189440538301,2.220994812520904
1970-01-01 00:00:00.000000010,-19.19230769230769,-0.049637944414259644,10.85945498763666,2.220994812520904
1970-01-01 00:00:00.000000010,-15.057692307692307,-4.296326230296422,8.05709522565153,2.220994812520904
1970-01-01 00:00:00.000000010,-11.942307692307692,-6.4511702735891365,5.93211610495464,2.220994812520904
1970-01-01 00:00:00.000000010,-9.942307692307692,-7.885271156610228,4.860039608123772,2.220994812520904
1970-01-01 00:00:00.000000010,-8.259615384615383,-9.451150954887034,4.53895331438722,2.220994812520904
1970-01-01 00:00:00.000000010,-6.461538461538461,-11.29580462533968,4.191699880331157,2.220994812520904
1970-01-01 00:00:00.000000010,-5.067307692307692,-13.035573929284334,3.1369434545540176,2.220994812520904
1970-01-01 00:00:00.000000010,-2.9615384615384612,-13.914691465337366,2.5057733926273142,2.220994812520904
1970-01-01 00:00:00.000000010,-0.9615384615384615,-15.161095634824573,2.518938146383477,2.220994812520904
1970-01-01 00:00:00.000000010,0.7115384615384615,-16.934890674926113,2.7555565597265654,2.220994812520904
1970-01-01 00:00:00.000000010,2.1249999999999996,-18.83095258818042,2.63108896623379,2.220994812520904
1970-01-01 00:00:00.000000010,3.1730769230769225,-21.00082920594522,2.533845528585772,2.220994812520904
1970-01-01 00:00:00.000000010,4.3173076923076925,-22.691435972340514,2.532740305582048,2.220994812520904
1970-01-01 00:00:00.000000010,5.456730769230768,-23.41794204724865,2.1001427221295366,2.220994812520904
1970-01-01 00:00:00.000000010,5.990384615384615,-23.21799930337304,1.9211131919154378,2.220994812520904
1970-01-01 00:00:00.000000010,6.240384615384615,-23.218039143823454,2.0199134595872867,2.220994812520904
1970-01-01 00:00:00.000000010,6.9230769230769225,-23.919057579860127,1.6165502169413017,2.220994812520904
1970-01-01 00:00:00.000000010,8.057692307692308,-25.096515512400032,0.8769423978278588,2.220994812520904
1970-01-01 00:00:00.000000010,9.163461538461537,-26.186861254940624,0.3108945244108859,2.220994812520904
1970-01-01 00:00:00.000000010,9.932692307692307,-26.448738370996825,0.767209761266061,2.220994812520904
1970-01-01 00:00:00.000000010,10.067307692307692,-25.429074761973602,2.153769029772763,2.220994812520904
1970-01-01 00:00:00.000000010,7.350961538461537,-22.136280202290447,3.1345540425985297,2.220994812520904
1970-01-01 00:00:00.000000010,2.3846153846153846,-17.500490699868394,2.104190120387541,2.220994812520904
1970-01-01 00:00:00.000000010,-0.9038461538461537,-13.626968694156176,0.6785792078650713,2.220994812520904
1970-01-01 00:00:00.000000010,-3.9615384615384612,-9.927664042348402,-0.5325515080306101,2.220994812520904
1970-01-01 00:00:00.000000010,-5.365384615384615,-6.919960449250717,-1.5574699246915396,2.220994812520904
1970-01-01 00:00:00.000000010,-6.509615384615383,-5.911268087420966,-3.7691364586409533,2.220994812520904
1970-01-01 00:00:00.000000010,-9.153846153846153,-7.934277911115383,-5.459214458614197,2.220994812520904
1970-01-01 00:00:00.000000010,-13.46153846153846,-6.814235512694343,-4.379653923942352,2.220994812520904
1970-01-01 00:00:00.000000010,-20.06730769230769,2.4499190683681165,-1.041441487829313,2.220994812520904
1970-01-01 00:00:00.000000010,-31.509615384615383,12.462050358633453,2.2607337525509013,2.220994812520904
1970-01-01 00:00:00.000000010,-41.61538461538461,17.02544061473508,6.831252806703649,2.220994812520904
1970-01-01 00:00:00.000000010,-41.125,20.97484623921364,8.933092028447623,2.220994812520904
1970-01-01 00:00:00.000000010,-33.70192307692307,23.295407844033267,6.862231961382187,2.220994812520904
1970-01-01 00:00:00.000000010,-24.278846153846153,20.251165549684604,3.5971709288713902,2.220994812520904
1970-01-01 00:00:00.000000010,-15.249999999999998,14.736061997451015,0.7613831181453482,2.2209948125209023
1970-01-01 00:00:00.000000010,-8.403846153846153,9.622508381492782,-0.7898267389469822,2.220994812520859
1970-01-01 00:00:00.000000010,-3.423076923076923,6.071664302854102,-1.3367050697138647,2.2209948125196917
1970-01-01 00:00:00.000000010,-0.3173076923076923,4.062427795567989,-1.801210143327359,2.22099481248822
1970-01-01 00:00:00.000000010,1.5576923076923077,3.1138861774816133,-2.2959688001248297,2.2209948116396467
1970-01-01 00:00:00.000000010,2.548076923076923,3.012498996435572,-2.689947460043048,2.22099478875964
1970-01-01 00:00:00.000000010,3.2499999999999996,3.473586726278822,-2.5826126210374643,2.2209941718480315
1970-01-01 00:00:00.000000010,3.8557692307692304,3.774342613092627,-1.7905933079684888,2.220977538114613
1970-01-01 00:00:00.000000010,4.605769230769231,3.9336638272221234,-0.7634066941117351,2.220529044223917
1970-01-01 00:00:00.000000010,5.519230769230769,3.9345807219047026,-0.32138743304835643,2.2084363429085436
1970-01-01 00:00:00.000000010,6.740384615384615,4.050015664204844,-0.16405399819388858,1.8823819012841572
1970-01-01 00:00:00.000000010,8.538461538461538,3.915842211626103,0.14192948181336462,1.8702891999687838
1970-01-01 00:00:00.000000010,10.576923076923077,3.427724049699923,0.7461500071547333,1.869840706078088
1970-01-01 00:00:00.000000010,12.461538461538462,2.882707130271811,1.504120711364435,1.869824072344669
1970-01-01 00:00:00.000000010,13.788461538461537,2.155368467638966,2.365109199685013,1.8698234554330608
1970-01-01 00:00:00.000000010,14.615384615384613,1.8122414959802728,3.603827680130922,1.869823432553054
1970-01-01 00:00:00.000000010,14.999999999999998,2.025151923828403,4.938238163849877,1.8698234317044808
1970-01-01 00:00:00.000000010,14.999999999999998,2.366860447386602,5.478602743815767,1.8698234316730091
1970-01-01 00:00:00.000000010,14.807692307692307,2.6300801556098405,4.484035919175826,1.8698234316718418
1970-01-01 00:00:00.000000010,14.701923076923075,2.645303754079088,2.5903670739315383,1.8698234316717985
1970-01-01 00:00:00.000000010,14.576923076923077,2.2931212045255203,0.9558750769757063,1.8698234316717968
1970-01-01 00:00:00.000000010,14.221153846153845,2.0189687681099584,0.21826000441253357,1.8698234316717968
1970-01-01 00:00:00.000000010,12.951923076923077,2.719035534443358,0.6871450421627002,1.8698234316717968
1970-01-01 00:00:00.000000010,9.951923076923075,4.894990661860703,1.8346561339803737,1.8698234316717968
1970-01-01 00:00:00.000000010,6.028846153846153,8.695712335795614,2.5985705753073884,1.8698234316717968
1970-01-01 00:00:00.000000010,1.7403846153846152,12.889242404620843,2.8267493993191044,1.8698234316717968
1970-01-01 00:00:00.000000010,-3.2499999999999996,15.563832588967154,2.4736632063084283,1.8698234316717968
1970-01-01 00:00:00.000000010,-7.615384615384615,15.334237497492268,2.212157171008449,1.8698234316717968
1970-01-01 00:00:00.000000010,-8.48076923076923,16.46057984332411,5.004580410919705,1.8698234316717968
1970-01-01 00:00:00.000000010,-9.624999999999998,21.101418272258666,9.911513923823588,1.8698234316717968
1970-01-01 00:00:00.000000010,-15.759615384615383,24.527713507659854,13.60629553231712,1.8698234316717968
1970-01-01 00:00:00.000000010,-25.144230769230766,22.89684643455744,18.708465448738647,1.8698234316717968
1970-01-01 00:00:00.000000010,-27.884615384615383,23.43714022539104,21.5222715836263,1.8698234316717968
1970-01-01 00:00:00.000000010,-27.913461538461537,20.155939651000626,18.392867309171407,1.8698234316717968
1970-01-01 00:00:00.000000010,-24.451923076923073,12.273230351625868,14.585145764001734,1.8698234316717968
1970-01-01 00:00:00.000000010,-19.06730769230769,3.971279842897851,10.906068318875397,1.8698234316717968
1970-01-01 00:00:00.000000010,-13.951923076923075,-2.0486745933838586,7.128698845633981,1.8698234316717968
1970-01-01 00:00:00.000000010,-9.990384615384615,-5.535493864262022,3.5688005132420924,1.8698234316717968
1970-01-01 00:00:00.000000010,-7.115384615384615,-6.90965974169073,1.2289150119025154,1.8698234316717968
1970-01-01 00:00:00.000000010,-5.307692307692307,-7.525319161387676,0.3619048081258292,1.8698234316717968
1970-01-01 00:00:00.000000010,-4.153846153846154,-8.523957615776524,0.5425148074948717,1.8698234316717968
1970-01-01 00:00:00.000000010,-3.019230769230769,-9.87153646457844,0.7859949942357055,1.8698234316717968
1970-01-01 00:00:00.000000010,-1.644230769230769,-11.007526927841313,0.679350036869176,1.8698234316717968
1970-01-01 00:00:00.000000010,-0.08653846153846152,-12.081690587137023,0.5564560012320456,1.8698234316717968
1970-01-01 00:00:00.000000010,1.471153846153846,-13.198118924858331,0.8449619963960577,1.8698234316717968
1970-01-01 00:00:00.000000011,2.5769230769230766,-14.517520384037923,1.2575179014615125,1.8698234316717968
1970-01-01 00:00:00.000000011,3.048076923076923,-16.024931444165617,1.6080213430647765,1.8698234316717968
1970-01-01 00:00:00.000000011,3.3749999999999996,-17.65562860843372,1.409058361287452,1.8698234316717968
1970-01-01 00:00:00.000000011,4.115384615384615,-19.177040983544817,0.4365544116964323,1.8698234316717968
1970-01-01 00:00:00.000000011,5.038461538461538,-20.62447794727632,-0.6220892454837799,1.8698234316717968
1970-01-01 00:00:00.000000011,6.0480769230769225,-22.18386359291578,-1.23296403975849,1.8698234316717968
1970-01-01 00:00:00.000000011,7.009615384615384,-24.089839061449673,-1.6679398279954465,1.8698234316717968
1970-01-01 00:00:00.000000011,7.85576923076923,-25.991791066225378,-1.801411316118569,1.8698234316717968
1970-01-01 00:00:00.000000011,8.451923076923075,-27.6885197266355,-1.4701657072059147,1.8698234316717968
1970-01-01 00:00:00.000000011,8.499999999999998,-28.848241552933167,-0.39306277844112447,1.8698234316717968
1970-01-01 00:00:00.000000011,7.663461538461537,-28.96400220255999,1.1074706892955526,1.8698234316717968
1970-01-01 00:00:00.000000011,6.4326923076923075,-27.6798179161866,2.2947713894210375,1.8698234316717968
1970-01-01 00:00:00.000000011,4.836538461538462,-25.141081534478264,2.351356825072461,1.8698234316717968
1970-01-01 00:00:00.000000011,2.923076923076923,-22.62938351472654,1.6918628875354096,1.8698234316717968
1970-01-01 00:00:00.000000011,1.3173076923076923,-20.60227336313845,1.078941138383597,1.8698234316717968
1970-01-01 00:00:00.000000011,-0.01923076923076923,-18.881997290011675,0.4395478488217038,1.8698234316717968
1970-01-01 00:00:00.000000011,-1.7788461538461537,-18.461653467176866,-0.21114922019759272,1.8698234316717968
1970-01-01 00:00:00.000000011,-4.461538461538461,-19.082646323763683,-0.640576794156707,1.8698234316717968
1970-01-01 00:00:00.000000011,-8.509615384615383,-18.01979727444263,-1.0844242220334972,1.8698234316717968
1970-01-01 00:00:00.000000011,-14.471153846153845,-12.451880086187366,-1.1388772007477168,1.8698234316717968
1970-01-01 00:00:00.000000011,-22.625,-0.43096505261619783,0.3347398018451426,1.8698234316717968
1970-01-01 00:00:00.000000011,-34.33653846153846,12.065823665550017,3.1768518505665684,1.8698234316717968
1970-01-01 00:00:00.000000011,-45.3076923076923,19.458204022466653,8.690260163452223,1.8698234316717968
1970-01-01 00:00:00.000000011,-46.50961538461538,25.55568494104955,12.960172562643463,1.8698234316717968
1970-01-01 00:00:00.000000011,-39.605769230769226,29.795289385871147,10.234399027921288,1.8698234316717968
1970-01-01 00:00:00.000000011,-30.83653846153846,27.417128477471458,5.368601191231319,1.8698234316717968
1970-01-01 00:00:00.000000011,-21.605769230769226,21.467179505858272,2.217833135324326,1.8698234316717968
1970-01-01 00:00:00.000000011,-14.096153846153845,15.446718180702002,1.2628934625254848,1.8698234316717968
1970-01-01 00:00:00.000000011,-8.69230769230769,11.594211373095789,-0.3697096471362298,1.8698234316717968
1970-01-01 00:00:00.000000011,-2.5384615384615383,8.596988892884303,-4.495053935203689,1.8698234316717968
1970-01-01 00:00:00.000000011,0.8173076923076922,5.024488734780427,-5.49674660336337,1.8698234316717968
1970-01-01 00:00:00.000000011,2.7115384615384612,4.064206946187201,-3.917104355607309,1.8698234316717968
1970-01-01 00:00:00.000000011,3.567307692307692,3.9590988122739974,-2.5150709980339747,1.8698234316717968
1970-01-01 00:00:00.000000011,4.115384615384615,4.331460985210726,-0.989812591310004,1.8698234316717968
1970-01-01 00:00:00.000000011,5.134615384615384,4.2403477884156064,-0.20986896733613386,1.8698234316717968
1970-01-01 00:00:00.000000011,6.509615384615383,3.4079293020106642,0.07335047323438704,1.8698234316717968
1970-01-01 00:00:00.000000011,7.75,2.7737433658723365,0.6903317446645832,1.8698234316717968
1970-01-01 00:00:00.000000011,8.894230769230768,2.4831415765424345,1.8156066327093596,1.8698234316717968
1970-01-01 00:00:00.000000011,10.173076923076922,2.521079200773391,3.0810473384881307,1.8698234316717968
1970-01-01 00:00:00.000000011,11.653846153846152,3.0859968443391335,4.122671506470177,1.8698234316717968
1970-01-01 00:00:00.000000011,13.596153846153845,3.8008355963832146,4.481083336206648,1.8698234316717968
1970-01-01 00:00:00.000000011,15.576923076923075,4.286564258007658,4.366578571109313,1.8698234316717968
1970-01-01 00:00:00.000000011,16.788461538461537,4.186399369823571,3.9165380837448147,1.8698234316717968
1970-01-01 00:00:00.000000011,17.019230769230766,3.496218727228748,3.1299496900006876,1.8698234316717968
1970-01-01 00:00:00.000000011,16.432692307692307,2.9615062653526176,2.3421035462737603,1.8698234316717968
1970-01-01 00:00:00.000000011,15.490384615384613,2.714450437291913,1.856846059390834,1.8698234316717968
1970-01-01 00:00:00.000000011,14.644230769230768,2.8286555415290318,1.7927400572787549,1.8698234316717968
1970-01-01 00:00:00.000000011,13.913461538461538,3.1592491839919457,2.297135487135546,1.8698234316717968
1970-01-01 00:00:00.000000011,13.163461538461537,3.721072426253505,3.2299180953809965,1.8698234316717968
1970-01-01 00:00:00.000000011,12.21153846153846,4.559706324852687,4.160653088151369,1.8698234316717968
1970-01-01 00:00:00.000000011,10.798076923076923,6.140998344769047,4.107715284705955,1.8698234316717968
1970-01-01 00:00:00.000000011,7.894230769230769,8.997248983911577,2.747659598909394,1.8698234316717968
1970-01-01 00:00:00.000000011,3.442307692307692,12.784724220843545,1.0790938858476877,1.8698234316717968
1970-01-01 00:00:00.000000011,-2.4326923076923075,15.940304978864157,0.38787531897817185,1.8698234316717972
1970-01-01 00:00:00.000000011,-8.048076923076922,18.603510208488643,1.893539726562953,1.8698234316718083
1970-01-01 00:00:00.000000011,-13.125,23.604470650329173,5.237697298221558,1.8698234316721083
1970-01-01 00:00:00.000000011,-23.072115384615383,27.96719735039904,10.024287325419106,1.8698234316801985
1970-01-01 00:00:00.000000011,-29.846153846153843,26.884857810444935,11.668060488094287,1.8698234318983324
1970-01-01 00:00:00.000000011,-31.288461538461537,22.67396353161416,10.263345853126667,1.8698234377798564
1970-01-01 00:00:00.000000011,-29.576923076923077,16.562157543137378,9.192277546325727,1.8698235963628702
1970-01-01 00:00:00.000000011,-26.04807692307692,9.004290133095013,8.42814789766796,1.8698278722227217
1970-01-01 00:00:00.000000011,-21.06730769230769,2.3036760504279843,7.117715690709214,1.8699431618556996
1970-01-01 00:00:00.000000011,-16.307692307692307,-2.555036771539452,5.750175751480809,1.8730517060862524
1970-01-01 00:00:00.000000011,-12.21153846153846,-7.0396688819931805,4.887029599272618,1.9568671106781965
1970-01-01 00:00:00.000000011,-9.653846153846152,-9.391023042276421,3.6996234288798755,1.9599756549087493
1970-01-01 00:00:00.000000011,-6.711538461538462,-10.517953259470193,2.252802980484031,1.9600909445417272
1970-01-01 00:00:00.000000011,-3.6730769230769225,-11.34371496341885,2.1260570441889612,1.960095220401579
1970-01-01 00:00:00.000000011,-2.375,-11.762350752838751,2.650737212617919,1.9600953789845927
1970-01-01 00:00:00.000000011,-1.3076923076923077,-11.739755363227442,3.443847696494859,1.9600953848661167
1970-01-01 00:00:00.000000011,-0.3125,-12.711044054302175,4.083150592743271,1.9600953850842506
1970-01-01 00:00:00.000000011,0.6442307692307692,-15.333434102931252,4.051218307573451,1.9600953850923408
1970-01-01 00:00:00.000000011,1.8846153846153844,-18.041676724841633,3.5497437117398865,1.9600953850926408
1970-01-01 00:00:00.000000011,3.798076923076923,-21.541837467792796,2.541861909403494,1.960095385092652
