time,ax,ay,az,speed
1970-01-01 00:00:00.000000000,0.42299227501188114,1.2433168197939612,-2.8258588286452073,0.5293234717014271
1970-01-01 00:00:00.000000047,0.35541737105218324,1.2595440588979654,-2.268414011499628,0.5285755020883
1970-01-01 00:00:00.000000047,0.453633118313604,1.541236917379293,-2.019455334916545,0.4854253295656492
1970-01-01 00:00:00.000000047,0.4168624410233781,1.6395238354168935,-1.7212089061731382,0.45492561921296537
1970-01-01 00:00:00.000000047,0.3113537950717705,1.7643546676478274,-1.414737102987202,0.4273605159101823
1970-01-01 00:00:00.000000047,0.20896069477340384,1.9776148461511478,-1.2471302194046485,0.40471706339342267
1970-01-01 00:00:00.000000047,0.13947764177100774,2.1787042427708867,-1.210320756600611,0.3888043580047229
1970-01-01 00:00:00.000000047,0.049514840723355213,2.299418286708571,-1.2295116307660587,0.38636527873465565
1970-01-01 00:00:00.000000047,0.02775309652884514,2.404087828174211,-1.237994944269292,0.38290259559945095
1970-01-01 00:00:00.000000047,0.06678340336933898,2.4376642608594916,-1.1196406776404402,0.3700620872696759
1970-01-01 00:00:00.000000047,0.06520094978191962,2.321298345119352,-0.8338522219353336,0.3585709887238301
1970-01-01 00:00:00.000000047,0.06951229851295768,2.179279738811556,-0.4524806331650445,0.3445893876770595
1970-01-01 00:00:00.000000047,0.12421633361546192,2.0617266248157717,-0.09065285149775723,0.32916059853467805
1970-01-01 00:00:00.000000047,0.2231239120292844,1.91993907415875,0.1874535856700844,0.3166928136584788
1970-01-01 00:00:00.000000047,0.2952222282646038,1.7733385698025943,0.3986098569221286,0.30960166053115656
1970-01-01 00:00:00.000000047,0.34027201868727064,1.6353704671597282,0.5001807078757486,0.3090662752859708
1970-01-01 00:00:00.000000047,0.3476766365623041,1.5617795169099193,0.5363847291228994,0.30664934354459805
1970-01-01 00:00:00.000000047,0.25323148241419413,1.531313499937123,0.4808439889714615,0.31044910890191046
1970-01-01 00:00:00.000000047,0.0779937827002799,1.4438239563532558,0.3565419480673987,0.3269616697225869
1970-01-01 00:00:00.000000047,-0.10687535026400952,1.4279561008311628,0.3718113880787131,0.3348848507931249
1970-01-01 00:00:00.000000047,-0.20326158171112382,1.3896044987092566,0.4609792626790442,0.33488913226770356
1970-01-01 00:00:00.000000047,-0.2759267270035435,1.134511055188474,0.6177743951251492,0.3416135092593191
1970-01-01 00:00:00.000000047,-0.3723873151891209,0.8626513782010866,0.8393867925215479,0.3504791025102224
1970-01-01 00:00:00.000000047,-0.4015153093002133,0.5620976942569221,0.9506905409727542,0.36768989448753
1970-01-01 00:00:00.000000047,-0.3589180048179627,0.28883165679375783,0.8041031038007456,0.39333943666577403
1970-01-01 00:00:00.000000047,-0.37319882212737315,0.08002877047048622,0.3537649929433362,0.4374927247391004
1970-01-01 00:00:00.000000047,-0.41539028779893544,-0.1413653510754811,-0.26575879131551705,0.4969997322598771
1970-01-01 00:00:00.000000047,-0.42638731378119676,-0.41920705596166224,-0.8015661649154809,0.5505323377791804
1970-01-01 00:00:00.000000047,-0.4943378603866681,-0.7839461482323107,-1.233248649745354,0.6019984973898835
1970-01-01 00:00:00.000000047,-0.6575057654465074,-1.1362760248955373,-1.6350844567939273,0.6558361111176279
1970-01-01 00:00:00.000000047,-0.8297980319989193,-1.397857829163863,-1.9163829889073827,0.6945712955241686
1970-01-01 00:00:00.000000047,-1.0552343637339374,-1.8032340777391076,-2.3046049589156588,0.7415862507794561
1970-01-01 00:00:00.000000047,-1.5071914644690532,-2.295610679316331,-2.8140993113397275,0.7884551639515879
1970-01-01 00:00:00.000000047,-2.5415734723512142,-2.5057369088613903,-3.2535590923165594,0.8105666288087116
1970-01-01 00:00:00.000000047,-4.419943775692638,-2.456694738869788,-3.0044050601359062,0.8407810329098337
1970-01-01 00:00:00.000000047,-5.849813895734091,-2.345392333508247,-1.6357488242383256,0.7114960648261532
1970-01-01 00:00:00.000000047,-8.396926148696114,-2.5710256779731147,2.3870593935808655,0.5088314032308966
1970-01-01 00:00:00.000000048,-10.734036135798414,-2.2822391528652073,7.126414269822287,0.2833597392634726
1970-01-01 00:00:00.000000048,-11.562863006827243,-1.6947554274667114,10.130801913541656,0.08790367675843913
1970-01-01 00:00:00.000000048,-11.674886139375106,-1.9681310018098146,12.413263782728686,-0.06058798190454279
1970-01-01 00:00:00.000000048,-11.983462931400261,-1.5315144857401792,14.440587355791136,-0.2191659545679931
1970-01-01 00:00:00.000000048,-12.13546710400913,0.6820505318316378,16.04740546863855,-0.4507360484700385
1970-01-01 00:00:00.000000048,-11.811236741766253,2.9299852010806697,17.322466653335805,-0.6262549002821013
1970-01-01 00:00:00.000000048,-10.121177446823117,3.6556893373047497,17.38733361138631,-0.6386607212337886
1970-01-01 00:00:00.000000048,-6.98645538521901,3.554774921825416,14.916688869771871,-0.4950904593980691
1970-01-01 00:00:00.000000048,-3.345286741928654,3.709084582928209,10.249116903400752,-0.2515845536129974
1970-01-01 00:00:00.000000048,0.36418100525502395,4.517330143142919,4.4862888479554925,-0.02952506429101437
1970-01-01 00:00:00.000000048,3.053476102898389,5.384433802281275,-0.7437134882518454,0.17135843606095802
1970-01-01 00:00:00.000000048,4.772423051926932,5.924672850767373,-4.004262698439634,0.3098392682073276
1970-01-01 00:00:00.000000048,6.131913570314819,5.698091096433146,-5.505021441622986,0.4020058314868944
1970-01-01 00:00:00.000000048,7.426059662405093,4.769629522856346,-6.535473455452199,0.4815070498224232
1970-01-01 00:00:00.000000048,8.116984073792066,3.9049437480478293,-6.62972412822674,0.5130683390329653
1970-01-01 00:00:00.000000048,8.354171486788482,2.9767286704731104,-5.904201010631746,0.5255611980604742
1970-01-01 00:00:00.000000048,8.593429093372922,2.2910953810478607,-5.959338132508675,0.5927951328763204
1970-01-01 00:00:00.000000048,9.220658380986833,1.800431135980589,-7.330344048941018,0.7388380057164178
1970-01-01 00:00:00.000000048,10.422449360911125,0.839427451662069,-9.691069027664758,0.9660592806557635
1970-01-01 00:00:00.000000048,12.058054800550925,-0.8440993354144865,-12.28672909231719,1.2278992756343121
1970-01-01 00:00:00.000000048,13.670430492286663,-2.938684686160312,-14.359191643206545,1.4699920811181784
1970-01-01 00:00:00.000000048,15.054332831985082,-4.720565666924756,-15.131623750270414,1.5830545365003523
1970-01-01 00:00:00.000000048,15.73120783703565,-5.363983236086496,-14.29204452937311,1.5164315870679177
1970-01-01 00:00:00.000000048,15.568886129764556,-4.741416533038023,-12.388013368431094,1.317509586660767
1970-01-01 00:00:00.000000048,14.789175897084062,-3.471385121598523,-10.001438383925038,1.080551385069011
1970-01-01 00:00:00.000000048,13.992932678527273,-2.3351496255093287,-7.4999908729321545,0.8495560327702125
1970-01-01 00:00:00.000000048,13.284907909725137,-1.3834440412596323,-5.304104459349416,0.6430183235752233
1970-01-01 00:00:00.000000048,12.492668869458107,-0.8640493089522547,-3.307039349953436,0.5070749812641948
1970-01-01 00:00:00.000000048,12.164153712270043,-0.9063365871116854,-1.6964072760538127,0.4289029818523744
1970-01-01 00:00:00.000000048,12.309411077246716,-1.365591615578487,-1.0045101760147952,0.40609855418941937
1970-01-01 00:00:00.000000048,12.385546888630996,-1.6697018943913151,-1.1304323372294836,0.4220392183328704
1970-01-01 00:00:00.000000048,12.290832302815538,-1.6679268366075424,-1.2187302328017824,0.37873913513234014
1970-01-01 00:00:00.000000048,11.24814987111905,-0.313025519684792,-0.9739867740910917,0.19656070252261126
1970-01-01 00:00:00.000000048,8.409893490317181,2.5718443145869747,0.026693841811156305,-0.12464755959822321
1970-01-01 00:00:00.000000048,3.4763832286577863,6.662905498125464,2.104803987584708,-0.5606152291273943
1970-01-01 00:00:00.000000048,-3.52895717172092,11.995634454211892,5.4720441423870385,-1.0015872094754676
1970-01-01 00:00:00.000000048,-9.893042952515618,17.864912463258374,9.78607555452824,-1.4952056310924564
1970-01-01 00:00:00.000000048,-14.500904212327004,23.424244280424237,13.819238056535275,-1.9603765054068343
1970-01-01 00:00:00.000000048,-16.864760861660688,27.985072493374318,17.228741357103726,-2.4482245317580054
1970-01-01 00:00:00.000000048,-19.17067984637531,27.426109515015757,19.61017505959973,-2.5469432797701437
1970-01-01 00:00:00.000000048,-21.739179721592482,23.439940413916755,21.166041253955537,-2.3078419222152995
1970-01-01 00:00:00.000000048,-23.61104151775973,20.861424255923893,20.532081392386974,-2.014299926900115
1970-01-01 00:00:00.000000048,-24.756824249485497,18.171536942715743,19.303178787178997,-1.633887559446593
1970-01-01 00:00:00.000000048,-24.162033705992396,13.146622733832334,18.280295397875495,-1.1327685437732566
1970-01-01 00:00:00.000000048,-21.645243520681124,7.077502534870098,16.05502261957216,-0.5692913603638501
1970-01-01 00:00:00.000000048,-18.3191045256518,2.31367208881829,12.323041711730724,-0.029025706938132667
1970-01-01 00:00:00.000000048,-14.638827348648455,-1.5629146230732325,8.462545110860278,0.4223848846920046
1970-01-01 00:00:00.000000048,-11.284216639866921,-4.95142154336728,4.7266216499251,0.8357090600053212
1970-01-01 00:00:00.000000048,-8.223453499041133,-7.6887477064074545,1.5929587785533332,1.1698251748423156
1970-01-01 00:00:00.000000048,-5.419680410759521,-9.853662682205846,-0.425630781556844,1.3820206061203368
1970-01-01 00:00:00.000000048,-3.1363719154794354,-11.58534387245935,-1.560189039897094,1.5108781290527342
1970-01-01 00:00:00.000000048,-1.3984969038866346,-12.63001785100311,-2.128869272471129,1.573638999451769
1970-01-01 00:00:00.000000048,-0.0024930543816255035,-13.156951407350729,-2.4010946195492617,1.5869076513737828
1970-01-01 00:00:00.000000048,1.0416121406247485,-13.630828018383399,-2.4738433262757993,1.5910558146782732
1970-01-01 00:00:00.000000048,1.7730814330296212,-14.465372679964972,-2.2326427808614255,1.622977851930247
1970-01-01 00:00:00.000000048,2.618860112851732,-15.610048922582479,-1.7333263388939133,1.6448777034819997
1970-01-01 00:00:00.000000048,3.2954148674703547,-17.19069665650597,-1.2519167960186652,1.6953178132942903
1970-01-01 00:00:00.000000048,3.7359293510369795,-18.761517117757343,-0.5411834682890675,1.747293038739862
1970-01-01 00:00:00.000000048,4.12521942068912,-19.80275357795503,0.4574750972009074,1.8904522756239168
1970-01-01 00:00:00.000000048,4.5133869870636225,-20.21689479268922,1.5889457870529224,1.8351040751288754
1970-01-01 00:00:00.000000048,4.784764717845033,-20.033465551873988,2.214001426008335,1.771549003319771
1970-01-01 00:00:00.000000048,4.9743294549677355,-19.54405932693301,2.3317084961481305,1.7335857731648305
1970-01-01 00:00:00.000000048,5.305229836025147,-19.30974079903674,2.3385234462710707,1.7259133260943766
1970-01-01 00:00:00.000000048,5.941582698569759,-19.54389207621628,2.333474724013439,1.7353751799095787
1970-01-01 00:00:00.000000048,6.698683564474543,-19.62777994944443,2.1628594114499586,1.7210328185067634
1970-01-01 00:00:00.000000048,7.091956713446734,-19.540113879132814,1.9297820647857862,1.6928145771073289
1970-01-01 00:00:00.000000048,6.8841745652597846,-19.15018001580301,1.9963711091051453,1.6343265124134665
1970-01-01 00:00:00.000000048,6.076196538268173,-18.25851907566274,2.47846535293899,1.534479707625756
1970-01-01 00:00:00.000000048,4.860207275148428,-16.807381909979256,3.1946465373594366,1.413329688277615
1970-01-01 00:00:00.000000048,3.7844104318798912,-14.268822776953824,3.2989608725891326,1.2416425703770426
1970-01-01 00:00:00.000000048,2.4846644518210486,-11.07886940978812,2.749260680532849,1.0772343475720385
1970-01-01 00:00:00.000000048,1.003125858895051,-8.797171651867215,2.2445571372559723,1.0014154272098759
1970-01-01 00:00:00.000000048,-0.07269674401309456,-7.761458180878658,2.0370890351264967,0.9885401745264165
1970-01-01 00:00:00.000000048,-0.6255876220845167,-7.558737125366147,1.7103089176499007,0.986882369177582
1970-01-01 00:00:00.000000048,-1.5640299387278058,-7.850107586996991,1.115588358431102,0.9758713879623262
1970-01-01 00:00:00.000000048,-4.227323248148876,-7.69342744554682,0.8613170379954378,0.9066363614946509
1970-01-01 00:00:00.000000048,-9.362675193778395,-5.422921420966631,0.8394836892463765,0.7970733718777596
1970-01-01 00:00:00.000000048,-15.400790463645128,0.6434565978216387,0.9236500900306664,0.5775031752625033
1970-01-01 00:00:00.000000048,-19.3437419225879,11.080425553506139,-0.6167552670630647,-0.07606067075111056
1970-01-01 00:00:00.000000048,-26.080848085086103,18.68320544302605,-2.4208702045513624,-0.38171821167662257
1970-01-01 00:00:00.000000048,-33.48084116240784,20.285323598600577,-0.5775380654206181,-0.21687787643056133
1970-01-01 00:00:00.000000048,-35.11272419159876,22.397231219376575,1.7040419383820504,-0.2530339740774079
1970-01-01 00:00:00.000000048,-32.158065238109565,24.590520983142493,1.4872720603119087,-0.3701867873998881
1970-01-01 00:00:00.000000048,-27.91522608977036,24.333677387641703,0.7391457522101585,-0.3609162458648866
1970-01-01 00:00:00.000000048,-23.303103927425965,22.690216208482546,0.24111097466179965,-0.25885314796887493
1970-01-01 00:00:00.000000048,-17.967024190027978,20.57545118741018,-1.705858490318195,-0.01057682558734907
1970-01-01 00:00:00.000000048,-11.30964793767303,16.631761536618736,-5.264494528226701,0.3523255198205596
1970-01-01 00:00:00.000000048,-5.150159410517682,11.496315161866034,-7.1712889112324,0.631821698996701
1970-01-01 00:00:00.000000048,-0.7862206504830772,7.230531951660456,-7.148521957151828,0.7628954486704003
1970-01-01 00:00:00.000000048,1.970042069740992,4.656826723580251,-5.910024741253056,0.7393855834017662
1970-01-01 00:00:00.000000048,3.37123062729689,3.3625235239564186,-4.063412117730629,0.6535002198111344
1970-01-01 00:00:00.000000048,4.279579739067059,2.7101922218004613,-2.4732186389165074,0.5782551277400408
1970-01-01 00:00:00.000000048,5.274616700496914,2.0649495256326937,-1.4612080720383982,0.5559222678303851
1970-01-01 00:00:00.000000048,6.7011308921516175,1.3337770043147064,-1.1890672720878275,0.5662291153965227
1970-01-01 00:00:00.000000048,8.227710657710137,0.47004963120991156,-1.3705882339873932,0.5995348659050426
1970-01-01 00:00:00.000000048,9.560724104934158,-0.48042353242108365,-1.4048016163457702,0.6274766709494155
1970-01-01 00:00:00.000000048,10.593255742958997,-1.4877705194095765,-0.8553409201788074,0.6403007145825171
1970-01-01 00:00:00.000000048,11.637910261278487,-2.569657781900681,0.1803194812547764,0.6246163101991127
1970-01-01 00:00:00.000000048,12.689403417553153,-3.3851614714117826,1.2317950345547957,0.5764187589743113
1970-01-01 00:00:00.000000049,13.45770786312264,-3.823889856520612,1.8339585414215789,0.5387532494879009
1970-01-01 00:00:00.000000049,13.968283064239621,-4.1442173464035665,2.000732892068942,0.5298172631239207
1970-01-01 00:00:00.000000049,14.301191945556184,-4.413095321098022,2.0927127197174933,0.5174470078193658
1970-01-01 00:00:00.000000049,14.262908083773135,-4.5346095211114745,1.977257342434865,0.5102497278142135
1970-01-01 00:00:00.000000049,13.738451589802537,-4.1058432638004545,1.4587540111352428,0.5190651059595263
1970-01-01 00:00:00.000000049,13.097535445968237,-3.1559833488969486,0.8262762108205166,0.5159343633805218
1970-01-01 00:00:00.000000049,12.586770116926315,-2.598196032996182,0.6082148044397127,0.5129248064193443
1970-01-01 00:00:00.000000049,12.287128462815817,-2.6522554327074075,0.6885776183443316,0.5203404969180934
1970-01-01 00:00:00.000000049,12.069540485619122,-2.8657188828087445,0.8803626581522908,0.5275013553479553
1970-01-01 00:00:00.000000049,11.90410582061064,-2.779614365151495,0.7737541897446576,0.508987113137537
1970-01-01 00:00:00.000000049,11.269027379539928,-2.2557561666758428,0.4391132745593207,0.48751448665516744
1970-01-01 00:00:00.000000049,10.277567633959125,-0.9637629996776356,0.2443433587756244,0.41019413965431123
1970-01-01 00:00:00.000000049,8.925185494640981,1.2884428766707012,-0.28755488632649095,0.2362659629860247
1970-01-01 00:00:00.000000049,5.917230558637791,4.25663465434118,-1.0034113050363764,0.06815182320667079
1970-01-01 00:00:00.000000049,1.557863070359637,7.3663257871382966,-1.3289173530582805,-0.07628276212467844
1970-01-01 00:00:00.000000049,-3.418267963299672,10.196812752009286,-0.8147060739208254,-0.2208842692730152
1970-01-01 00:00:00.000000049,-8.252972589721061,15.050515877754977,1.9347507178381333,-0.6904441699205391
1970-01-01 00:00:00.000000049,-13.790529463300398,23.306429588863892,5.942289097039184,-1.4375436994092836
1970-01-01 00:00:00.000000049,-19.70158078850802,29.466016892131847,9.749988772782256,-2.0360508658840915
1970-01-01 00:00:00.000000049,-26.628185561632943,27.339131267369407,12.120512536754868,-1.6284739331051195
1970-01-01 00:00:00.000000049,-27.11113352117801,21.92383524535386,10.112157638110702,-0.9801864317585944
1970-01-01 00:00:00.000000049,-24.86958157263718,16.233087863768993,9.286411198818852,-0.3636412401085113
1970-01-01 00:00:00.000000049,-18.52211702766679,6.84451782073792,8.34592547432725,0.23110467084159575
1970-01-01 00:00:00.000000049,-12.094298682053616,-1.0916481156297304,5.893035196232612,0.6621769187309869
1970-01-01 00:00:00.000000049,-9.00798456928375,-4.58489341987355,4.000148346820371,0.9760466354459197
1970-01-01 00:00:00.000000049,-5.978124726129898,-7.262531465803873,2.0489129230695506,1.2232759711447532
1970-01-01 00:00:00.000000049,-3.2386066288193014,-8.793315191553313,0.905641541335482,1.3567965284239918
1970-01-01 00:00:00.000000049,-0.5299972528469964,-10.01311346151605,0.5472739376080543,1.3983465186062587
1970-01-01 00:00:00.000000049,1.8200941311642596,-11.070053452420028,0.7364495910425637,1.3585052685890093
1970-01-01 00:00:00.000000049,2.961224767494579,-12.145771565147973,1.3194232092176679,1.3581048996571434
1970-01-01 00:00:00.000000049,3.811211524477137,-14.340432524014846,1.9133233403946355,1.4299242823978686
1970-01-01 00:00:00.000000049,4.242668091079866,-16.488773868570373,2.5224396961198563,1.5262344174516365
1970-01-01 00:00:00.000000049,4.716743616891515,-17.94076845517401,3.8582419270528856,1.5383494386912595
1970-01-01 00:00:00.000000049,5.368418772331095,-18.823111140389507,4.238955615046436,1.5673146856345919
1970-01-01 00:00:00.000000049,6.119358813909748,-19.509621941083996,3.6171700734598833,1.6470084453853495
1970-01-01 00:00:00.000000049,6.9626314420454625,-20.444006314108144,2.9173113231406345,1.7388392722237016
1970-01-01 00:00:00.000000049,7.7206972762874715,-21.31071673739557,2.3180674537776986,1.813734684778841
1970-01-01 00:00:00.000000049,8.264314222338882,-21.688251220194296,1.9276043042353481,1.8333425698669819
1970-01-01 00:00:00.000000049,8.349726514835906,-21.510060236190448,1.9892547322371,1.792771650973536
1970-01-01 00:00:00.000000049,8.00129392919108,-20.57063714462919,2.295011478485386,1.678480996421269
1970-01-01 00:00:00.000000049,6.899559211122157,-19.18790911842634,2.4352887372396586,1.579699780455902
1970-01-01 00:00:00.000000049,5.530178838196597,-17.58421274001941,2.6264807398483034,1.4863603664346186
1970-01-01 00:00:00.000000049,4.2966582404819444,-15.374573025667434,2.690953075095037,1.3575429273928958
1970-01-01 00:00:00.000000049,3.130526262489194,-13.294619267223863,2.513891973495305,1.2461893366350636
1970-01-01 00:00:00.000000049,1.9157249050021399,-11.785808084194036,2.228469314460911,1.1781592446202087
1970-01-01 00:00:00.000000049,0.5957356836624059,-10.942295826721576,1.8846826962428043,1.1382644250879896
1970-01-01 00:00:00.000000049,-1.3012744110028571,-10.437415328308242,1.626727393075099,1.1179951194196547
1970-01-01 00:00:00.000000049,-3.8691028338190767,-9.246947973163051,1.6579269812228437,1.0128248413643894
1970-01-01 00:00:00.000000049,-7.858633056849167,-7.117820376055357,0.7496606709805842,0.9348861461416085
1970-01-01 00:00:00.000000049,-13.203725206282781,-3.3182744332477103,-1.5511611176632178,0.939279829226618
1970-01-01 00:00:00.000000049,-18.135985184219926,3.990550765123815,-4.41487076113084,0.7360603074175225
1970-01-01 00:00:00.000000049,-22.7600488522999,13.041883629723381,-7.67161089473676,0.257337986862942
1970-01-01 00:00:00.000000049,-31.035164250059488,17.655612850408367,-5.703317783761005,0.07162192856625893
1970-01-01 00:00:00.000000049,-36.968154235012165,19.76902018992915,0.7913875918162809,0.13006192073637202
1970-01-01 00:00:00.000000049,-36.522623213663294,23.41932219226667,4.632172677388625,-0.12199997594597256
1970-01-01 00:00:00.000000049,-31.130641628451954,24.248673172839492,2.9732688692458416,-0.1015069215586425
1970-01-01 00:00:00.000000049,-24.53756085647864,20.502474870564807,0.1037081884137735,0.21549466817712726
1970-01-01 00:00:00.000000049,-18.119288536658704,15.589726727742262,-1.6515693867423367,0.5680015358230373
1970-01-01 00:00:00.000000049,-11.3818161669007,11.46700707600912,-3.6492213329239087,0.7939672747278537
1970-01-01 00:00:00.000000049,-6.166356141034386,8.28181650201786,-6.115054424689231,1.0080272374930312
1970-01-01 00:00:00.000000049,-2.4573462077531567,5.94923653128876,-7.650050080869654,1.1065263685497957
1970-01-01 00:00:00.000000049,-0.7118082652184082,4.419202599275805,-6.6146650022941555,1.0663776479987919
1970-01-01 00:00:00.000000049,0.17477503477009457,3.7251725535527345,-4.0899660766778005,0.9181692099624352
1970-01-01 00:00:00.000000049,0.842196588342079,3.362175409536499,-2.112700005118018,0.8024702620255406
1970-01-01 00:00:00.000000049,1.6627698549726164,3.1469411004980934,-0.859556464943361,0.718465639442588
1970-01-01 00:00:00.000000049,2.524339460416415,2.810062019691994,-0.14049683257275195,0.6774898968543734
1970-01-01 00:00:00.000000049,3.4157667302136305,2.442538242277272,0.28394679657057575,0.6681265648671109
1970-01-01 00:00:00.000000049,4.539402058558425,2.0652763479474503,0.48386616613132993,0.6652933588607717
1970-01-01 00:00:00.000000049,5.7766320172528,1.559491349246406,0.7700078859177096,0.6609224994661895
1970-01-01 00:00:00.000000049,7.070060908347411,0.8959486126796372,1.1613052846210628,0.6611328358506408
1970-01-01 00:00:00.000000049,8.460099782408488,0.48518581333715793,1.1892994190843171,0.6702888668845789
1970-01-01 00:00:00.000000049,10.027707345900875,0.5565039641363285,0.8022146473681124,0.6656623648956936
1970-01-01 00:00:00.000000049,11.632502095537488,0.5176845119922125,0.44775935350331925,0.6564184570978588
1970-01-01 00:00:00.000000049,13.104807994697115,0.12013857315609522,0.4864486107241993,0.6333568683992863
1970-01-01 00:00:00.000000049,14.142927178481681,-0.719303524468413,0.7409926483592582,0.6254166801422139
1970-01-01 00:00:00.000000049,14.570631078629509,-2.2445604713948075,1.3171261573842037,0.6762269359989572
1970-01-01 00:00:00.000000049,14.86012823323163,-4.35165057536602,1.8535922288397022,0.7914493978051766
1970-01-01 00:00:00.000000049,15.418646646839376,-6.384912868601971,1.5949562161735298,0.9345591777766681
1970-01-01 00:00:00.000000049,15.9074138044029,-7.783339942774709,0.7178825419581077,1.0758655144274853
1970-01-01 00:00:00.000000049,16.331240555906156,-8.128767442483138,-0.3256294394726621,1.126868033747531
1970-01-01 00:00:00.000000049,16.012411197207438,-7.314620252331228,-1.3811166557812702,1.1048923268446629
1970-01-01 00:00:00.000000049,14.819056566651813,-5.441101166743147,-2.2896420629047896,1.006663172925392
1970-01-01 00:00:00.000000049,12.547722866880054,-2.684893000869206,-2.7790007937834664,0.8617917691555859
1970-01-01 00:00:00.000000049,9.690381660477554,0.7196305834032272,-2.722738929120138,0.658915212554213
1970-01-01 00:00:00.000000049,6.495075870430199,3.973265024412803,-1.876604020803848,0.4138254196146809
1970-01-01 00:00:00.000000049,2.8908512997100733,7.289706116881944,0.035611408555971225,0.12211233633195573
1970-01-01 00:00:00.000000049,-0.7045552307884388,9.936752985187908,2.1760649056032983,-0.1522793067133934
1970-01-01 00:00:00.000000049,-4.634157546212532,10.634018006140467,3.3495345656823763,-0.2256999164944814
1970-01-01 00:00:00.000000049,-8.760879029403755,11.231118879701919,4.56075406691804,-0.26567256139024187
1970-01-01 00:00:00.000000049,-12.442543062779977,15.54982686762169,6.234460362915207,-0.6272639410815095
1970-01-01 00:00:00.000000049,-16.602397544199018,22.07305778980244,6.978526975511473,-1.0850424259418965
1970-01-01 00:00:00.000000049,-21.67839670876593,24.939203126457965,9.202237645308264,-1.2758517117852952
1970-01-01 00:00:00.000000049,-25.470035189135622,22.382160400650868,13.578623223899731,-1.139659838022924
1970-01-01 00:00:00.000000050,-25.278421586279663,18.817757079087777,15.359218787957804,-0.9297743487104664
1970-01-01 00:00:00.000000050,-23.498054489462945,13.906341158863103,13.079344475105732,-0.37862697486518715
1970-01-01 00:00:00.000000050,-19.691832336444648,8.942643229135294,9.822271058816224,0.12259522442009241
1970-01-01 00:00:00.000000050,-15.772520834264986,4.261783094771029,6.838731179914025,0.5320152793392825
1970-01-01 00:00:00.000000050,-12.792894520152746,0.616937736445976,4.314908205626019,0.8598149026542184
1970-01-01 00:00:00.000000050,-10.614377081136395,-1.3707541952805369,2.6475003874376246,1.0432572859238474
1970-01-01 00:00:00.000000050,-9.04060729745328,-2.4271353306978556,1.6177679335124537,1.1348576737624032
1970-01-01 00:00:00.000000050,-8.012496008853818,-3.6387808648040187,1.0553526861560862,1.2475789525686056
1970-01-01 00:00:00.000000050,-6.813095123454426,-5.3500515274928,0.8466510842197613,1.3962307152580276
1970-01-01 00:00:00.000000050,-4.800617961821564,-7.138504607362162,0.7283323579166168,1.5013163076873686
1970-01-01 00:00:00.000000050,-2.600764646836837,-8.567844143045138,0.1400513077695208,1.5875984986915275
1970-01-01 00:00:00.000000050,-0.6480040838942308,-9.781009996975675,-0.2846697902587082,1.6526805930147528
1970-01-01 00:00:00.000000050,1.0866201094583978,-10.763667667316422,-0.3203775367728434,1.6670957988386368
1970-01-01 00:00:00.000000050,2.3256253376305636,-11.415641777351963,-0.19314845939258007,1.6578413969941441
1970-01-01 00:00:00.000000050,3.0789485132045504,-12.006499775799613,-0.19247032144000764,1.6733426435401744
1970-01-01 00:00:00.000000050,3.5993959978829047,-12.685088878836067,-0.4287869290861557,1.7237334471421082
1970-01-01 00:00:00.000000050,4.078693450436129,-13.454764632393946,-0.5986414435059751,1.7801559278271943
1970-01-01 00:00:00.000000050,4.580477332760509,-14.237182689264346,-0.6281585390394602,1.823410288878003
1970-01-01 00:00:00.000000050,5.022901112167333,-14.938470550346372,-0.3509416831624752,1.8391794774260757
1970-01-01 00:00:00.000000050,5.33843230138442,-15.70689754563094,0.2973577181096926,1.8556204042331452
1970-01-01 00:00:00.000000050,5.92609401779565,-16.660534051987597,1.1168292018257224,1.8763607447206887
1970-01-01 00:00:00.000000050,6.932171294476738,-17.881329479931463,1.353223109287668,1.9288722594783896
1970-01-01 00:00:00.000000050,7.961508835680874,-19.902083549352035,1.1534731057512893,2.0630287961559075
1970-01-01 00:00:00.000000050,9.031883800301443,-22.15350860309086,0.611968495480274,2.22088316436428
1970-01-01 00:00:00.000000050,9.856946978561215,-23.688809664216304,-0.3264846578984446,2.3312158897150534
1970-01-01 00:00:00.000000050,9.844856694297222,-23.97058652630741,-0.7032884542953985,2.3222718405350005
1970-01-01 00:00:00.000000050,8.75737260794183,-23.07151145702843,-0.21678851902184681,2.192199071935486
1970-01-01 00:00:00.000000050,6.52310827969026,-21.164588188270155,0.3956330658958056,2.039297905063406
1970-01-01 00:00:00.000000050,3.895087190161047,-18.50731073110712,1.0139401933672678,1.8604634380850045
1970-01-01 00:00:00.000000050,1.218409684269426,-16.15939338543014,1.8541603212122597,1.693183267573954
1970-01-01 00:00:00.000000050,-1.4239585347080363,-14.691684614523329,2.653014540347386,1.586671025545553
1970-01-01 00:00:00.000000050,-4.042696083928547,-13.741710543757465,2.8016129311093,1.5478752632482644
1970-01-01 00:00:00.000000050,-6.847803065143356,-12.129029953442355,1.4460047130899443,1.5379913737938526
1970-01-01 00:00:00.000000050,-10.372983681879058,-7.4744699030930235,-0.9918573815872629,1.372080303429481
1970-01-01 00:00:00.000000050,-15.26416210002302,1.2611814212496533,-2.2833151646270444,0.8275758482711874
1970-01-01 00:00:00.000000050,-22.761573518122795,10.384257634424156,-2.04976270575243,0.20691713563320613
1970-01-01 00:00:00.000000050,-32.77646165445065,16.636497910251745,0.7124453113605692,-0.09152980597538785
1970-01-01 00:00:00.000000050,-39.92593690301297,21.14578715233109,5.1303873224452,-0.20706050886089722
1970-01-01 00:00:00.000000050,-39.59055633616063,24.513863106087225,8.522120298059566,-0.40843585171930186
1970-01-01 00:00:00.000000050,-34.102823730947364,25.483821778871594,8.222165792010362,-0.43884224256293525
1970-01-01 00:00:00.000000050,-26.463729107222893,24.001100054095502,5.9281312168690725,-0.11196938868100015
1970-01-01 00:00:00.000000050,-14.677089000333817,15.966079817693213,1.2575771994396754,0.4624290623114786
1970-01-01 00:00:00.000000050,-4.299353303518483,6.999112733133493,-3.1824891224859084,0.8901719587530982
1970-01-01 00:00:00.000000050,0.0938417347016609,4.136228538604,-6.0585189448662735,1.0750385638652045
1970-01-01 00:00:00.000000050,1.8316583126040331,3.5434082890801086,-7.783171908997901,1.1267799236631109
1970-01-01 00:00:00.000000050,2.041527660250096,4.137830406650775,-7.985087457985312,1.0766146932806846
1970-01-01 00:00:00.000000050,1.818415664417003,4.605332178551908,-6.636869968544506,0.9956964611265211
1970-01-01 00:00:00.000000050,2.3661694630195975,4.185530968369221,-4.481009138597877,0.9131424894039464
1970-01-01 00:00:00.000000050,3.8426336121305567,3.1981181781746884,-2.5562625628405713,0.8298251416877604
1970-01-01 00:00:00.000000050,5.46433704850518,2.064035466603982,-1.137704433840935,0.7690721385723047
1970-01-01 00:00:00.000000050,6.867642647458913,0.937031927080092,0.24443535608253605,0.7178752848618574
1970-01-01 00:00:00.000000050,8.117116503412582,0.1663694505884281,1.4180019340993728,0.6706636168779012
1970-01-01 00:00:00.000000050,9.418433351040436,-0.5645308413503276,2.17214278444283,0.6471284688337907
1970-01-01 00:00:00.000000050,10.747662768367222,-1.1789386194056724,2.2096167934985584,0.6581287674261791
1970-01-01 00:00:00.000000050,11.999304962127177,-1.3272585749888681,1.4270639476321911,0.6884617374370757
1970-01-01 00:00:00.000000050,13.031494767936628,-1.4718903934496854,0.25626230441456577,0.7420508333689575
1970-01-01 00:00:00.000000050,13.718407289208724,-1.587966951532583,-0.9321666318189377,0.7992860382948976
1970-01-01 00:00:00.000000050,14.001625047911897,-1.4995222685970102,-2.0210663341928186,0.8689274080764336
1970-01-01 00:00:00.000000050,14.132200015377276,-1.8713444853398247,-2.608834576140313,1.3161039731657866
1970-01-01 00:00:00.000000050,14.366946354898763,-2.5248499395443824,-2.66553832556176,1.3664815675130535
1970-01-01 00:00:00.000000050,14.43035326701395,-3.1704876839912894,-2.731584015659983,1.4066873521332526
1970-01-01 00:00:00.000000050,14.321305033406107,-3.9260160530319315,-2.9349286220692576,1.4650512193526546
1970-01-01 00:00:00.000000050,14.04477821213011,-4.421536687051345,-3.1010797193905053,1.5087774352872885
1970-01-01 00:00:00.000000050,13.698148054663262,-4.22864878573032,-3.0673980898502538,1.447438049107645
1970-01-01 00:00:00.000000050,12.315118955558859,-3.2295035887414874,-2.4461917676404905,1.29319963362435
1970-01-01 00:00:00.000000050,9.69928531463333,-0.6084694114823589,-1.7453009376354878,0.9021035616366739
1970-01-01 00:00:00.000000050,2.868458837480649,4.160000354788602,-0.067762672446681,0.3714402107161605
1970-01-01 00:00:00.000000050,-8.047633662575514,13.317620084737696,7.054849875538277,-0.41040397425790065
1970-01-01 00:00:00.000000050,-16.295338820066462,22.87797641269826,13.760943791549645,-1.2914402320307667
1970-01-01 00:00:00.000000050,-22.88677247830253,31.773516869547603,18.876406307734417,-2.1240356750617395
1970-01-01 00:00:00.000000050,-29.795844819982577,33.22931084898251,22.12435830117624,-2.1365184066606977
1970-01-01 00:00:00.000000050,-32.699481622690065,30.98621780906705,23.04960958011069,-1.7949467446117229
1970-01-01 00:00:00.000000050,-31.712145880339662,25.94462716822914,20.01115753421429,-1.0823137213747276
1970-01-01 00:00:00.000000050,-27.196131505307857,16.366283685080845,16.349211795636915,-0.13128297646496834
1970-01-01 00:00:00.000000050,-20.056611110394062,6.197539314900143,11.670067933928287,0.7388531468456332
1970-01-01 00:00:00.000000050,-13.221168320066166,-0.4815342702479585,6.543810332955811,1.3301786579053485
1970-01-01 00:00:00.000000050,-8.316665566025362,-4.171199363584307,2.7905763038894116,1.6524086686889117
1970-01-01 00:00:00.000000050,-5.469873993420682,-5.836226604046421,0.6063718145403382,1.7881501432566265
1970-01-01 00:00:00.000000050,-4.236685550504821,-6.383484754710197,-0.39510312034134426,1.8497521942782136
1970-01-01 00:00:00.000000050,-3.4853940985979346,-6.736280017557302,-0.49257430818505976,1.8854136619061004
1970-01-01 00:00:00.000000050,-2.381207813147272,-7.593504752274303,-0.001832233592716781,1.907660448328505
1970-01-01 00:00:00.000000050,-0.9792621220008143,-9.136632864852778,0.5948194301778106,1.971806676038995
1970-01-01 00:00:00.000000050,0.9529276657993714,-10.610709762293393,0.7968296848509806,2.0146654452609325
1970-01-01 00:00:00.000000050,2.6664592422380493,-12.147769810501735,0.6243429673657388,2.0775940566526927
1970-01-01 00:00:00.000000050,3.9304509997819883,-13.769882934930493,0.6696226203465889,2.138239074763562
1970-01-01 00:00:00.000000050,4.706842288503107,-15.302641949832314,1.0418952647813826,2.1899612488320863
1970-01-01 00:00:00.000000050,5.195139911064005,-16.84425386620142,1.5187453730917073,2.246583292123161
1970-01-01 00:00:00.000000050,5.515634492437868,-18.33287501233881,1.8735672339617757,2.325797867840137
1970-01-01 00:00:00.000000050,6.016750190743142,-19.274024047926268,1.936917362896407,2.367979362659817
1970-01-01 00:00:00.000000050,6.3171494496318426,-19.72400316825791,1.7649726776531562,2.4000888414664563
1970-01-01 00:00:00.000000050,6.486139764653228,-20.19768711733215,1.543719311444265,2.4594665387192185
1970-01-01 00:00:00.000000050,6.981708103492442,-20.82460835296872,1.4543893780838157,2.4931211547736467
1970-01-01 00:00:00.000000050,7.292946853351633,-21.547239486538192,1.2442928231037822,2.572976370533782
1970-01-01 00:00:00.000000050,8.097486995820908,-21.77797710036935,0.8143975289108785,2.598794336910303
1970-01-01 00:00:00.000000050,8.809744945824464,-21.44007878728997,0.2625038936340287,2.5612069662678487
1970-01-01 00:00:00.000000051,8.729062140610237,-20.37391961727197,-0.24656186160401394,2.4826970955893426
1970-01-01 00:00:00.000000051,7.818852527522429,-18.45112004658103,-0.9650433244706077,2.374918251195779
1970-01-01 00:00:00.000000051,6.082497485083891,-15.89498443424506,-1.6482706929316815,2.2501056969467506
1970-01-01 00:00:00.000000051,3.783730269094758,-12.903430864049634,-1.9782365706992846,2.1366371844312035
1970-01-01 00:00:00.000000051,2.076341520156435,-9.903701897354887,-2.1701697182085553,1.981718084515573
1970-01-01 00:00:00.000000051,0.4356490953674266,-7.921277394680839,-2.291102851079958,1.8936668714202367
1970-01-01 00:00:00.000000051,-0.9967766331364332,-7.201413329592184,-2.1702328315146397,1.865334677345979
1970-01-01 00:00:00.000000051,-2.3354064703705872,-7.573865043552616,-1.8621661390597808,1.862059681756107
1970-01-01 00:00:00.000000051,-4.219661661381156,-7.888955669171976,-0.9542657459428987,1.7629367113046879
1970-01-01 00:00:00.000000051,-8.00619194395752,-6.6962639013972876,-0.4213348787050811,1.667578450243215
1970-01-01 00:00:00.000000051,-12.636192217043437,-2.3702706308646717,-0.13187694140403422,1.5002532870317218
1970-01-01 00:00:00.000000051,-15.785113479833829,6.435737527334022,-2.4025618799209663,1.0247137629755538
1970-01-01 00:00:00.000000051,-20.92258820353301,12.496517477759948,-4.375960207585155,0.7270247262645091
1970-01-01 00:00:00.000000051,-28.11067827293571,15.11549886678955,0.6469007697265442,0.4488911448503934
1970-01-01 00:00:00.000000051,-32.87589007247525,19.57419708314274,7.5445261477869145,0.04395414636044159
1970-01-01 00:00:00.000000051,-32.09497436695187,22.72446495723596,10.8919477996915,-0.226813809867902
1970-01-01 00:00:00.000000051,-27.790042745529814,21.934121103595828,8.735828785250618,-0.02148986734724323
1970-01-01 00:00:00.000000051,-21.696309850404628,18.048968200565554,5.027592762788561,0.3974235562849969
1970-01-01 00:00:00.000000051,-15.219632849532719,13.880324391611758,2.0014798899785267,0.6929027710595994
1970-01-01 00:00:00.000000051,-10.381106467714712,10.598379832795127,0.14095372647482773,0.8882135262465918
1970-01-01 00:00:00.000000051,-6.943924909307029,8.527979647045253,-0.6936807219695936,0.9895837948663166
1970-01-01 00:00:00.000000051,-4.233653118032314,7.644626574126303,-1.3827772829541536,1.0167776759228664
1970-01-01 00:00:00.000000051,-2.203918902230032,6.759188010977829,-1.759055761179578,1.0443364157434267
1970-01-01 00:00:00.000000051,-0.6156835727868849,5.547358332574149,-1.417819658595537,1.0728869635279772
1970-01-01 00:00:00.000000051,0.9227042500603122,4.751483050573252,-1.5400789388509333,1.1042804856403614
1970-01-01 00:00:00.000000051,2.3480248814596836,3.741627215296174,-2.415368507987107,1.190302135233743
1970-01-01 00:00:00.000000051,3.4362149914896003,2.349480640740852,-3.097841898483481,1.3095788480675243
1970-01-01 00:00:00.000000051,4.499872991912417,0.9699591741852011,-3.200753661588508,1.3926086561471505
1970-01-01 00:00:00.000000051,5.575701924343457,0.030347028915614783,-3.131576997750202,1.4304576386409678
1970-01-01 00:00:00.000000051,6.588983382241856,-0.6379194652810728,-2.8391553494844164,1.4410903194208675
1970-01-01 00:00:00.000000051,7.664940310509634,-1.2559427412691968,-2.2773875880935988,1.4258836400372557
1970-01-01 00:00:00.000000051,8.732369840926491,-1.8676291095895767,-1.745404089645084,1.4113462050620835
1970-01-01 00:00:00.000000051,9.789156507320428,-2.4019114307265017,-1.330391045400773,1.3972684876412667
1970-01-01 00:00:00.000000051,10.789936413001122,-2.86849117966377,-1.0596657958135633,1.3790641056937039
1970-01-01 00:00:00.000000051,11.502921597185246,-3.4460030725108184,-0.9292380938809628,1.3874825178525874
1970-01-01 00:00:00.000000051,12.035932452054702,-4.03969831190925,-0.8958692727533607,1.4155301466245975
1970-01-01 00:00:00.000000051,12.577354496129907,-4.477088897355841,-0.8604698187767069,1.429266696774001
1970-01-01 00:00:00.000000051,13.025345008537913,-5.018916797058359,-0.7640307145776095,1.4461285899929042
1970-01-01 00:00:00.000000051,13.374844660241381,-5.650282183668488,-0.3849770352673366,1.4482604766651617
1970-01-01 00:00:00.000000051,13.554434595371122,-6.215834706352462,0.4425182179978545,1.4284445396841883
1970-01-01 00:00:00.000000051,13.785684074187841,-6.3886229616924775,1.3716008473649048,1.3570468250427983
1970-01-01 00:00:00.000000051,13.700433546257386,-5.927186933366486,1.9405029868325168,1.260290866528679
1970-01-01 00:00:00.000000051,13.04394482533417,-5.082896880575669,2.3345071557399786,1.1820067339378297
1970-01-01 00:00:00.000000051,12.278676890220314,-4.275826085238976,2.376392975084546,1.1377665108096569
1970-01-01 00:00:00.000000051,11.536989565968256,-2.997308283609154,1.6952023088104098,1.103460999269893
1970-01-01 00:00:00.000000051,10.678249065085797,-1.1968670564435038,0.5986998785611329,1.0589837893214273
1970-01-01 00:00:00.000000051,9.610119208976556,0.7207459120242882,-0.24145743527005264,0.9766222688777884
1970-01-01 00:00:00.000000051,8.040263315789788,2.6961559631345646,-0.07890134881741473,0.797639556493325
1970-01-01 00:00:00.000000051,5.2857735354386115,5.331518562695858,0.8671744872867482,0.5143720306081779
1970-01-01 00:00:00.000000051,0.7719604004252782,8.656955404051683,2.6447226799576216,0.19118824840510174
1970-01-01 00:00:00.000000051,-4.819921875319742,12.15708762048786,5.041148145357528,-0.15280624580255964
1970-01-01 00:00:00.000000051,-11.12267702538105,17.335978118727084,8.7178450143015,-0.6167163113890062
1970-01-01 00:00:00.000000051,-16.78539864666033,24.48403828554629,12.410383941186177,-1.2301446572177597
1970-01-01 00:00:00.000000051,-22.20810484281633,28.875053554672565,14.254519361375042,-1.5065186657609715
1970-01-01 00:00:00.000000051,-26.77140476382037,26.733695799493336,15.802926924819753,-1.1558984053699752
1970-01-01 00:00:00.000000051,-26.416446811907917,23.151025067439214,15.140799644550622,-0.7877734393574969
1970-01-01 00:00:00.000000051,-24.578985406112324,18.044363934740122,11.949046391419653,-0.21492873983004634
1970-01-01 00:00:00.000000051,-21.881463855083872,12.682668780150076,9.119320533385276,0.31923787763124767
1970-01-01 00:00:00.000000051,-18.780825582470072,7.878524238820692,6.76343911949104,0.7738553494612019
1970-01-01 00:00:00.000000051,-15.698304705586867,3.9150960928731546,4.621146117737349,1.6511397867651056
1970-01-01 00:00:00.000000051,-12.700158012800093,0.907640924456019,2.836076715118816,1.9174711956868107
1970-01-01 00:00:00.000000051,-10.279022959001967,-1.4510809673605793,1.4106353556707378,2.1102743087676394
1970-01-01 00:00:00.000000051,-8.358284102234624,-3.40719939072499,0.4307055404578129,2.271544440294898
1970-01-01 00:00:00.000000051,-6.556623832329577,-5.144719031493365,-0.1330022125889529,2.401990776704202
1970-01-01 00:00:00.000000051,-4.665915680118659,-6.856530472816288,-0.3780812935799496,2.5078721642868755
1970-01-01 00:00:00.000000051,-2.6560522255053,-8.498439345214766,-0.34202832473805145,2.5757036951618897
1970-01-01 00:00:00.000000051,-0.7626766194627753,-9.820615497472613,-0.07596712383761617,2.5988256023826586
1970-01-01 00:00:00.000000051,0.8384286111035387,-10.713395207414418,0.4856998602535748,2.569353095090002
1970-01-01 00:00:00.000000051,1.943925660048302,-11.454645991704865,1.1762724616959537,2.5420987228481593
1970-01-01 00:00:00.000000051,2.8311214722191007,-12.131106137184208,1.7045970369702241,2.530234500031929
1970-01-01 00:00:00.000000051,3.5772114990206636,-13.07359492542151,1.8594723233473813,2.5678392116500968
1970-01-01 00:00:00.000000051,4.240236250355708,-14.503482528429128,1.3536300141766904,2.6858801820770393
1970-01-01 00:00:00.000000051,4.870567966113522,-16.161933171802445,0.5470382297858888,2.8414075215814583
1970-01-01 00:00:00.000000051,5.497052576207361,-17.46950420188492,-0.18438890160588617,2.9633134557628953
1970-01-01 00:00:00.000000051,6.0003816318925365,-18.18823086001091,-0.6990891540654582,3.026486849885254
1970-01-01 00:00:00.000000051,6.263630139875605,-18.37842282961383,-0.7067120693652733,3.018119326724013
1970-01-01 00:00:00.000000051,6.158694520390158,-18.296544591192045,-0.14949577042714424,2.9773575668219165
1970-01-01 00:00:00.000000051,6.053577389624086,-18.33968820084086,0.7089191995630003,2.9411095559869276
1970-01-01 00:00:00.000000051,6.305559776090304,-18.43224019357526,1.2331107965641919,2.9073787295496403
1970-01-01 00:00:00.000000051,6.5535782995922585,-18.52284125700308,1.3930280763581935,2.8980535573302086
1970-01-01 00:00:00.000000051,6.836150089784852,-18.44096560824155,1.3721554023736613,2.8655571024213344
1970-01-01 00:00:00.000000051,6.654933504788424,-17.817609305943247,1.2207886473060312,2.8195907144101615
1970-01-01 00:00:00.000000051,6.153710172216286,-16.934079966372483,1.2895437607424958,2.745779519295426
1970-01-01 00:00:00.000000051,5.295972602436932,-15.837331956557813,1.412110722297556,2.663655782911207
1970-01-01 00:00:00.000000051,4.158521542863191,-14.294322672978467,1.467005929001393,2.5844684538060116
1970-01-01 00:00:00.000000051,3.240782159643691,-12.775957234062757,1.53047234053818,2.4823970964378925
1970-01-01 00:00:00.000000051,2.07197118159608,-11.943247034880141,1.569022877365651,2.4355104086420365
1970-01-01 00:00:00.000000051,0.7553860611494578,-11.824845568243633,1.7000124877917466,2.4252327231431985
1970-01-01 00:00:00.000000051,-0.9033863235485976,-11.948033717672338,1.2108638830371559,2.4573043530387344
1970-01-01 00:00:00.000000051,-3.3333625548511585,-11.98009650430097,0.2852806588200728,2.49593476030011
1970-01-01 00:00:00.000000051,-7.068262981521537,-11.088939614554748,-1.0826538109958332,2.3905481057523064
1970-01-01 00:00:00.000000051,-14.632864039239,-2.443796461896281,-2.0394569289264863,1.8083223685820375
1970-01-01 00:00:00.000000051,-26.141947842704777,10.641122376233827,-1.1979960371406477,1.0008247256301646
1970-01-01 00:00:00.000000051,-39.47287876935767,20.401296354279488,2.590759660198904,0.8931226042912994
1970-01-01 00:00:00.000000051,-40.64167626343847,30.260055491474326,4.089683164672813,0.5866435391856502
1970-01-01 00:00:00.000000051,-33.47605068086741,28.85014736462538,4.310631235065523,0.9581800496087202
1970-01-01 00:00:00.000000051,-17.589692557908435,16.810443406949084,3.413880235634115,1.432719500576465
1970-01-01 00:00:00.000000052,-3.9921715455715625,5.613366006292374,0.4456765103481737,1.71376949603713
1970-01-01 00:00:00.000000052,0.6736529454433305,1.3296347687682484,-2.0514184504099515,1.9502345450382217
1970-01-01 00:00:00.000000052,2.677262703641678,0.9145259386135011,-2.206221483253783,1.8522980549467831
1970-01-01 00:00:00.000000052,2.490412575705316,2.7161291262321274,-1.03799804500632,1.697358137749605
1970-01-01 00:00:00.000000052,3.0878671747099893,3.07463692737337,-0.9160492741973678,1.662029768800721
1970-01-01 00:00:00.000000052,3.924539927156805,2.743790504296591,-0.5006097668748859,1.654149858106384
1970-01-01 00:00:00.000000052,5.0459129958841356,2.367142293148231,-0.24097882691084627,1.6414336513741352
1970-01-01 00:00:00.000000052,6.147253238434908,2.115247873195765,-0.30962209722779943,1.6427368382741707
1970-01-01 00:00:00.000000052,7.237556186246922,1.9048079825761874,-0.4585600988010726,1.6547003282558834
1970-01-01 00:00:00.000000052,8.456868640393989,1.4408315396657985,-0.6952366870966724,1.6924175547279943
1970-01-01 00:00:00.000000052,9.905897796170722,0.4323201251668611,-0.878153916042523,1.7572318329553096
1970-01-01 00:00:00.000000052,11.570638834337359,-0.5014416221008944,-1.2481725079917265,1.8015701199138423
1970-01-01 00:00:00.000000052,12.926714266767595,-1.0491899716355209,-1.9004498494785556,1.8391970017627919
1970-01-01 00:00:00.000000052,13.893436489871336,-1.6112747838108072,-2.0985605996818544,1.8541434027177366
1970-01-01 00:00:00.000000052,14.467677545358656,-2.3611397186757297,-1.6665968693509436,1.8487459909854498
1970-01-01 00:00:00.000000052,14.720078777394564,-2.9244102050960135,-0.9344674574557035,1.8090674160161209
1970-01-01 00:00:00.000000052,14.482733547925166,-3.1039284449942737,-0.32001710803063876,1.7720632621609778
1970-01-01 00:00:00.000000052,14.010112016424737,-2.9476166588692028,-0.2719533084913695,1.7526634599992867
1970-01-01 00:00:00.000000052,13.246411920694038,-2.5410828971969464,-0.5820837739590867,1.7724702518858189
1970-01-01 00:00:00.000000052,12.759001631147877,-1.756059399059312,-1.5387464220149492,1.7915771540956484
1970-01-01 00:00:00.000000052,12.22526961208844,-0.9250589169697064,-3.0166076600097966,1.829556515920242
1970-01-01 00:00:00.000000052,11.401336597312742,-0.016537963971824575,-3.9556670030986223,1.8424238176906216
1970-01-01 00:00:00.000000052,10.537355503047788,1.3005114485495222,-3.9644238648339356,1.7698457673343768
1970-01-01 00:00:00.000000052,9.706019408962133,3.021015820631386,-3.6931086015951027,1.6160622929488861
1970-01-01 00:00:00.000000052,8.230116961692078,4.77798443353536,-2.9884396531965787,1.4068865141115978
1970-01-01 00:00:00.000000052,5.432206383755265,6.988490247114034,-1.9908356724215297,1.1557815971440353
1970-01-01 00:00:00.000000052,1.015739923316274,9.967191791528174,-0.9581839492004601,0.8871378085506045
1970-01-01 00:00:00.000000052,-4.8957155882067385,13.226168448726598,0.22034936858886578,0.6794012050907376
1970-01-01 00:00:00.000000052,-10.882031092741265,17.771181773973435,2.0394423509830975,0.370501825571117
1970-01-01 00:00:00.000000052,-16.38028893972499,25.084209365956617,4.833064025354866,-0.15540035048163459
1970-01-01 00:00:00.000000052,-20.60319405697415,31.789356674334798,7.490171901077714,-0.7474440743068831
1970-01-01 00:00:00.000000052,-25.88497395713447,30.614168092420464,9.787324555082467,-0.6078607576770214
1970-01-01 00:00:00.000000052,-28.421784014658236,25.44081653536093,12.665225800492745,-0.235180021840258
1970-01-01 00:00:00.000000052,-27.495691769709815,20.423932526700373,12.309826222597287,0.17603597915488112
1970-01-01 00:00:00.000000052,-25.526603596264813,14.496740314684644,10.19146083876919,0.761511734946192
1970-01-01 00:00:00.000000052,-22.016543963268283,9.044445667493768,8.416006121879793,1.2231522088900455
1970-01-01 00:00:00.000000052,-18.00562690821391,4.528842857374053,5.866254601712147,1.6211297016006647
1970-01-01 00:00:00.000000052,-14.294942035984283,0.5968793828422168,3.835436025584637,1.941899282353219
1970-01-01 00:00:00.000000052,-10.973801555388283,-2.6418675193145855,3.2117500903926404,2.1133645700446597
1970-01-01 00:00:00.000000052,-8.369569415712606,-5.382869282310183,3.676249537042513,2.195358877667268
1970-01-01 00:00:00.000000052,-6.369068190572978,-7.864273993276549,4.378316519538994,2.2746358835442386
1970-01-01 00:00:00.000000052,-4.522671973391791,-10.076891722342923,4.663933304324176,2.3774284386298965
1970-01-01 00:00:00.000000052,-2.582869978867026,-11.933784123749897,4.325901083446194,2.4759319924841314
1970-01-01 00:00:00.000000052,-1.0281399347884785,-13.51193143075356,3.258744136873997,2.6280651933813624
1970-01-01 00:00:00.000000052,0.5521019984930894,-14.651043264765226,2.147511853982656,2.751131117432436
1970-01-01 00:00:00.000000052,2.0963559632574733,-15.441748315074124,1.3485643234912077,2.8089450269166742
1970-01-01 00:00:00.000000052,3.1385666341024754,-16.296398428886466,0.9934876936297272,2.8521290694563666
1970-01-01 00:00:00.000000052,3.7638275379733046,-17.16183561759896,1.1247770517728486,2.879695142455283
1970-01-01 00:00:00.000000052,4.150098646598948,-17.84989947892818,1.348756471594373,2.904885190982112
1970-01-01 00:00:00.000000052,4.559055498909362,-18.215854504578285,1.6112434901590127,2.9037824697342387
1970-01-01 00:00:00.000000052,4.939627881856396,-18.363036899274196,1.769953008110651,2.8943583840428215
1970-01-01 00:00:00.000000052,5.262296413529641,-18.701838117825996,1.8117913868277262,2.910179204209994
1970-01-01 00:00:00.000000052,5.589931271381879,-19.57112471082107,1.6638820074448204,2.9779293476227235
1970-01-01 00:00:00.000000052,6.002672280745523,-20.66508012183965,1.1664717666857523,3.0793437808958
1970-01-01 00:00:00.000000052,6.431903518682739,-21.409692923095047,0.3072013488244618,3.1726800391069676
1970-01-01 00:00:00.000000052,6.707210386269264,-21.7956028798209,-0.2710094265194709,3.2160248436866636
1970-01-01 00:00:00.000000052,6.65907284851654,-21.849429663412455,-0.15230069619300113,3.1641275558790136
1970-01-01 00:00:00.000000052,5.969065778085206,-21.543285561372418,0.7546031002515459,2.5931132827783223
1970-01-01 00:00:00.000000052,5.064006331290209,-20.58120195093616,1.7646629456916083,2.4576210289828926
1970-01-01 00:00:00.000000052,4.150586688617462,-19.194800274324052,2.3456632730014166,2.3366327464794945
1970-01-01 00:00:00.000000052,3.20242914158411,-17.457902235644713,2.28874864551526,2.2215777532722205
1970-01-01 00:00:00.000000052,1.8938896202372066,-15.526827421336685,1.3422828226572214,2.1573106657575103
1970-01-01 00:00:00.000000052,0.18151082422243714,-14.013696813038768,-0.04437110636282926,2.148162956728152
1970-01-01 00:00:00.000000052,-2.167424968290474,-13.596453977856337,-1.29377014159996,2.2092331258965405
1970-01-01 00:00:00.000000052,-5.237223247306188,-13.941411873320858,-1.738274001074501,2.2698915653802096
1970-01-01 00:00:00.000000052,-9.169824568372219,-12.351866045564055,-1.9198273311691203,2.1672511027519357
1970-01-01 00:00:00.000000052,-14.456849217534279,-6.25869838570792,-1.0467909692912496,1.665772587262981
1970-01-01 00:00:00.000000052,-22.14620224057599,4.306128714281536,0.595590243136729,0.8673392433202359
1970-01-01 00:00:00.000000052,-32.17568507432014,13.488474323411204,2.592028186085099,0.33629904162569324
1970-01-01 00:00:00.000000052,-41.31498220629329,19.172987783788457,4.179480547128314,0.3726560536808493
1970-01-01 00:00:00.000000052,-42.67550922782545,25.6852384770832,3.2569892245856575,0.34806845310354406
1970-01-01 00:00:00.000000052,-37.42140786491766,28.46455850162702,1.895335920853528,0.2809109914243568
1970-01-01 00:00:00.000000052,-29.806755054506525,24.856807366585496,2.4160469381992136,0.35510602223384313
1970-01-01 00:00:00.000000052,-22.07903581850552,20.421353633123783,3.0900446474674865,0.4286762529718695
1970-01-01 00:00:00.000000052,-15.362693520127447,16.86090102761166,1.3563188432779165,0.6799245150020055
1970-01-01 00:00:00.000000052,-8.39647143813076,13.034539455369469,-2.757870535985766,1.0104624022006887
1970-01-01 00:00:00.000000052,-3.137099446536341,8.687764627440831,-5.702722954816921,1.3382721116334049
1970-01-01 00:00:00.000000052,0.6970867041242965,5.5317980403268985,-6.968956689277173,1.4891885738354467
1970-01-01 00:00:00.000000052,2.8647096835295636,3.6601118421313092,-6.469778274920907,1.4787601698098085
1970-01-01 00:00:00.000000052,3.7135990114907433,3.077778324290186,-4.178500106515635,1.3435040452414275
1970-01-01 00:00:00.000000052,4.438724875676681,3.4727307947717474,-2.3168967199332116,1.198288339917021
1970-01-01 00:00:00.000000052,5.582883764916502,3.660892849343523,-1.1527716168845707,1.104832254454923
1970-01-01 00:00:00.000000052,7.1164972526965,2.956572840569289,-0.4727402328843318,1.0869906405720338
1970-01-01 00:00:00.000000052,8.855106173138715,1.896559150082661,0.11877063306296548,1.0935117521856648
1970-01-01 00:00:00.000000052,10.720324484477873,0.5555124795234482,0.4845355934452371,1.1124263434419668
1970-01-01 00:00:00.000000052,12.330881897502104,-0.8518395196947466,1.2595730732133315,1.1074936111425813
1970-01-01 00:00:00.000000052,13.572667767049913,-1.6474974293495341,2.1816194652467993,1.0671946464799777
1970-01-01 00:00:00.000000052,14.616208845217301,-1.9353672129464055,2.5893763482465513,1.0215971107533997
1970-01-01 00:00:00.000000052,15.273556396081995,-2.2379791064976695,2.60098015111574,1.0049769647077258
1970-01-01 00:00:00.000000052,15.433509391555166,-2.691104059922786,2.436052334446255,1.0313569460632768
1970-01-01 00:00:00.000000052,15.348397409731136,-3.3059275881712047,2.03833580217942,1.0771749093873788
1970-01-01 00:00:00.000000052,14.744164991567771,-3.8273861881231497,1.5905689569747539,1.1635316471128392
1970-01-01 00:00:00.000000052,14.35385633984963,-4.262690890482243,1.1778346368106098,1.228599570471263
1970-01-01 00:00:00.000000052,13.952363288350147,-4.119308289683816,0.10692580212527969,1.2742277279650867
1970-01-01 00:00:00.000000052,13.057276850785831,-3.2198430544435976,-0.8020481028908337,1.2839503682635405
1970-01-01 00:00:00.000000052,12.004321711166977,-2.051188263182609,-1.4969586630671237,1.2773095394014486
1970-01-01 00:00:00.000000052,11.090102501964054,-0.48741766046426954,-2.441013408898882,1.2478409937384498
1970-01-01 00:00:00.000000052,10.118065719038782,1.2885108355668453,-3.512803972283177,1.181608103596513
1970-01-01 00:00:00.000000053,8.500363195792133,3.5070734750719526,-3.6748305884440198,1.0050524648105508
1970-01-01 00:00:00.000000053,5.655034427313849,6.738089112525128,-2.6220057945561095,0.6600359745778978
1970-01-01 00:00:00.000000053,0.6472732090697155,9.84226800463585,-0.9483904230414841,0.3564656974623066
1970-01-01 00:00:00.000000053,-5.731184151262279,12.86333378680365,0.6256511465963719,0.19433603820542134
1970-01-01 00:00:00.000000053,-11.218269410593232,17.94206233438425,1.3152894764651306,-0.015463163453935946
1970-01-01 00:00:00.000000053,-14.809846954106547,25.064486917195648,2.379302393586097,-0.5000923686972276
1970-01-01 00:00:00.000000053,-18.392078670149115,29.26947434126136,3.89626506172326,-0.8970294728671355
1970-01-01 00:00:00.000000053,-23.725034663860704,27.16079968015789,6.519333656238793,-0.6506126082786643
1970-01-01 00:00:00.000000053,-25.00245485144085,23.549122822957997,8.102749456679287,-0.32289374356111455
1970-01-01 00:00:00.000000053,-23.167417136636406,16.13604936235925,6.850434496753566,0.2726257619200727
1970-01-01 00:00:00.000000053,-20.428900183930025,10.832899410559437,5.817671405485015,0.7620901723611452
1970-01-01 00:00:00.000000053,-15.700639097422636,4.87836696136281,3.7528256899589274,1.1995525375881777
1970-01-01 00:00:00.000000053,-11.468310557826053,-0.12830489739942869,1.9973087797701177,1.4841263060240262
1970-01-01 00:00:00.000000053,-9.341748954759357,-2.651224214344743,0.8658863406368607,1.6828441090034165
1970-01-01 00:00:00.000000053,-7.588011652203465,-4.858193952007759,-0.5218226446739296,1.9188309821094827
1970-01-01 00:00:00.000000053,-5.430132247293219,-7.078524406441995,-2.763609663410329,2.186691898515563
1970-01-01 00:00:00.000000053,-3.2099881576845997,-8.858529103627891,-4.942202349106549,2.3948976032493823
1970-01-01 00:00:00.000000053,-1.4366195970543691,-10.19211499869981,-6.016207369655273,2.504801189169103
1970-01-01 00:00:00.000000053,-0.17293244368295713,-11.60807729735735,-6.024898067675617,2.5748444753671103
1970-01-01 00:00:00.000000053,1.0406755407381034,-12.324559810396138,-5.504628238033936,2.537023272435931
1970-01-01 00:00:00.000000053,1.5847210269125795,-12.431113098447163,-5.626139874349121,2.518319772435068
1970-01-01 00:00:00.000000053,1.6676140041016987,-12.154256908983065,-5.739911430698331,2.4884589291454784
1970-01-01 00:00:00.000000053,1.410851845930624,-11.323423858488276,-5.941069168898335,2.4500823072408187
1970-01-01 00:00:00.000000053,1.152977136319349,-10.447992247443917,-6.288761106800606,2.413569796252951
1970-01-01 00:00:00.000000053,0.8015646760479297,-9.482365982077416,-6.815479874297911,2.3759144391492337
1970-01-01 00:00:00.000000053,0.1679251427400682,-7.331739777452189,-8.235046008049103,2.34988095911068
1970-01-01 00:00:00.000000053,-0.22562022213865274,-5.313034729305307,-9.619189063201448,2.3520561438056937
1970-01-01 00:00:00.000000053,0.13879515317330493,-5.254338757575798,-10.117199542174706,2.3911054869987156
1970-01-01 00:00:00.000000053,0.8391330843431377,-6.2072433580302055,-10.073330208304668,2.424271779510562
1970-01-01 00:00:00.000000053,1.2491633802704833,-6.626915504540863,-9.648399677352167,2.3981603716258326
1970-01-01 00:00:00.000000053,1.337143663216691,-6.404717928225624,-8.368703743855887,2.2604269978751015
1970-01-01 00:00:00.000000053,0.7454143499507399,-5.368808501623648,-6.624941350829685,2.059640034069446
1970-01-01 00:00:00.000000053,-0.30828271512429867,-4.136171786032852,-5.337772898965717,1.886405158720113
1970-01-01 00:00:00.000000053,-1.7469044968626546,-2.541678176783328,-4.478775376764504,1.7590622029940914
1970-01-01 00:00:00.000000053,-2.864755967579973,-0.8101514711367801,-3.660174757695788,1.65687324524077
1970-01-01 00:00:00.000000053,-2.909070892635028,0.3679986503418162,-2.145532886770216,1.5465370198985458
1970-01-01 00:00:00.000000053,-1.4498124586204348,1.4080039338372063,-1.1073242816287132,1.3811266026316242
1970-01-01 00:00:00.000000053,0.00405836158502175,1.8218595110428404,-1.078470769424973,1.2872446060756366
1970-01-01 00:00:00.000000053,0.7754702208748092,0.9922619937476618,0.19867263658256518,1.2041482979789595
1970-01-01 00:00:00.000000053,0.9271220508860957,1.3247390991664312,3.29815673617666,0.9498956255189582
1970-01-01 00:00:00.000000053,0.7862533621253274,2.983360528546249,7.309226084987357,0.5203118429733801
1970-01-01 00:00:00.000000053,-0.5046665839121116,2.625110374733595,9.95006276163287,0.3672507450534357
1970-01-01 00:00:00.000000053,-2.120941974966594,0.7940454826619059,11.991894372500784,0.4144955740103532
1970-01-01 00:00:00.000000053,-2.986335822935133,-0.12255798683716246,12.14440965191239,0.5070655163905978
1970-01-01 00:00:00.000000053,-3.351307925855677,-0.13716592054477939,10.873111435853799,0.6118299823960981
1970-01-01 00:00:00.000000053,-3.5420875399276115,-0.21633283377256973,9.294188150238943,0.7465444495432128
1970-01-01 00:00:00.000000053,-3.3795693828626088,0.017890683481174285,7.291679895393522,0.886192837206643
1970-01-01 00:00:00.000000053,-2.7588484441004555,0.6138891748089658,5.495676912430642,0.9647814492208997
1970-01-01 00:00:00.000000053,-2.055604327091377,0.5885492000561481,3.873028903929117,1.0639498625931798
1970-01-01 00:00:00.000000053,-1.3933790196568892,0.09293901347483852,2.1421032804233744,1.1974760347030329
1970-01-01 00:00:00.000000053,-0.8636287268418779,-0.6312734544868783,0.6616820492506669,1.3354368632776912
1970-01-01 00:00:00.000000053,-0.40349393834038594,-1.4091748839084002,-0.5485405499432042,1.4570780816470854
1970-01-01 00:00:00.000000053,-0.07128516395026308,-1.7424506184709354,-1.798279105148218,1.5492805409028467
1970-01-01 00:00:00.000000053,0.043853226159993514,-1.513449301093114,-3.13145277534486,1.616650443583824
1970-01-01 00:00:00.000000053,-0.05597122191289636,-0.816760752907014,-4.197026071026924,1.6428641231698893
1970-01-01 00:00:00.000000053,-0.17395517719761738,0.10654315525078989,-4.792616959734884,1.6249779938236788
1970-01-01 00:00:00.000000053,-0.2553253209616131,0.8047251460945258,-4.842332640398868,1.5815038406588902
1970-01-01 00:00:00.000000053,-0.37125269078820977,1.108918843826894,-4.462481276508887,1.5521716876653295
1970-01-01 00:00:00.000000053,-0.17234954092883012,1.1003508809145055,-3.9303945816581978,1.5300618991612083
1970-01-01 00:00:00.000000053,0.36754915484022344,0.8762395030284426,-3.632487866098795,1.523847081024291
1970-01-01 00:00:00.000000053,1.0724053802568154,0.49905473601632033,-3.7058387678463616,1.5434112528308563
1970-01-01 00:00:00.000000053,1.8124778763382452,0.03925739566021216,-3.9841398395049468,1.577938700830193
1970-01-01 00:00:00.000000053,2.501208123349822,-0.3674109953898258,-4.544242840986346,1.6212906565584924
1970-01-01 00:00:00.000000053,2.9960137421548767,-0.4949943301494043,-5.24605692609027,1.6499318964586491
1970-01-01 00:00:00.000000053,3.082811958764459,-0.4672650872566505,-6.06912333206362,1.6957043083857677
1970-01-01 00:00:00.000000053,3.0435363714800756,-0.26392426812559344,-6.763034281972936,1.7299861167849375
1970-01-01 00:00:00.000000053,3.016637716468011,0.06816578611597884,-7.055946342955315,1.7294397122312863
1970-01-01 00:00:00.000000053,3.014028575225849,0.10651576645436689,-6.745401704623339,1.7056643158303844
1970-01-01 00:00:00.000000053,3.023557924045142,0.1436729291713743,-5.98398666085547,1.6480727653817584
1970-01-01 00:00:00.000000053,2.9851644172882965,0.2995072991406172,-4.795384160506404,1.5578172566183572
1970-01-01 00:00:00.000000053,2.970838275603434,0.23901308146459338,-3.1953967389781295,1.447645026326543
1970-01-01 00:00:00.000000053,2.854656855541906,-0.023873528950446025,-1.4080472212569404,1.3395419540177924
1970-01-01 00:00:00.000000053,2.6416818197951315,0.13418835707088134,0.19590848523825516,1.2264373815247052
1970-01-01 00:00:00.000000053,2.5321801777758544,0.7207035670846889,1.5213207199103007,1.086674673542986
1970-01-01 00:00:00.000000053,2.1838752712033855,1.4488728240960418,2.2538158222202282,0.9765066031896531
1970-01-01 00:00:00.000000053,1.475786992155229,1.8405425469193875,2.523386343446881,0.9593464051619867
1970-01-01 00:00:00.000000053,1.1876150225422313,1.711011996148897,3.8428515042667555,0.8797453187784777
1970-01-01 00:00:00.000000053,0.9052424583084359,0.9774194906132683,8.854242413267933,0.653078272542511
1970-01-01 00:00:00.000000053,1.8341031382070623,0.5100090144759608,13.802388418033907,0.32272573310900543
1970-01-01 00:00:00.000000053,2.3283019053519296,-0.9002916475167893,13.867129325893249,0.3560639028199901
1970-01-01 00:00:00.000000053,1.906576975234584,-3.2009732043871284,11.727013674125761,0.6465728652461246
1970-01-01 00:00:00.000000053,1.3096509511771504,-3.8069665062873264,9.73125824015073,0.8090847526471949
1970-01-01 00:00:00.000000053,0.08280201443109525,-3.317245746285604,7.786835529029301,0.9572551044867597
1970-01-01 00:00:00.000000053,-0.6197820955928488,-2.2207513257421017,5.55121836132226,1.0633833153504642
1970-01-01 00:00:00.000000053,-1.0112664045571886,-1.0340428499203433,3.955057425502516,1.1017545379799185
1970-01-01 00:00:00.000000053,-1.3632095160665738,-0.5216893824243519,3.662048366928386,1.0993683789633044
1970-01-01 00:00:00.000000053,-1.6300582720506551,-1.011636029258772,4.2101829278422835,1.1097890694810197
1970-01-01 00:00:00.000000053,-1.719206418182248,-1.9980985187787499,4.807275573597034,1.1479843149813884
1970-01-01 00:00:00.000000053,-1.6184522086046704,-2.844449410823173,4.678832126221886,1.2170249311339782
1970-01-01 00:00:00.000000053,-1.4500814747732564,-3.428032696330678,3.6451947115101677,1.3243546319256265
1970-01-01 00:00:00.000000053,-1.2733781461245075,-3.5610943641111064,2.1427641105466826,1.4305520860253145
1970-01-01 00:00:00.000000053,-1.1510899564905288,-3.2393058954613982,0.44164551245807754,1.5214238591390072
1970-01-01 00:00:00.000000053,-1.0690778618587595,-2.6873517066801296,-1.25552216751208,1.5993681465676812
1970-01-01 00:00:00.000000053,-0.9620775750356153,-2.0750095408487135,-2.5965633912307684,1.6443596714151758
1970-01-01 00:00:00.000000054,-0.9215594580713052,-1.4659582904072679,-3.4797417898907836,1.6589535166432392
1970-01-01 00:00:00.000000054,-0.97103672158339,-0.97187109193385,-4.072471727606652,1.6700414153393222
1970-01-01 00:00:00.000000054,-0.9651892744957916,-0.7520811185113856,-4.7045147821933595,1.6933076999873198
1970-01-01 00:00:00.000000054,-1.0537818792452383,-0.650274694985712,-5.265382978726251,1.7219738263794508
1970-01-01 00:00:00.000000054,-1.232088504351612,-0.5890603196880785,-5.744550317000475,1.7549238678460153
1970-01-01 00:00:00.000000054,-1.395532315338204,-0.608075717268691,-6.1911973609628115,1.7959117539601284
1970-01-01 00:00:00.000000054,-1.4481039208391515,-0.699425474771396,-6.788219857200457,1.85291499004586
1970-01-01 00:00:00.000000054,-1.3248893386984029,-0.8299974623334697,-7.644324144224016,1.9178705456769172
1970-01-01 00:00:00.000000054,-1.209909580692674,-0.8980212835898298,-8.546047312205548,1.9807373970465405
1970-01-01 00:00:00.000000054,-1.1287766808676292,-0.9297581386408335,-9.362134229375146,2.037521159703846
1970-01-01 00:00:00.000000054,-1.0382977481246631,-0.9052910804187878,-9.931419501629772,2.0711542234243163
1970-01-01 00:00:00.000000054,-1.0091375659048483,-1.0310683770473368,-10.304159659009485,2.104338457545298
1970-01-01 00:00:00.000000054,-0.9919608925924056,-1.2819654528493665,-10.629301644616326,2.1362367064822085
1970-01-01 00:00:00.000000054,-1.128082366498845,-1.4703201865704774,-11.075306082316104,2.1743942099628866
1970-01-01 00:00:00.000000054,-1.4422840510450516,-1.9826614005043735,-11.46994439386956,2.245088075737943
1970-01-01 00:00:00.000000054,-1.6642214884591193,-2.7044401982307136,-11.50609512334526,2.2887441929515555
1970-01-01 00:00:00.000000054,-2.169791782519117,-3.224738121987775,-11.882138106714985,2.352153892864847
1970-01-01 00:00:00.000000054,-2.793215433456312,-3.429684550053196,-11.877829212573303,2.3918783889586366
1970-01-01 00:00:00.000000054,-3.042858651366216,-3.554662136758045,-10.497168040072758,2.289308130882853
1970-01-01 00:00:00.000000054,-3.7795154592730604,-3.300304427238141,-9.29981915421472,2.1539927892281368
1970-01-01 00:00:00.000000054,-5.47720330815665,-1.17561931988224,-8.220011044934928,1.9850981862400383
1970-01-01 00:00:00.000000054,-6.729053116871043,0.8650061359186898,-5.584055713527544,1.7387445139271254
1970-01-01 00:00:00.000000054,-6.9031940347905705,1.705236671741319,-1.1250415382543222,1.3741183010201756
1970-01-01 00:00:00.000000054,-7.118253620178162,3.2019827614982384,4.233532941062141,0.8767113031922587
1970-01-01 00:00:00.000000054,-8.00088772861716,3.841028507370372,10.773161565591362,0.37848043300335377
1970-01-01 00:00:00.000000054,-9.343584432190108,2.153006047457739,18.53904843986073,-0.021857572972636685
1970-01-01 00:00:00.000000054,-10.832803840788651,0.9841125741282934,24.725124110788432,-0.2859941739514218
1970-01-01 00:00:00.000000054,-11.257001555456819,0.978298206394115,27.59956730381527,-0.4010574421542894
1970-01-01 00:00:00.000000054,-10.270943532307689,1.459061953207049,26.242316046917214,-0.2747708803469333
1970-01-01 00:00:00.000000054,-7.583749111573827,2.226581467261791,20.753172900015613,0.031113539026182524
1970-01-01 00:00:00.000000054,-4.2037171386433165,2.672621332327135,13.857335922970805,0.36748303269355154
1970-01-01 00:00:00.000000054,-1.6863197533148335,2.7160418972661335,8.176744411891129,0.6614386645679169
1970-01-01 00:00:00.000000054,-0.07508532227627596,2.7718417263791713,4.526095030610252,0.8413556723341845
1970-01-01 00:00:00.000000054,0.769229694479068,2.9990176121898564,2.6531543118038012,0.9191603148466008
1970-01-01 00:00:00.000000054,1.185849495695093,3.421241720686763,1.8286793060321649,0.9342436756371616
1970-01-01 00:00:00.000000054,1.4585670629040894,3.777641846070598,1.3743199507827146,0.9472148562480387
1970-01-01 00:00:00.000000054,1.9349108501344687,4.177627703381296,0.6304989452629929,0.9817599523950763
1970-01-01 00:00:00.000000054,2.8087629718967824,4.7412719737804405,-0.6278826001258797,1.0219326161484237
1970-01-01 00:00:00.000000054,3.836989875485586,5.066766113154573,-2.103278624197796,1.0791341372496368
1970-01-01 00:00:00.000000054,4.804664032960091,5.105856536362376,-3.6161967982453365,1.1477954737343976
1970-01-01 00:00:00.000000054,5.494015542448173,5.338573768437417,-4.986821528618448,1.197219982560181
1970-01-01 00:00:00.000000054,5.883430645294809,5.814597379428858,-5.749022306471859,1.1947691525447
1970-01-01 00:00:00.000000054,5.960044185629868,6.266794384143365,-5.875541838120137,1.161448973321617
1970-01-01 00:00:00.000000054,5.803887291215138,6.145236540374512,-5.634221774839376,1.1594016042448023
1970-01-01 00:00:00.000000054,5.7060290550206885,5.472960670136351,-5.430077618375235,1.1994257346291484
1970-01-01 00:00:00.000000054,5.731575815724302,4.435092213369012,-5.417483261230033,1.2741468199775359
1970-01-01 00:00:00.000000054,5.855138870935255,3.2052431659542115,-5.661256359708444,1.3719154090648535
1970-01-01 00:00:00.000000054,5.96814242995452,2.0662803624838197,-5.976631355808844,1.4660392490359555
1970-01-01 00:00:00.000000054,6.0297237496273155,1.4025754068143395,-6.139541461424927,1.5180560297846983
1970-01-01 00:00:00.000000054,6.013793490418207,1.073834680849753,-6.0204090433177715,1.5307155436706932
1970-01-01 00:00:00.000000054,5.948963262890934,1.0558240341376046,-5.696639650146217,1.5147896365060318
1970-01-01 00:00:00.000000054,5.963905367705857,1.294288087389909,-5.177987664105785,1.4681414176898078
1970-01-01 00:00:00.000000054,6.092334048422216,1.6684000086916726,-4.580581597408207,1.3921372535938594
1970-01-01 00:00:00.000000054,6.0901647461404815,1.928572774895941,-3.571654838305115,1.2842879861284144
1970-01-01 00:00:00.000000054,5.682505085557194,2.028375952624167,-1.7287879977045197,1.1476123401720346
1970-01-01 00:00:00.000000054,5.066160862805165,1.8887148500264752,0.6955158043529979,0.9910450317597059
1970-01-01 00:00:00.000000054,4.235576743344283,1.1951384928301263,3.7359282099749613,0.8274799412529077
1970-01-01 00:00:00.000000054,3.023616887901286,0.5098027927346535,6.304324201318707,0.7193546475899328
1970-01-01 00:00:00.000000054,1.6935367548997162,0.3003043969810292,8.711592711605576,0.8145259588240252
1970-01-01 00:00:00.000000054,0.35833701109357885,-1.0729292807824757,13.862333805496256,0.6475181471754753
1970-01-01 00:00:00.000000054,-0.1487838713591333,-5.7907858468600955,14.550029168040714,0.9430902592132707
1970-01-01 00:00:00.000000054,-0.15164062993340593,-6.144491521606469,9.247250794436518,1.245733027468392
1970-01-01 00:00:00.000000054,-1.872750700148303,-6.297325868121108,6.063901650138787,1.550877963878817
1970-01-01 00:00:00.000000054,-2.6118974955853926,-5.482895151474162,3.753505525499995,1.699400876501065
1970-01-01 00:00:00.000000054,-2.787970688783684,-5.086867700171021,2.434723059871341,1.7829383362123223
1970-01-01 00:00:00.000000054,-2.691088037073892,-4.718999974575065,0.8775498695946592,1.879484092852165
1970-01-01 00:00:00.000000054,-2.2813960507524222,-4.332627519326912,-1.497372486786698,2.002653377877133
1970-01-01 00:00:00.000000054,-1.959320672535271,-3.900102280621529,-3.569766246205175,2.100014989512808
1970-01-01 00:00:00.000000054,-1.7969539950823816,-3.337397313513852,-4.503579416812549,2.126505195961315
1970-01-01 00:00:00.000000054,-1.5805048965161714,-2.708550706951915,-5.0258035304330475,2.112716891795327
1970-01-01 00:00:00.000000054,-1.4350382525617797,-2.167986692108629,-5.317630822800386,2.088353077644045
1970-01-01 00:00:00.000000054,-1.401399711517597,-1.8130257579228108,-5.536164463119152,2.08289753970428
1970-01-01 00:00:00.000000054,-1.271937171269092,-1.64116125555169,-5.766262165161148,2.088445123679148
1970-01-01 00:00:00.000000054,-1.0630279585188998,-1.4978905706610768,-6.152476424920077,2.1015754839965086
1970-01-01 00:00:00.000000054,-0.8509235105128874,-1.3786479944108976,-6.677365149794438,2.1233462151652334
1970-01-01 00:00:00.000000054,-0.6852866568601909,-1.345520065129831,-7.256297406226455,2.154874651820169
1970-01-01 00:00:00.000000054,-0.5786126929089203,-1.3605233671306718,-7.902794421355913,2.194156893995379
1970-01-01 00:00:00.000000054,-0.5463938404031271,-1.2965102365068217,-8.527051359491825,2.2254792099985137
1970-01-01 00:00:00.000000054,-0.6420396270551303,-1.0921269372788684,-9.024466203648496,2.2429249702915355
1970-01-01 00:00:00.000000054,-0.8243906680663671,-0.8266552219551521,-9.269274290949978,2.243773948992671
1970-01-01 00:00:00.000000054,-1.0329929072265667,-0.627154038170936,-9.395529634661662,2.2353987829017923
1970-01-01 00:00:00.000000054,-1.3791189167238511,-0.3012208851469196,-9.35474292140186,2.2132932259209994
1970-01-01 00:00:00.000000054,-1.788268682245967,0.10323413026908995,-9.073485252123596,2.1785794210820484
1970-01-01 00:00:00.000000054,-2.110503218256701,0.33342396145059194,-8.634477326897416,2.1492498153844077
1970-01-01 00:00:00.000000054,-2.198237619986636,0.6011748473804626,-8.105440555622986,2.099144725832654
1970-01-01 00:00:00.000000054,-2.193733108987836,1.3134240477171184,-7.297290545027841,1.9888020250447107
1970-01-01 00:00:00.000000054,-2.3126697133415486,1.8056383230817301,-5.727040278028695,1.8388909455266582
1970-01-01 00:00:00.000000054,-2.6418010118235777,1.8997253946563506,-3.3718822425801456,1.6681853363939054
1970-01-01 00:00:00.000000054,-3.112383913701578,2.19509702618887,-0.6056305780861221,1.4562799437100338
1970-01-01 00:00:00.000000054,-3.836231933681373,2.4629405202828956,1.8649028420945453,1.2924364646688495
1970-01-01 00:00:00.000000054,-4.300769220197655,2.9556816061564755,4.109391899346014,1.1369063001081732
1970-01-01 00:00:00.000000054,-4.247767584936482,4.087267312654889,6.0854829069608165,0.9468552180170635
1970-01-01 00:00:00.000000054,-3.7002012541311347,4.649231939040098,8.697342692110876,0.7228978029195836
1970-01-01 00:00:00.000000055,-3.20959888429968,2.994851525009339,10.795626263614015,0.6702590574451158
1970-01-01 00:00:00.000000055,-2.930284734805695,0.2664428540342827,12.589250043289518,0.7247974789730244
1970-01-01 00:00:00.000000055,-2.599000082184847,-1.3087929529403879,14.356226418345965,0.6873915010216083
1970-01-01 00:00:00.000000055,-2.7244091848363814,-2.04258827970317,15.090127555773224,0.6920544653842272
1970-01-01 00:00:00.000000055,-2.8305954704579754,-2.358611462932785,14.559696723643576,0.7765753135170056
1970-01-01 00:00:00.000000055,-2.4285266887052175,-2.0607032870185673,12.600901915067722,0.9007140450911306
1970-01-01 00:00:00.000000055,-1.6675752868226263,-1.3358332446095518,9.60919902514395,1.0332650589542747
1970-01-01 00:00:00.000000055,-1.0889740957372895,-0.6404680834247931,6.71379799783355,1.159785893740969
1970-01-01 00:00:00.000000055,-0.7981417060852662,-0.0022237181297335984,4.117928206091983,1.2815524748341387
1970-01-01 00:00:00.000000055,-0.624438008615452,0.6898653927528091,2.329701265480884,1.3475857386637689
1970-01-01 00:00:00.000000055,-0.5999479478306093,1.1200622365278656,1.2754788759641589,1.3907524962119182
1970-01-01 00:00:00.000000055,-0.5836254599428659,1.2416013187264132,0.5480147107783476,1.4385350973370292
1970-01-01 00:00:00.000000055,-0.4523003348763007,1.161757733887564,-0.22049732014664797,1.504296609742159
1970-01-01 00:00:00.000000055,-0.12413486199528184,0.9829616856783344,-1.1443381652973026,1.580594668193954
1970-01-01 00:00:00.000000055,0.33631236698001454,0.8171014814529911,-2.2377394408549978,1.656670246572235
1970-01-01 00:00:00.000000055,0.7656439763994386,0.8463327726806673,-3.2570722786593906,1.713073561436751
1970-01-01 00:00:00.000000055,1.1056387538669938,0.90568900416669,-4.081406459706921,1.7641386485137893
1970-01-01 00:00:00.000000055,1.53500646426321,0.953131899241916,-4.845040574005532,1.8105486209095982
1970-01-01 00:00:00.000000055,2.06970647806893,1.0025400564591394,-5.561021257348319,1.84035901019164
1970-01-01 00:00:00.000000055,2.4669616205214697,0.8098873121007343,-6.108095687453172,1.8695994542626988
1970-01-01 00:00:00.000000055,2.568319434187853,0.34138828452784675,-6.380591389620098,1.9118142822205324
1970-01-01 00:00:00.000000055,2.5359281835571323,-0.17681854820010423,-6.50228675064069,1.960988360392538
1970-01-01 00:00:00.000000055,2.5855448494295077,-0.6703928304131939,-6.986054622161146,2.025984816947527
1970-01-01 00:00:00.000000055,2.6158983897336916,-1.116341767147368,-7.563741941901527,2.0940649160515994
1970-01-01 00:00:00.000000055,2.6164758880052124,-1.6261339067632896,-7.890276833377468,2.154486005300375
1970-01-01 00:00:00.000000055,2.6818385189237985,-1.9681223486161734,-8.152581192444877,2.1942257069557605
1970-01-01 00:00:00.000000055,2.740950789870084,-1.9461103499396915,-8.412356206700535,2.2026843514910266
1970-01-01 00:00:00.000000055,2.6682017377387997,-1.4757558191855158,-8.629935107899604,2.175370176923962
1970-01-01 00:00:00.000000055,2.3907638337610533,-0.638229048989166,-8.334823987508567,2.089395257588328
1970-01-01 00:00:00.000000055,1.8410443332950994,0.1757563526025216,-7.228127698707001,1.9665037471376123
1970-01-01 00:00:00.000000055,1.2678636659783193,0.9049039435644514,-5.553370503273124,1.823476402486548
1970-01-01 00:00:00.000000055,0.9167790757520062,1.3783264832596902,-3.5911995300453383,1.6850525926733275
1970-01-01 00:00:00.000000055,1.0469154772308793,1.355527047507191,-0.8634008648910333,1.5145766558054141
1970-01-01 00:00:00.000000055,1.5371896577833644,1.0301940412320605,2.0886664197849254,1.3138244689224858
1970-01-01 00:00:00.000000055,1.7346302318460798,0.6465570110767509,3.694239144402223,1.1915460634720592
1970-01-01 00:00:00.000000055,1.2322557711210458,-0.3028395210657542,4.676105700169025,1.174251578969291
1970-01-01 00:00:00.000000055,0.32976029600635337,-0.7267565455129661,5.9070822945006,1.155731216089925
1970-01-01 00:00:00.000000055,-0.04737947866292014,0.32903571047182756,8.463739169603027,0.9751312867667435
1970-01-01 00:00:00.000000055,0.6890099918270793,1.1599653508504284,10.413119907378983,0.7680752622619675
1970-01-01 00:00:00.000000055,1.141052527270047,-0.7015925828493405,10.748876984290344,0.8672965620192565
1970-01-01 00:00:00.000000055,1.8378336226075103,-2.5456499177652145,10.113873838477573,1.0022641953273008
1970-01-01 00:00:00.000000055,2.127354165670807,-3.665591765273067,9.19108008614251,1.1052172564082452
1970-01-01 00:00:00.000000055,1.7338746564141223,-4.578303730416527,8.392312501561092,1.2316428549384733
1970-01-01 00:00:00.000000055,1.4422791841790557,-4.365936156316992,7.4840302556632405,1.2778297396388656
1970-01-01 00:00:00.000000055,0.9777341835764055,-3.5791769891232073,6.649299902365345,1.2885727293820115
1970-01-01 00:00:00.000000055,0.4438965157005606,-3.2513402751432374,6.067569383067326,1.3301533415937712
1970-01-01 00:00:00.000000055,0.20286060200943717,-3.239280865055921,5.392803015140478,1.3893141813900665
1970-01-01 00:00:00.000000055,0.1552660256885297,-3.2395538744957006,4.50780123259645,1.4470358758610002
1970-01-01 00:00:00.000000055,0.002407266041458772,-3.1703936358888574,3.1261103754028965,1.5349516903482472
1970-01-01 00:00:00.000000055,-0.2421793457052653,-3.0189123469046155,1.4893408508805999,1.6348388241926421
1970-01-01 00:00:00.000000055,-0.6109042241252429,-2.7625756733238016,-0.08624334441473926,1.7293777331171598
1970-01-01 00:00:00.000000055,-1.0284914231828508,-2.3733596904130247,-1.3706400076535548,1.801648225447827
1970-01-01 00:00:00.000000055,-1.385124139745571,-1.9311134246962989,-2.2840143190996685,1.848164010157857
1970-01-01 00:00:00.000000055,-1.591414492296462,-1.5446534391772384,-2.8256972708277286,1.8668464990761975
1970-01-01 00:00:00.000000055,-1.727561666818147,-1.251642879710838,-3.236925439870759,1.8755951313298969
1970-01-01 00:00:00.000000055,-1.9319014617734698,-1.1533371573543072,-3.9749224500217246,1.9166063155441806
1970-01-01 00:00:00.000000055,-2.2734526443129153,-1.0633652934630413,-5.010885635323473,1.993887576807477
1970-01-01 00:00:00.000000055,-2.4773959181461866,-0.9444318852525606,-6.205895822816717,2.077469252205144
1970-01-01 00:00:00.000000055,-2.5656680102305836,-0.9169708206465197,-7.528976793018288,2.1631241334930453
1970-01-01 00:00:00.000000055,-2.616974727307228,-1.1268723358244968,-8.88956965229791,2.0598074015383974
1970-01-01 00:00:00.000000055,-2.44061450524067,-1.5036657041865795,-9.984487276596976,2.1674275571594057
1970-01-01 00:00:00.000000055,-1.9008155311150008,-1.6491942522212555,-11.118679390828593,2.2444793734448534
1970-01-01 00:00:00.000000055,-1.405424527808214,-1.852091257724108,-12.297368427711406,2.316838680602743
1970-01-01 00:00:00.000000055,-1.2025514484087219,-2.4666366007231346,-13.269635051772616,2.411633415123662
1970-01-01 00:00:00.000000055,-1.2052262767382305,-3.2382084233847013,-13.973889431733195,2.5169873728398082
1970-01-01 00:00:00.000000055,-1.0999298346404924,-4.1401538171982075,-14.20054259155817,2.5826979717040714
1970-01-01 00:00:00.000000055,-1.2221978153665942,-5.326679679154215,-13.971495578524998,2.6459581316700085
1970-01-01 00:00:00.000000055,-1.4113081181027178,-6.334557681421143,-13.184198190072896,2.6646467286176
1970-01-01 00:00:00.000000055,-1.600722861119228,-7.076576538270762,-12.372054372496954,2.640140028638873
1970-01-01 00:00:00.000000055,-2.2689574569329896,-6.960297003863567,-11.838558019319338,2.6026811993452013
1970-01-01 00:00:00.000000055,-3.0275980677330914,-6.4002347116619775,-11.317804294741366,2.5442955147526707
1970-01-01 00:00:00.000000055,-3.88072089135668,-7.246239986058699,-12.142357713746723,2.6539332306154098
1970-01-01 00:00:00.000000055,-4.988489638138747,-7.358423379729959,-12.636032444226561,2.712558550744787
1970-01-01 00:00:00.000000055,-5.966643700050703,-5.773157919000597,-11.622484932720699,2.4540162938311556
1970-01-01 00:00:00.000000055,-9.025081152502446,-4.178067053347583,-9.08228735929341,2.095490069322726
1970-01-01 00:00:00.000000055,-14.570316648721597,-2.5736452805205356,-1.638266527337482,1.5460581254337242
1970-01-01 00:00:00.000000055,-20.589439763574877,0.30389745873867285,8.963344100627026,0.7231676035210243
1970-01-01 00:00:00.000000055,-27.010215172157487,4.6582920342734075,17.777972612075832,0.06971784413021265
1970-01-01 00:00:00.000000055,-30.82630302486063,10.06793216242502,22.389861121202085,-0.2820058095357636
1970-01-01 00:00:00.000000055,-29.48644775977357,14.282737180566542,20.35513848974488,-0.11617856554437278
1970-01-01 00:00:00.000000055,-21.25759744529202,13.799290228943542,12.43219661798286,0.3393383625982034
1970-01-01 00:00:00.000000055,-12.196377676866597,9.219981764073134,6.111052958956536,0.6610324255474788
1970-01-01 00:00:00.000000055,-8.314389811921034,6.7235146806591475,4.3995305534714815,0.8026697134993175
1970-01-01 00:00:00.000000055,-5.995146184527865,5.902250353961167,4.013607725010836,0.8092208858589324
1970-01-01 00:00:00.000000055,-4.43594497715539,6.173459177767746,3.7540923232964847,0.7933438128547339
1970-01-01 00:00:00.000000055,-2.67530986082388,6.29975000823684,2.8654875664628077,0.8404999303750157
1970-01-01 00:00:00.000000055,-0.39948073163266273,5.77713992797071,1.221420854542992,0.9683384973018738
1970-01-01 00:00:00.000000055,2.3116774462777765,4.790961486061928,-0.7791910547123461,1.123408242552826
1970-01-01 00:00:00.000000055,5.0277759022118556,3.7690150056427494,-2.8193845218348965,1.2647141682533691
1970-01-01 00:00:00.000000055,7.346212955962068,2.8800799574384035,-4.186554743683818,1.3923458981216992
1970-01-01 00:00:00.000000055,10.036366614130964,1.8429190348432383,-4.117818367979119,1.3892355773691132
1970-01-01 00:00:00.000000055,12.326820038411235,1.667917636612686,-2.455357538468719,1.2420336508155547
1970-01-01 00:00:00.000000055,14.4823430760015,2.391054614576071,-1.4766377097995116,1.0567057622151381
1970-01-01 00:00:00.000000055,15.970595446427886,2.9859390519238245,-2.193478531135396,0.9702393306633319
1970-01-01 00:00:00.000000055,16.112250360507318,2.6251392360980446,-3.351443182125302,0.9964309211132616
1970-01-01 00:00:00.000000055,14.783416769118931,2.346558604812968,-4.591749104158127,1.0979691281718504
1970-01-01 00:00:00.000000056,13.005491130402543,2.897728010881647,-5.459997713114456,1.1503557632439065
1970-01-01 00:00:00.000000056,11.244770737150482,3.798372733846258,-4.921914105077457,1.0787468309558688
1970-01-01 00:00:00.000000056,9.422718209117383,5.439808294598757,-2.900210632345374,0.8431164708836145
1970-01-01 00:00:00.000000056,7.314855593736628,7.570881863814761,-0.6393423247530942,0.3906638330838158
1970-01-01 00:00:00.000000056,1.3608418693391546,11.4567306230914,2.870696458703611,-0.10162907624134787
1970-01-01 00:00:00.000000056,-6.662369097056761,16.164455527406247,4.551757277504063,-0.27020301715905615
1970-01-01 00:00:00.000000056,-12.070359849076894,18.907360268790033,4.950541685818316,-0.3092254284537219
1970-01-01 00:00:00.000000056,-15.68789378933539,21.913239130114178,6.691835639779681,-0.5390808442146298
1970-01-01 00:00:00.000000056,-18.63219286732971,24.49905984738777,10.477984191327643,-1.0361584555596108
1970-01-01 00:00:00.000000056,-24.221539728483084,23.586073861186485,15.238434637896704,-1.2016650373772018
1970-01-01 00:00:00.000000056,-29.8003944109412,21.4090765007049,20.793893127941104,-1.1138201508794066
1970-01-01 00:00:00.000000056,-30.987369051122553,19.248772334312818,21.986460492979546,-0.8708630532128965
1970-01-01 00:00:00.000000056,-29.351764701279976,13.835240060333085,18.368003717098812,-0.16118344458956502
1970-01-01 00:00:00.000000056,-25.122186528006907,6.953938456059691,13.35086903006841,0.6309745173622662
1970-01-01 00:00:00.000000056,-19.725914768061358,1.0075034335252706,8.691865274994862,1.2447359003049112
1970-01-01 00:00:00.000000056,-14.650385814670416,-3.3222442996317754,5.508594846038461,1.6168315488034954
1970-01-01 00:00:00.000000056,-10.685712463836786,-6.4937894258183455,3.754505665808455,1.8348613218419252
1970-01-01 00:00:00.000000056,-7.733137137730806,-8.686780858203878,2.9363474700498275,1.9585487868759974
1970-01-01 00:00:00.000000056,-5.4188814314643174,-10.25355734465108,2.3226124265721344,2.0525276315327137
1970-01-01 00:00:00.000000056,-3.394705437831207,-11.44560727323751,1.7378482215351454,2.134192745332376
1970-01-01 00:00:00.000000056,-1.426266871079258,-12.382987612739603,1.2441409748991759,2.176363219151191
1970-01-01 00:00:00.000000056,0.08383267014856544,-13.232040760829024,0.5169756106455016,2.2514669883403244
1970-01-01 00:00:00.000000056,1.547429628950303,-13.693372023854437,0.402941418318871,2.262821678514428
1970-01-01 00:00:00.000000056,2.9852651832972694,-14.0915620648049,1.009884502400023,2.2029954566728156
1970-01-01 00:00:00.000000056,3.9748553395555697,-14.541397176096048,1.3513466962636427,2.166297508121141
1970-01-01 00:00:00.000000056,4.4406190645532995,-15.109658013297876,1.642979973209,2.1643762457761517
1970-01-01 00:00:00.000000056,4.666667677894504,-15.713939621571036,1.714542141754983,2.188125995898153
1970-01-01 00:00:00.000000056,4.739515106118403,-16.083881459503413,1.7324881637919272,2.208691259778073
1970-01-01 00:00:00.000000056,4.776575633159369,-16.246914502452704,1.8665835631950554,2.21131860736536
1970-01-01 00:00:00.000000056,4.8392178682598646,-16.344183989455978,2.1538941597381664,2.1963725630378295
1970-01-01 00:00:00.000000056,4.878897053990495,-16.42150188343052,2.663110079163703,2.1761272307720465
1970-01-01 00:00:00.000000056,5.094585573180503,-16.87008505811357,3.1663597827359657,2.1861797795491182
1970-01-01 00:00:00.000000056,5.655366612392308,-17.64847663275534,3.250922107587821,2.2338801766221086
1970-01-01 00:00:00.000000056,6.420613324678189,-18.665340135551585,2.8319810128641985,2.3128641866643127
1970-01-01 00:00:00.000000056,7.095390373805102,-19.604774583097594,2.423497683785322,2.3852206140417884
1970-01-01 00:00:00.000000056,7.637367817641031,-20.301550576557386,2.2144794808656405,2.4109507306775737
1970-01-01 00:00:00.000000056,7.661675929467777,-20.333716384574135,2.32082289896453,2.3746590203178313
1970-01-01 00:00:00.000000056,7.078696584708478,-19.597320618023723,2.8092099800966994,2.2771493135115564
1970-01-01 00:00:00.000000056,5.9870656347068465,-18.440404876822615,3.3813819888902676,2.172743176425502
1970-01-01 00:00:00.000000056,4.78403386241029,-16.817278943590633,3.4644358325368496,2.074083869260786
1970-01-01 00:00:00.000000056,3.493510018653751,-14.895870230210765,2.8886418595182195,2.018612970216995
1970-01-01 00:00:00.000000056,2.4977290465528275,-13.287123062599917,2.11298858395511,1.9733958427855685
1970-01-01 00:00:00.000000056,1.377013958169528,-12.13256988559683,1.3859324816602043,1.9477926660714082
1970-01-01 00:00:00.000000056,-0.04612213163638512,-11.212596920044227,1.1368553493406441,1.907508376300126
1970-01-01 00:00:00.000000056,-1.8767726445459907,-11.004139810524583,1.1625690956100343,1.8691759457922839
1970-01-01 00:00:00.000000056,-4.849580972295159,-11.776912805809902,0.8747753904397816,1.8933426250885699
1970-01-01 00:00:00.000000056,-9.802752379397694,-10.281026520180003,-0.3521541275732765,1.903389664449392
1970-01-01 00:00:00.000000056,-15.667509175136237,-2.540513325545497,-0.6126469214135635,1.4793035352370905
1970-01-01 00:00:00.000000056,-21.858433289262454,8.832956438309399,-0.5435230427350627,0.6444308014974834
1970-01-01 00:00:00.000000056,-31.901725462859698,15.510488780744678,0.9176763884126228,0.3613150327279795
1970-01-01 00:00:00.000000056,-39.938062908472574,19.564069301214417,3.9346141892929087,0.4357390482626191
1970-01-01 00:00:00.000000056,-39.28990578853787,26.0521323687775,4.399656739228967,0.19722459378339097
1970-01-01 00:00:00.000000056,-34.005420264381186,28.611622579139272,3.1242356932506343,0.11827821393821258
1970-01-01 00:00:00.000000056,-26.735338340095762,24.348571099652723,2.8416008102071446,0.3440163209052649
1970-01-01 00:00:00.000000056,-18.352314516207464,18.742245568111183,2.0414346389692555,0.5734462138183911
1970-01-01 00:00:00.000000056,-11.16450097835833,13.938896222794789,0.27397142540805086,0.846703742324268
1970-01-01 00:00:00.000000056,-5.077720344289145,10.222363545645342,-3.779795054654424,1.3628012339218756
1970-01-01 00:00:00.000000056,-0.3837278247042503,6.634035001201291,-6.509322409505679,1.602583741065865
1970-01-01 00:00:00.000000056,2.0575155787604475,4.583871940472416,-6.784619548316076,1.6787889044670092
1970-01-01 00:00:00.000000056,3.682411885818208,3.712731769040308,-6.343181017542052,1.6414797329573847
1970-01-01 00:00:00.000000056,4.512133033102854,3.0059641617834494,-4.885189587151794,1.5717808994775833
1970-01-01 00:00:00.000000056,5.279661318831063,2.796677636369001,-3.2085607983002213,1.4795202661211915
1970-01-01 00:00:00.000000056,6.466638222256119,2.702691585653054,-2.2975924014807156,1.4081645271956966
1970-01-01 00:00:00.000000056,7.769947557587295,2.1775047568592574,-1.5749244610833548,1.3769702246860764
1970-01-01 00:00:00.000000056,9.22291696734484,1.3342856942173016,-0.731019203099455,1.3489190599264604
1970-01-01 00:00:00.000000056,10.631469821429828,0.06441548160868565,0.05361247199885846,1.344589563856797
1970-01-01 00:00:00.000000056,11.832404399467642,-1.0620141358031672,0.9616095020483006,1.3225913951143489
1970-01-01 00:00:00.000000056,12.752436931860878,-1.4299659129611844,1.9686753186382115,1.2587480154913222
1970-01-01 00:00:00.000000056,13.583988907288541,-1.6025259427379441,2.637163672594374,1.1926832704898356
1970-01-01 00:00:00.000000056,14.07682523277491,-1.7300152430407743,3.0929631393325514,1.1364582615845835
1970-01-01 00:00:00.000000056,14.086564069197204,-1.5975323817196472,3.3831943270279896,1.086581705865065
1970-01-01 00:00:00.000000056,13.660627468224822,-1.355708146428302,3.300934607384506,1.0834373896611715
1970-01-01 00:00:00.000000056,13.22434567033191,-1.364174084115831,2.634453560082393,1.1431799786429098
1970-01-01 00:00:00.000000056,12.913866337646747,-1.607869673482151,1.6984339660570051,1.2360831608420058
1970-01-01 00:00:00.000000056,12.746517370015964,-1.7870376818465155,0.7345329415126785,1.3268734580748438
1970-01-01 00:00:00.000000056,12.778041654018615,-1.680512672886087,-0.40440948172718244,1.3856739465940207
1970-01-01 00:00:00.000000056,12.58356286096108,-1.1038360289465223,-1.4206204910153555,1.4038302330225938
1970-01-01 00:00:00.000000056,12.095062841775064,-0.11515284942074402,-1.9444365164381374,1.3601882801929532
1970-01-01 00:00:00.000000056,11.185143264242967,1.1158790415937934,-2.2079955058070535,1.2769619551221971
1970-01-01 00:00:00.000000056,9.631124459276757,2.9314533432253453,-2.233875769580404,1.139889554805998
1970-01-01 00:00:00.000000056,7.288139597024609,5.340494054588584,-1.5495174437658195,0.891727529665547
1970-01-01 00:00:00.000000056,3.338669241829339,7.870752843462009,-0.4942284993017466,0.6301591348866604
1970-01-01 00:00:00.000000056,-2.378401694032322,10.398132241671613,0.6836474854049086,0.4354073109880001
1970-01-01 00:00:00.000000056,-8.903491440363133,13.400118591091063,2.724011514652957,0.23167784713577788
1970-01-01 00:00:00.000000056,-14.800337006475736,18.32715446991274,6.536748162351032,-0.1734820102688548
1970-01-01 00:00:00.000000056,-18.85329930909868,25.37905167628886,10.964188448560028,-0.8851538687319023
1970-01-01 00:00:00.000000056,-23.277708361450333,28.796306172693875,13.635405331577829,-1.2520683867577769
1970-01-01 00:00:00.000000056,-28.620960723705124,25.178792653631465,15.49933317122457,-0.7785762306173123
1970-01-01 00:00:00.000000056,-28.21268585298528,22.02771883606569,15.093213652195107,-0.4383278032728759
1970-01-01 00:00:00.000000056,-26.060411289462557,16.44148742925565,12.13930694715619,0.1501357272902366
1970-01-01 00:00:00.000000056,-22.90023241500264,9.984596816124817,10.510228983310519,0.668686178325332
1970-01-01 00:00:00.000000056,-19.299156480676775,4.931322838370831,9.17557183448417,1.0276259956778957
1970-01-01 00:00:00.000000056,-16.078840140598842,1.3267621698659378,7.395852897740265,1.3273967308837586
1970-01-01 00:00:00.000000056,-13.07839985032944,-0.9739715698110589,5.647229086682361,1.5313970962906691
1970-01-01 00:00:00.000000056,-10.517258471549649,-2.7864933107260543,4.166833686721937,1.692364788930432
1970-01-01 00:00:00.000000056,-8.361233309560898,-4.662846012700229,3.20578226190214,1.8454926878508715
1970-01-01 00:00:00.000000056,-6.2619174614421995,-6.594960260931291,2.6546761558847196,1.9858652302195738
1970-01-01 00:00:00.000000057,-3.98285793048162,-8.436473693854644,2.435081285575383,2.072014542595455
1970-01-01 00:00:00.000000057,-2.035085843518328,-10.312041609184305,2.2203064186104546,2.17085395974526
1970-01-01 00:00:00.000000057,-0.27258576456471884,-11.8392742560395,1.66256751498879,2.2749565445361393
1970-01-01 00:00:00.000000057,1.3670967465882784,-13.083476643472782,1.1839031464961396,2.3523980790675707
1970-01-01 00:00:00.000000057,2.777219646822509,-14.328496585497026,0.8889159726358677,2.4104287984447916
1970-01-01 00:00:00.000000057,3.7241218268043967,-15.870839732931284,0.9819195466879089,2.478809586885242
1970-01-01 00:00:00.000000057,4.396068611513264,-17.486282328018714,1.3208056635664356,2.5498625990132378
1970-01-01 00:00:00.000000057,5.001666001737592,-18.621944186777046,1.5666723064025705,2.588858199196915
1970-01-01 00:00:00.000000057,5.382180164800749,-19.39069042842261,2.1448668958423696,2.599367741770532
1970-01-01 00:00:00.000000057,5.821690958627283,-19.988089027118,2.5333422348573427,2.6172178580509797
1970-01-01 00:00:00.000000057,6.457061629303963,-20.75368745667266,2.289399292397021,2.684078948624432
1970-01-01 00:00:00.000000057,7.275318653777328,-21.7591391162323,1.6327718466740946,2.7897856175481586
1970-01-01 00:00:00.000000057,8.250801033478364,-22.833445261033145,0.9550639883694676,2.8842948216698217
1970-01-01 00:00:00.000000057,9.06283772967749,-23.950845046083533,0.44699372488061717,2.9637511290440566
1970-01-01 00:00:00.000000057,9.56462595440062,-24.587028683301185,0.36610888332862235,2.9738666383685297
1970-01-01 00:00:00.000000057,9.50234404619215,-24.191495270765255,0.6453802572765359,2.872620915117663
1970-01-01 00:00:00.000000057,8.293622059023075,-22.785661389023968,1.3568403014745058,2.7191189840728858
1970-01-01 00:00:00.000000057,6.4740709297793995,-20.601428218738732,1.9092418966785103,2.548064344921202
1970-01-01 00:00:00.000000057,4.301714957595067,-17.947530481358708,1.6980609444084613,2.4185270402906056
1970-01-01 00:00:00.000000057,2.1069542446215417,-15.230461110818714,0.6898372694772549,2.3381380859801784
1970-01-01 00:00:00.000000057,-0.13758738180115626,-12.518147898666923,-0.5656830564430815,2.302511569181511
1970-01-01 00:00:00.000000057,-1.873474361193089,-11.165010243940179,-1.3687578841923236,2.2587348670965683
1970-01-01 00:00:00.000000057,-4.290805259826032,-11.079566242635789,-2.0332173716674036,2.125430963435669
1970-01-01 00:00:00.000000057,-11.068076774136793,-7.947713998488798,-2.992546842090161,1.9980041303316696
1970-01-01 00:00:00.000000057,-19.49141246157195,3.2287111414754452,-3.0281245067300087,1.3926420894841869
1970-01-01 00:00:00.000000057,-28.064208026764938,12.929981566166763,-1.4597480917791372,0.7449377095100231
1970-01-01 00:00:00.000000057,-37.6020504802659,18.703657732437524,2.1877926161041223,0.6280813306247911
1970-01-01 00:00:00.000000057,-39.589393839975706,23.66296120976264,6.124332726706477,0.39198089340353137
1970-01-01 00:00:00.000000057,-35.18366344958746,25.64380543600268,6.866701509820014,0.4874519720472694
1970-01-01 00:00:00.000000057,-23.538680124880944,19.444638178485413,3.751460654609455,0.8286136439761658
1970-01-01 00:00:00.000000057,-13.422366537039403,11.018938379938518,1.2052491614702316,1.127168088071784
1970-01-01 00:00:00.000000057,-8.65561912689883,7.459368150855106,0.6829367760874001,1.3321334808901018
1970-01-01 00:00:00.000000057,-3.627481489068438,6.833504272271482,-2.066453627988314,1.3744771510107605
1970-01-01 00:00:00.000000057,-0.662692232706369,5.973589441313505,-3.798842490933191,1.4166305131667478
1970-01-01 00:00:00.000000057,0.7493473052834263,5.853215706125949,-3.102488564275036,1.3588904433519022
1970-01-01 00:00:00.000000057,2.1981068262286665,4.814036752670615,-2.467546615909449,1.3587522618456926
1970-01-01 00:00:00.000000057,3.649657578118542,3.5845520945973637,-1.81249458666332,1.3707347810261707
1970-01-01 00:00:00.000000057,5.094082388147303,2.607980896110987,-1.3306961293474464,1.3747365964412965
1970-01-01 00:00:00.000000057,6.461612495840827,1.6244239924087682,-0.822809013708286,1.3751838908259697
1970-01-01 00:00:00.000000057,7.681683598161135,1.0364123357252188,-0.3502018039768878,1.374712568586969
1970-01-01 00:00:00.000000057,9.18962403233279,0.63559408644141,-0.10575467939837666,1.3534791512191187
1970-01-01 00:00:00.000000057,10.598186284402729,0.197076597045987,0.06727405907387429,1.326211789110068
1970-01-01 00:00:00.000000057,11.61094409538519,-0.05506655928631371,0.43161368130633404,1.2982372375937352
1970-01-01 00:00:00.000000057,12.59875806946833,-0.23830855582266505,0.7818604781509229,1.2562974438022247
1970-01-01 00:00:00.000000057,13.334042285054911,-0.6246630063102526,1.1832206703839752,1.2109338626092916
1970-01-01 00:00:00.000000057,13.450144386298504,-0.7265537128057462,1.5661365239649685,1.1744944243247848
1970-01-01 00:00:00.000000057,13.249568256778385,-0.9010056901768868,1.6937470259382987,1.1762358193556786
1970-01-01 00:00:00.000000057,12.948008536952502,-1.303702576134971,1.46193052220449,1.2153087200415402
1970-01-01 00:00:00.000000057,12.458301151288817,-1.4957022490225507,1.0816386900276336,1.2748999141382824
1970-01-01 00:00:00.000000057,12.188476236437431,-1.7647759846411584,0.30779627137440524,1.3570098004524505
1970-01-01 00:00:00.000000057,12.056881626282042,-1.935874570015951,-0.5537645966459075,1.4162781402783087
1970-01-01 00:00:00.000000057,11.658375308804095,-1.5390058113126133,-1.2946087863370612,1.431870257466413
1970-01-01 00:00:00.000000057,10.957723237647238,-0.5443765121196941,-1.8277668111498482,1.4016633105474323
1970-01-01 00:00:00.000000057,10.05596393569341,0.6419262000102077,-1.754008898779476,1.298664019171227
1970-01-01 00:00:00.000000057,8.50709319376862,2.2567692080786506,-1.15008816021276,1.1271891786866393
1970-01-01 00:00:00.000000057,6.157821334611398,4.78914926127504,-0.550064583803617,0.7182893244570681
1970-01-01 00:00:00.000000057,2.800724234840974,7.807624308476446,0.05570785964408076,0.48314532784412423
1970-01-01 00:00:00.000000057,-1.414849925225174,10.317655330094997,0.3551250566999826,0.3367420739013183
1970-01-01 00:00:00.000000057,-6.208867572528901,12.468483687618484,0.23208275478578577,0.26746403508259253
1970-01-01 00:00:00.000000057,-11.19262299304862,15.5634026715133,1.6431077584248932,0.0759445932979601
1970-01-01 00:00:00.000000057,-15.573381272835674,19.945940656144213,4.834378935590154,-0.3052485190727887
1970-01-01 00:00:00.000000057,-18.90819729012246,22.91878510195766,7.826913560085689,-0.6667052666258027
1970-01-01 00:00:00.000000057,-22.82758350899073,21.583177605981675,9.714207695992897,-0.5147138864941447
1970-01-01 00:00:00.000000057,-24.070625556768697,19.289592477681136,10.919276449855996,-0.30882816652198564
1970-01-01 00:00:00.000000057,-23.245863847240706,15.643231071179915,10.01366822988979,0.04292445423154634
1970-01-01 00:00:00.000000057,-21.34221091085625,10.89974362561033,8.271862938602109,0.49904489626849236
1970-01-01 00:00:00.000000057,-18.436311161707447,6.635403186968199,6.562187479036117,0.8760033957474662
1970-01-01 00:00:00.000000057,-15.175482728909222,2.826443669195217,4.977500242037391,1.182507319638172
1970-01-01 00:00:00.000000057,-12.004867280689243,-0.19339016275871102,3.7083530119120356,1.3888874744826587
1970-01-01 00:00:00.000000057,-9.444513877986822,-2.340244785806999,3.3557643574609717,1.4843470533278853
1970-01-01 00:00:00.000000057,-7.533815687197713,-4.095229864021192,3.545273829543267,1.5456314394401631
1970-01-01 00:00:00.000000057,-5.903540102551233,-5.798418725835277,3.54917185713713,1.639403912547281
1970-01-01 00:00:00.000000057,-4.153891772347098,-7.613734798535105,3.130707248155445,1.7757744183933815
1970-01-01 00:00:00.000000057,-2.0854246095348756,-9.38125972788072,2.3710849497918556,1.906825774866903
1970-01-01 00:00:00.000000057,-0.13952523032190578,-11.042316478271609,1.2765477721973033,2.055642163046581
1970-01-01 00:00:00.000000057,1.7469884866111993,-12.412374461951961,0.4446156230362013,2.153582634952512
1970-01-01 00:00:00.000000057,3.250955134088585,-13.691219282593885,0.12864876161744854,2.2008229765695027
1970-01-01 00:00:00.000000057,4.036350896207097,-14.999014093489686,0.5304330152281849,2.229329091078235
1970-01-01 00:00:00.000000057,4.447420682234374,-16.010233575651654,1.464970315519522,2.2221494325795934
1970-01-01 00:00:00.000000057,4.7551228494516735,-16.56847281974265,2.4825851331611037,2.186684501993964
1970-01-01 00:00:00.000000057,5.055730288078836,-16.934874837945113,2.968485999285328,2.181149124773306
1970-01-01 00:00:00.000000057,5.487774612044364,-17.590085186178303,2.7495994661398058,2.246563769543204
1970-01-01 00:00:00.000000057,6.202556464317093,-18.5835824598276,2.184542315531134,2.3490746659958552
1970-01-01 00:00:00.000000057,7.1031496338152085,-19.599459694477694,1.5502245878903413,2.45479303109514
1970-01-01 00:00:00.000000057,8.19287272966837,-20.708393625734285,1.064957222843582,2.532932122969119
1970-01-01 00:00:00.000000057,9.052828500719889,-21.842394802631517,0.8883938266026035,2.5783069708482977
1970-01-01 00:00:00.000000057,9.375527643047912,-22.54028327504372,1.4176588656999884,2.53649814426914
1970-01-01 00:00:00.000000057,8.75002681644011,-22.190680213659075,2.4429689571877873,2.4208756183697457
1970-01-01 00:00:00.000000057,7.46867635242615,-20.637773192615267,3.512812279506693,2.256612136911222
1970-01-01 00:00:00.000000057,5.999041124802271,-18.63164300581273,4.050515570633399,2.1143643434345996
1970-01-01 00:00:00.000000057,4.648359283616417,-16.45728391735525,3.8104121745683908,1.9996884668571535
1970-01-01 00:00:00.000000057,3.1649804792817204,-14.370277239326365,2.925358666165604,1.9311290692220697
1970-01-01 00:00:00.000000057,1.4349834721809012,-12.489774552137423,1.7246988042221991,1.9003826785188687
1970-01-01 00:00:00.000000057,-0.5895273385885849,-11.049364145597435,0.9457805706201303,1.8926340576348282
1970-01-01 00:00:00.000000057,-2.5768894124376542,-10.371832251382521,0.5326017301318149,1.8811212892931006
1970-01-01 00:00:00.000000057,-5.161856707715744,-10.462094936962954,0.46247784770674377,1.8848117421076018
1970-01-01 00:00:00.000000058,-8.780805288149077,-9.477005034187552,0.08202617038003973,1.8456810441028302
1970-01-01 00:00:00.000000058,-13.568939739045241,-4.426081898869857,-1.006812160214867,1.6486948199605929
1970-01-01 00:00:00.000000058,-18.333361101752033,6.0517136544100145,-2.4370346064726496,0.957158268602778
1970-01-01 00:00:00.000000058,-26.668080641376662,15.884610612384169,-2.980862170102969,0.46599776081896527
1970-01-01 00:00:00.000000058,-35.29221851693004,20.23334341666252,0.10432655039217709,0.4845110942697606
1970-01-01 00:00:00.000000058,-36.04627389509156,22.923884162442775,4.805901555630774,0.33318359346434523
1970-01-01 00:00:00.000000058,-30.171596031927297,22.981347097951453,5.674833580297967,0.24042334198772286
1970-01-01 00:00:00.000000058,-22.94466029304102,19.174454425937604,3.516572056105594,0.46937286795597966
1970-01-01 00:00:00.000000058,-16.487506578879888,14.805743835463053,1.0994333676529515,0.7186248099845304
1970-01-01 00:00:00.000000058,-11.921398705734031,11.299265715691796,0.3867654546506607,0.861292869813798
1970-01-01 00:00:00.000000058,-8.625854700402625,8.916196796153038,0.9850002158526179,0.8872082669864818
1970-01-01 00:00:00.000000058,-6.154728980788401,8.31170373049382,0.8318963234234067,0.9261455729355341
1970-01-01 00:00:00.000000058,-3.102618985693951,7.96443181743746,-1.809171593163084,1.0425093765913933
1970-01-01 00:00:00.000000058,-0.6734660376499423,5.971567972276322,-3.185916706868027,1.1743795110515869
1970-01-01 00:00:00.000000058,0.7356317502261149,4.848572059724699,-2.879910866572229,1.2055653315636654
1970-01-01 00:00:00.000000058,2.1248782289449504,4.284100552146064,-2.4774537787266637,1.1792666370837137
1970-01-01 00:00:00.000000058,3.2237077748752636,3.3938110702844746,-1.6896729369823822,1.1654613758228032
1970-01-01 00:00:00.000000058,4.329341812909978,2.7345040597483266,-0.758009805583995,1.1330555084064518
1970-01-01 00:00:00.000000058,5.542184959952453,2.413515689508807,-0.30087466719691514,1.1119137818008638
1970-01-01 00:00:00.000000058,6.94671186717481,1.9525863356894155,-0.3434394300328941,1.119942662977583
1970-01-01 00:00:00.000000058,8.338739335335184,1.1170279534645826,-0.4112773643321721,1.1464099820138924
1970-01-01 00:00:00.000000058,9.558528056937183,0.31174526317613294,-0.15647255161394696,1.1468629907801724
1970-01-01 00:00:00.000000058,10.479760447759368,-0.10915758522151164,0.2772667332429987,1.1187983155989751
1970-01-01 00:00:00.000000058,11.19094578877381,-0.2092275618863399,0.942446851445579,1.0696233167236717
1970-01-01 00:00:00.000000058,11.947419694797668,0.0013864153720891115,1.4601712568692975,1.0115635210826541
1970-01-01 00:00:00.000000058,12.784822521682404,-0.21106027672937222,1.5244560303633503,0.99402998290666
1970-01-01 00:00:00.000000058,13.39101550109822,-0.7394254999340637,1.66072995007249,0.9969936885893476
1970-01-01 00:00:00.000000058,13.757819989040156,-1.1401471702128816,1.6785336728714104,0.9972399443440721
1970-01-01 00:00:00.000000058,13.730095486615218,-1.422914024835008,1.5313132884343337,1.0092781637402175
1970-01-01 00:00:00.000000058,13.344946500579658,-1.4576442069185302,1.2378124082694597,1.0333170541165353
1970-01-01 00:00:00.000000058,12.842723900611977,-1.204959428535621,0.6181418682708453,1.0779617148968386
1970-01-01 00:00:00.000000058,12.551731065271584,-0.9776496495118312,-0.19937125092519442,1.129419246190367
1970-01-01 00:00:00.000000058,12.383021056942894,-0.8987942201568796,-0.9583787551241998,1.1683041044309386
1970-01-01 00:00:00.000000058,12.010646110562087,-0.7392241070480456,-1.3762849497523915,1.1745210451816108
1970-01-01 00:00:00.000000058,11.286168267494334,-0.1797337293222758,-1.5707919473723218,1.1334463403514896
1970-01-01 00:00:00.000000058,10.015742393780924,1.0038734334395238,-1.4176376112073354,1.0051494464624242
1970-01-01 00:00:00.000000058,7.552398717835638,3.1379629228342294,-1.1017770645809302,0.8183944888396624
1970-01-01 00:00:00.000000058,3.8156694698776565,5.787422871210825,-0.5140457443514933,0.6169584243954678
1970-01-01 00:00:00.000000058,-0.9111203799645031,8.071454292409777,-0.5784583403575676,0.4976419464504688
1970-01-01 00:00:00.000000058,-6.647415095944123,10.53385781124973,-0.4623146579061824,0.42054820122449543
1970-01-01 00:00:00.000000058,-12.202543837001851,15.55562548642361,2.3088814519810716,0.029237645761996722
1970-01-01 00:00:00.000000058,-16.882696978896817,22.21400646303801,6.2980900022456945,-0.6759963407392986
1970-01-01 00:00:00.000000058,-23.468689257455754,22.164297252744205,11.181296845794732,-0.6302313245206874
1970-01-01 00:00:00.000000058,-24.701476167483754,15.932635735213044,13.432541208369722,-0.17047376310071471
1970-01-01 00:00:00.000000058,-22.515474227863027,9.708313383025486,11.063761565204867,0.4280447898793156
1970-01-01 00:00:00.000000058,-19.25945970540772,5.456202556482656,8.303398002169244,0.9512193239106254
1970-01-01 00:00:00.000000058,-14.058378149565819,0.5658575233250406,4.084686374683497,1.4207381210871108
1970-01-01 00:00:00.000000058,-9.912977482693712,-1.8476415028158233,1.563542038175913,1.5732771533929628
1970-01-01 00:00:00.000000058,-8.145290960133337,-3.0794510013297307,1.253675754088676,1.6396314026062453
1970-01-01 00:00:00.000000058,-6.589048265325449,-4.50075330709936,1.5824855482058884,1.7027122270241206
1970-01-01 00:00:00.000000058,-4.722197546973703,-5.958717869905098,1.705604467918271,1.7749284315537746
1970-01-01 00:00:00.000000058,-2.561238882044379,-7.473939732441921,1.6295245334838846,1.8402041568853167
1970-01-01 00:00:00.000000058,-0.5117563735303731,-9.039980599035168,1.3392322431381234,1.917417395402258
1970-01-01 00:00:00.000000058,1.2695883646068935,-10.48072122183319,0.6545612509200174,2.014040022711065
1970-01-01 00:00:00.000000058,2.732032061398389,-11.761871527213831,0.0115423949496678,2.098443365104562
1970-01-01 00:00:00.000000058,3.7700147639105652,-13.02231874022811,-0.2754253145668768,2.170581391885198
1970-01-01 00:00:00.000000058,4.462270419053361,-14.024057203368988,0.11865136732118553,2.2830907554330055
1970-01-01 00:00:00.000000058,4.799114217574776,-14.904038091987994,0.952199890985407,2.2885984600391662
1970-01-01 00:00:00.000000058,5.194165686132218,-15.90160678320893,1.8241101863827112,2.3349739592090724
1970-01-01 00:00:00.000000058,6.446180957733537,-17.574785842635894,1.4133343533653246,2.4627994471100125
1970-01-01 00:00:00.000000058,7.876031745537627,-19.500915131634105,0.20261319080728168,2.6198487455742416
1970-01-01 00:00:00.000000058,8.714788411669318,-20.842139759709106,-0.5849952497925428,2.7234414316577906
1970-01-01 00:00:00.000000058,9.06075815194881,-21.29511529463742,-0.8057418493313768,2.697354791547334
1970-01-01 00:00:00.000000058,8.108331575038031,-20.293393475392758,0.4125450379536171,2.530259456715246
1970-01-01 00:00:00.000000058,6.457589051153146,-18.512157997269814,1.8088084177767216,2.3265428799486405
1970-01-01 00:00:00.000000058,4.459343434197252,-15.754246063829685,2.330908629080663,2.1595664854474297
1970-01-01 00:00:00.000000058,2.8484063597827074,-13.692768722887376,1.6604415706457802,2.109011026863229
1970-01-01 00:00:00.000000058,1.6344793194652623,-12.265001747866814,0.9365214846181633,2.0617807426091677
1970-01-01 00:00:00.000000058,-0.0015054112608019476,-10.832599321795085,0.005317661766580273,2.0312899677929255
1970-01-01 00:00:00.000000058,-2.1581852882464294,-10.557996056172621,-0.885760732492406,2.0327740687145965
1970-01-01 00:00:00.000000058,-5.920034077715477,-11.08753642130608,-1.0250996655017142,2.091909457547553
1970-01-01 00:00:00.000000058,-10.607927609359711,-8.871909631285753,-0.6083525482480822,1.9749007693617413
1970-01-01 00:00:00.000000058,-15.539709817478785,-1.331804408485977,0.22180007772703275,1.445172326629713
1970-01-01 00:00:00.000000058,-21.522930618849287,8.306500326054868,0.24026437076843232,0.7806035700177046
1970-01-01 00:00:00.000000058,-30.12612305199322,13.021074529208567,1.4290992502618192,0.6374271775762637
1970-01-01 00:00:00.000000058,-36.401714694524514,15.452331257906703,4.785234681631315,0.7122913163585812
1970-01-01 00:00:00.000000058,-35.1615150939614,20.1798500396648,7.010217759175942,0.4249607659845609
1970-01-01 00:00:00.000000058,-30.063125431170818,22.834158985533932,5.921183988610265,0.2847303342021832
1970-01-01 00:00:00.000000058,-23.906064767222148,20.218368774756733,4.237676138306288,0.48122625896678994
1970-01-01 00:00:00.000000058,-17.281692685440124,15.977844497068856,2.662118309830533,0.7169670185587292
1970-01-01 00:00:00.000000058,-11.495279891941944,11.660171958180387,1.3662575391964085,0.9461643506840299
1970-01-01 00:00:00.000000058,-6.701747795502616,8.546979226249064,0.1770161009197847,1.1221930988443658
1970-01-01 00:00:00.000000058,-2.6075003031107187,6.7235505634699155,-2.72153940143667,1.310874527526096
1970-01-01 00:00:00.000000058,0.31876821132753896,4.811213698184192,-4.586252228964413,1.4362886515924178
1970-01-01 00:00:00.000000058,1.6699811412718573,4.071327537449612,-4.715162530656128,1.4535691119022636
1970-01-01 00:00:00.000000058,2.620416763195947,3.8884995579571937,-4.449266353749182,1.4264889112572705
1970-01-01 00:00:00.000000058,3.461307011259662,3.660431859855027,-3.6727576881113624,1.3964446209911663
1970-01-01 00:00:00.000000058,4.754644429708988,3.691303502255885,-3.467048381130284,1.3682004961182619
1970-01-01 00:00:00.000000058,6.266393910196707,3.7251435400537276,-3.7171677634065112,1.3578914096884103
1970-01-01 00:00:00.000000058,7.840188884356264,3.3451639263291257,-3.688889383711148,1.3450012090899324
1970-01-01 00:00:00.000000058,9.242807735809722,2.3813839150620946,-3.095744152565072,1.3367844764559
1970-01-01 00:00:00.000000058,10.50547028397305,1.416068527147044,-2.1823359887461313,1.3045881985057086
1970-01-01 00:00:00.000000059,11.51068726851124,0.8797170899443829,-1.3000767715441621,1.2568894517211842
1970-01-01 00:00:00.000000059,12.388654241285765,0.33107242299533673,-0.6749573213022797,1.2187483160968915
1970-01-01 00:00:00.000000059,12.93972058708101,-0.2500990426641097,0.01689172278884099,1.1825195057878126
1970-01-01 00:00:00.000000059,13.11522033990834,-0.7243834936303698,0.7403969178969008,1.1611832179567014
1970-01-01 00:00:00.000000059,13.268515668577422,-0.9110100527496902,0.87107029303383,1.1592144081361644
1970-01-01 00:00:00.000000059,13.35190896116593,-1.1626057548465185,0.4887831697810999,1.1904297739711607
1970-01-01 00:00:00.000000059,13.225204232446389,-1.3075543157785983,-0.2521336966164041,1.246722297899586
1970-01-01 00:00:00.000000059,12.962446387036259,-1.3816050972285012,-1.286637304476924,1.323369739751589
1970-01-01 00:00:00.000000059,12.648910310095461,-1.205129031431238,-2.196419246300838,1.36745674983976
1970-01-01 00:00:00.000000059,12.100280078493595,-0.7253931505492331,-2.8351967447800024,1.3719899032743141
1970-01-01 00:00:00.000000059,11.217065279851083,-0.048641945720208246,-3.2720487750813696,1.3506565227313156
1970-01-01 00:00:00.000000059,9.9401514824071,1.0010239345670953,-3.4211568639534478,1.2772413254214057
1970-01-01 00:00:00.000000059,8.00827765652382,2.7109014557165225,-2.9645732749768614,1.11201433681819
1970-01-01 00:00:00.000000059,5.0761144835342655,5.194833328500539,-1.8708036017002707,0.8412055238779546
1970-01-01 00:00:00.000000059,0.5643915450301948,8.631708296046218,-0.9650140886823999,0.5251864866216321
1970-01-01 00:00:00.000000059,-6.024032995915601,12.00793408952856,0.2120666320566662,0.32801483617381866
1970-01-01 00:00:00.000000059,-12.654829655700595,15.118352375530453,2.4766534085178993,0.20959614086376455
1970-01-01 00:00:00.000000059,-16.445931577486157,20.087594364870057,6.3075897130029785,-0.17636292128939157
1970-01-01 00:00:00.000000059,-17.287596144875817,25.096048924225713,8.67762229082629,-0.7794997709267109
1970-01-01 00:00:00.000000059,-21.104859847204615,22.277092993565955,9.759578543649187,-0.5062226929042035
1970-01-01 00:00:00.000000059,-22.642826824091898,18.47715882177648,11.672695307422353,-0.20427422127875028
1970-01-01 00:00:00.000000059,-21.232747607740563,16.001413249465365,11.298412811821064,-0.021421430069091363
1970-01-01 00:00:00.000000059,-19.884563103367373,10.796225979495755,9.869677677454092,0.4536644716078362
1970-01-01 00:00:00.000000059,-17.413488728806783,5.96911546838029,8.905311750899633,0.835331231427682
1970-01-01 00:00:00.000000059,-14.396430478862934,2.300551302078523,7.504399232142155,1.123480208732549
1970-01-01 00:00:00.000000059,-11.509906699176275,-0.3645881544094281,5.953109674789326,1.330818358688596
1970-01-01 00:00:00.000000059,-9.214523786234688,-2.1043081155822736,5.019685342720427,1.4412806278969836
1970-01-01 00:00:00.000000059,-7.588122451628421,-3.3685689465869353,4.661556598387228,1.5094624107416892
1970-01-01 00:00:00.000000059,-6.276906772808453,-4.413927768104394,4.275468487895283,1.5898719327759119
1970-01-01 00:00:00.000000059,-4.8656388373426935,-5.617759332963018,3.7158140340540964,1.6993430299633094
1970-01-01 00:00:00.000000059,-3.176306338682873,-7.072987790827707,2.9940968626347795,1.8275181037896555
1970-01-01 00:00:00.000000059,-1.2739345320853732,-8.413173433608662,2.314538842861281,1.925925154620436
