time,ax,ay,az,speed
1970-01-01 00:00:00.000000000,-1.648066002505075,1.6258524467627078,1.2625105381184614,0.7268615947260748
1970-01-01 00:00:00.000000018,-2.1881413360454114,1.3217749101518548,1.2913375692952833,0.593253650735533
1970-01-01 00:00:00.000000018,-2.3382403594318415,0.8368343157501817,1.878368021267454,0.6257572607724817
1970-01-01 00:00:00.000000018,-2.0022487758805223,0.2886509133939109,2.1904983032166183,0.6280977856380499
1970-01-01 00:00:00.000000018,-1.7186775600491861,-0.30458689012702916,2.503758929568813,0.6315618126684468
1970-01-01 00:00:00.000000018,-1.6625993909736856,-0.873290580774138,3.050199161191063,0.6232836196857476
1970-01-01 00:00:00.000000018,-1.7106310142389198,-1.0742190611104836,3.051658152254008,0.7071417457367459
1970-01-01 00:00:00.000000018,-1.3313632424824529,-1.3635046527256822,2.611690366150456,0.7966690289157001
1970-01-01 00:00:00.000000018,-1.214449907698227,-1.3966564807279807,1.8077318155631494,0.9566782139679281
1970-01-01 00:00:00.000000018,-1.1738115796162956,-1.1134054396305106,0.929883541353817,1.0764637327435633
1970-01-01 00:00:00.000000018,-1.2385520199127917,-1.1114184611868145,0.3529957290989126,1.2217205954432575
1970-01-01 00:00:00.000000018,-1.1655636248752406,-1.068287415305912,-0.07239325857559542,1.2966040385579474
1970-01-01 00:00:00.000000018,-1.1021262330969337,-0.9998924358532699,-0.3251643944205842,1.3290438590667781
1970-01-01 00:00:00.000000018,-1.0484089809485875,-0.9722303334040737,-0.5004673714519333,1.3541642727992649
1970-01-01 00:00:00.000000018,-0.9954223068072621,-0.9269491375162981,-0.6140772062411085,1.3667750322799104
1970-01-01 00:00:00.000000018,-0.8861616456677909,-0.793579068659347,-0.8177998861814356,1.3705850068608392
1970-01-01 00:00:00.000000018,-0.735286284891429,-0.5859459326067322,-1.052779936978403,1.3627660338680032
1970-01-01 00:00:00.000000018,-0.4976175579832011,-0.42179815206047416,-1.2520954525735557,1.3392669644630875
1970-01-01 00:00:00.000000018,-0.2548142097145256,-0.31754406914095046,-1.5187371786224462,1.3425082077464314
1970-01-01 00:00:00.000000018,0.00038109237056541123,-0.25125794022683556,-1.8531745957140642,1.3690945164349524
1970-01-01 00:00:00.000000018,0.28428281617371476,-0.22725470748226778,-2.277811296155861,1.4222154427246734
1970-01-01 00:00:00.000000018,0.6174515348517611,-0.24046538794025646,-2.7535766266400272,1.4848823082113
1970-01-01 00:00:00.000000018,0.9605066150570654,-0.20357133833188723,-3.2570181945520673,1.5413524047792326
1970-01-01 00:00:00.000000018,1.3120090065429229,-0.11261182596018088,-3.7925657052052615,1.5849876391143554
1970-01-01 00:00:00.000000018,1.5794699614990106,-0.011807665753958141,-4.3171155491510005,1.6384602453733157
1970-01-01 00:00:00.000000018,1.8045453825598496,0.0327826259359596,-4.780576346539126,1.7024228585238361
1970-01-01 00:00:00.000000018,2.066119769805008,0.009145145533585697,-5.146239227896467,1.7491696115051365
1970-01-01 00:00:00.000000018,2.279145726742867,-0.07162510360412733,-5.453644213740678,1.7994013422657198
1970-01-01 00:00:00.000000018,2.4148177803624287,-0.23391152625602385,-5.643043126512756,1.8537841434843059
1970-01-01 00:00:00.000000018,2.4921061251894203,-0.3962447220158395,-5.81077881881084,1.9105180123293344
1970-01-01 00:00:00.000000018,2.5073897628304365,-0.5584795194828767,-5.841768532690815,1.9464247353226332
1970-01-01 00:00:00.000000018,2.4724541483865186,-0.6978806947632776,-5.682149954582679,1.9377775478661712
1970-01-01 00:00:00.000000018,2.3057408937915977,-0.7707998831313247,-5.562780885047233,1.9470745102842395
1970-01-01 00:00:00.000000018,2.0944003860854066,-0.8281263962712437,-5.47734418818155,1.9788300805452947
1970-01-01 00:00:00.000000018,1.989470165768633,-1.1047760037682943,-5.341675383430441,2.025180574088778
1970-01-01 00:00:00.000000018,1.896283819172318,-1.4436855235251467,-5.19075098249235,2.0681916990253555
1970-01-01 00:00:00.000000019,1.6751824040823404,-1.6781605094520518,-4.862028521904426,2.0725740187805552
1970-01-01 00:00:00.000000019,1.3994337104571453,-1.8080262224597825,-4.275397099706397,2.00993491449602
1970-01-01 00:00:00.000000019,1.120210522068483,-1.7378182867978686,-3.6729639600044095,1.9064039800021062
1970-01-01 00:00:00.000000019,0.9312435667281004,-1.6361188036962482,-2.9176811030258927,1.7499273601735652
1970-01-01 00:00:00.000000019,0.8252715723309845,-1.772450515875161,-1.9394869245688289,1.5665797390360567
1970-01-01 00:00:00.000000019,0.572780979317967,-1.9325238704122432,-0.9109446058119285,1.3952529455465092
1970-01-01 00:00:00.000000019,0.15570599607431065,-1.8265055023028158,-0.07682894940055937,1.2444443708983168
1970-01-01 00:00:00.000000019,-0.2643932913583528,-1.5214613280713258,0.44822633568934844,1.1264145296265038
1970-01-01 00:00:00.000000019,-0.5755026476683468,-0.9737037559451428,0.7081866126908023,1.0080006259211103
1970-01-01 00:00:00.000000019,-0.5445317495501436,-0.6200321408996345,0.8213201485101925,0.9293668676857082
1970-01-01 00:00:00.000000019,-0.15583846395388776,-0.6630094347317257,0.8216120106976841,0.8803159711006859
1970-01-01 00:00:00.000000019,0.16490243173969873,-0.6627527899475378,0.4806739472365814,0.8988907148364671
1970-01-01 00:00:00.000000019,0.36534056287062083,-0.4083623618090565,-0.020461903267223247,0.9039434174209992
1970-01-01 00:00:00.000000019,0.33552129762306077,-0.0051194971053384886,-0.1752338536600374,0.8067495932164679
1970-01-01 00:00:00.000000019,-0.24334169671543382,0.7930774331106868,0.31208934759187895,0.5924936484636733
1970-01-01 00:00:00.000000019,-0.9381144058098304,1.81623855877833,1.2496746063252617,0.2798638388814899
1970-01-01 00:00:00.000000019,-1.3380484300932978,2.7736394499331034,2.2074008192188312,-0.06663764674057093
1970-01-01 00:00:00.000000019,-1.4677529422150204,3.5468143850152645,3.0749353081831874,-0.4130359493826026
1970-01-01 00:00:00.000000019,-1.626948979264258,4.211292172009368,3.5367957282581903,-0.6731332041648148
1970-01-01 00:00:00.000000019,-2.1695999537785453,5.131033660739597,3.6415087562898822,-0.8473446056715728
1970-01-01 00:00:00.000000019,-2.9369928012742013,6.548387384320786,3.5057114079294434,-1.0421438767130469
1970-01-01 00:00:00.000000019,-3.869548578431539,8.671584647399168,3.2588581892827357,-1.3531245782083554
1970-01-01 00:00:00.000000019,-5.114973373428649,11.430647528584469,2.8297091358319624,-1.7047137458912316
1970-01-01 00:00:00.000000019,-6.4566556792943235,14.124647003166768,2.8120368569654053,-2.0641416261759127
1970-01-01 00:00:00.000000019,-7.251740367438846,15.696304498053887,3.1067689433694174,-2.3243706638283976
1970-01-01 00:00:00.000000019,-7.526379105896325,15.965952164247064,3.6111023339659902,-2.462232021338124
1970-01-01 00:00:00.000000019,-7.797963833374238,15.233342904284116,4.99193304137839,-2.6156983887402308
1970-01-01 00:00:00.000000019,-8.61465305573299,14.210663693893189,7.297447225720776,-2.8440104762837946
1970-01-01 00:00:00.000000019,-10.160225398799062,13.661374177779436,9.49593940003091,-3.024530568079172
1970-01-01 00:00:00.000000019,-12.075699793244372,13.92383159262727,10.870309061592215,-3.0996658194813547
1970-01-01 00:00:00.000000019,-13.80579850144084,14.156284094647212,10.876610534451052,-2.8509847305310103
1970-01-01 00:00:00.000000019,-14.802922212629007,13.456972396400017,9.959308802139285,-2.2745319154093826
1970-01-01 00:00:00.000000019,-14.768957036253713,11.69675984301325,9.039516358170609,-1.6053311947674884
1970-01-01 00:00:00.000000019,-13.756989577865365,9.041706905547265,8.293796409056878,-0.9419902468285835
1970-01-01 00:00:00.000000019,-12.160473485858315,6.020371356639552,7.484031436240974,-0.2961041638338733
1970-01-01 00:00:00.000000019,-10.37559007299673,2.9778895407273147,6.494622186455388,0.358004196214459
1970-01-01 00:00:00.000000019,-8.4964398556417,0.19875793968054029,5.436879294737115,0.9695857142013073
1970-01-01 00:00:00.000000019,-6.346000116255269,-2.160937370806029,4.251606569993481,1.4625544416619247
1970-01-01 00:00:00.000000019,-4.169249659955426,-4.103166137931562,2.7973989085986695,1.9015415800768776
1970-01-01 00:00:00.000000019,-2.1386918814808276,-5.688970646787702,1.4637416687290892,2.2559024828667296
1970-01-01 00:00:00.000000019,-0.24483062625335172,-6.944724064787323,0.27794340763597014,2.5033992737678337
1970-01-01 00:00:00.000000019,1.2607916332524194,-7.933454014874991,-0.5741445749629632,2.6622595523540404
1970-01-01 00:00:00.000000019,2.2667016798482,-8.821986437062403,-0.8432990318601268,2.7554130954618046
1970-01-01 00:00:00.000000019,2.9985392711475995,-9.69862636419094,-0.38337586364102294,2.7367040026282856
1970-01-01 00:00:00.000000019,3.579254016798943,-10.663845662973394,0.3692304466719172,2.703931264515528
1970-01-01 00:00:00.000000019,4.122507319510652,-11.904420509183044,0.9233839506900328,2.7814827220929166
1970-01-01 00:00:00.000000019,4.687230602859168,-13.412994841058449,1.404649465868741,2.929872031797787
1970-01-01 00:00:00.000000019,5.290833362934375,-14.762121262280763,1.9864705648802,3.0006376294555475
1970-01-01 00:00:00.000000019,5.709661871890153,-15.463458538118145,2.430876488300635,2.979421221800706
1970-01-01 00:00:00.000000019,5.856714322311761,-15.688394377772903,2.710059508373455,2.947856804194367
1970-01-01 00:00:00.000000019,6.010111633107566,-15.757657811566682,2.856262087965658,2.9195008975249914
1970-01-01 00:00:00.000000019,6.282361494324663,-15.687473362320524,2.739910038906303,2.9008171570816756
1970-01-01 00:00:00.000000019,6.664111069431721,-15.511845058788246,2.4135868748028035,2.8860968118729957
1970-01-01 00:00:00.000000019,7.1006145231022,-15.461191242578531,2.0980875631528284,2.8862053017676907
1970-01-01 00:00:00.000000019,7.567532637256646,-15.540008328073629,1.8850874930810655,2.8830130545064976
1970-01-01 00:00:00.000000019,8.001125899755625,-15.649473656600787,1.768834708844868,2.8659636846113474
1970-01-01 00:00:00.000000019,8.348046036060188,-15.840144241776645,1.7790858041020576,2.844899144265188
1970-01-01 00:00:00.000000019,8.553415499110862,-15.888643114391245,1.9122597588897001,2.7833475234222034
1970-01-01 00:00:00.000000019,8.58459934790666,-15.70830669063793,2.0468408420686965,2.6916537001773913
1970-01-01 00:00:00.000000019,8.404149884986984,-15.240757427136693,2.0973230826617018,2.5774390429583827
1970-01-01 00:00:00.000000019,7.9268346513966295,-14.425562587054534,1.9474636447958769,2.4570382705918252
1970-01-01 00:00:00.000000019,6.982506061040786,-13.125608319502534,1.6080194306600588,2.3276749227484625
1970-01-01 00:00:00.000000019,5.470339936273496,-11.35875225161704,1.3261707709224737,2.1885509874079094
1970-01-01 00:00:00.000000019,3.71129597731161,-9.68980140389905,1.3194924545051125,2.0753593634181833
1970-01-01 00:00:00.000000019,2.1060277814650536,-8.104304576953057,1.4617065774201299,1.948989457481649
1970-01-01 00:00:00.000000019,0.9074159040723536,-6.789085855009825,1.4839214546626334,1.825948863304855
1970-01-01 00:00:00.000000019,-0.23015785558032587,-6.2102654039719996,1.594920802811557,1.783634511984241
1970-01-01 00:00:00.000000019,-1.9587572436802936,-6.278232249005059,1.6887880244786493,1.883287319393219
1970-01-01 00:00:00.000000019,-5.264772371047564,-5.558494776153307,1.7458664011229783,1.9998902105379126
1970-01-01 00:00:00.000000019,-10.46824873945854,-1.3860631463372939,1.8646683666389137,1.7200684818219183
1970-01-01 00:00:00.000000019,-16.214169251518697,6.391522649133009,1.356912322214439,0.8899481786349118
1970-01-01 00:00:00.000000019,-22.38744957563324,13.921528402908304,0.4863180631307076,0.2141426271947341
1970-01-01 00:00:00.000000019,-29.4826009912603,17.063839975992575,2.8477711289156233,0.4072550581182669
1970-01-01 00:00:00.000000019,-30.869481657728727,19.218195975322367,5.319547444022166,0.014045524324140413
1970-01-01 00:00:00.000000019,-27.123638624694944,19.689895539402617,5.892454041374219,-0.4743251637805652
1970-01-01 00:00:00.000000019,-20.334771546016444,16.736798019870076,5.354526104404214,-0.6767539591827669
1970-01-01 00:00:00.000000019,-14.067576679863535,12.770102931214094,3.4962027116633787,-0.2903232441357122
1970-01-01 00:00:00.000000019,-8.046751485589038,8.69920766055807,1.1861736481541907,0.17250946106035647
1970-01-01 00:00:00.000000019,-3.3475634061016666,5.675089336430212,-0.652928778923276,0.4559206812365366
1970-01-01 00:00:00.000000019,-0.3519063312734658,3.9405000587675088,-1.4029550433731564,0.49090112393025387
1970-01-01 00:00:00.000000019,1.4136033573590654,3.0627151889621995,-1.132554453482491,0.333969159444372
1970-01-01 00:00:00.000000019,2.572211162532242,2.6533430035292964,-0.525482240336536,0.1180556972795388
1970-01-01 00:00:00.000000019,3.543175136999653,2.2804021728222725,-0.1026097691101614,-0.002352510508711214
1970-01-01 00:00:00.000000019,4.807879284250645,1.6735100347945706,-0.23898715351542732,0.01567744700191409
1970-01-01 00:00:00.000000019,6.427676493784867,0.6850007348994505,-0.8194114075387956,0.14753210372297276
1970-01-01 00:00:00.000000019,8.196600133723239,-0.32063123964462037,-1.5272618971675354,0.26680486227693057
1970-01-01 00:00:00.000000019,9.787314973568959,-1.2378054920183015,-2.0624211026990777,0.35169444693405205
1970-01-01 00:00:00.000000019,11.18531529767589,-2.1374649608177028,-2.195455791675843,0.38285384486875007
1970-01-01 00:00:00.000000019,12.526088970081696,-3.012315734773469,-2.0034525572623965,0.38804863570270876
1970-01-01 00:00:00.000000019,14.41095031538562,-3.7840154705585602,-1.4867188469015635,0.19676028250595534
1970-01-01 00:00:00.000000019,16.519930403842235,-4.228972592023867,-0.585826930795802,-0.3321350738638498
1970-01-01 00:00:00.000000019,16.86026720753427,-3.9592927388208548,-0.14165650931979368,-0.7841989456702141
1970-01-01 00:00:00.000000019,14.132379033627744,-1.889586097836954,-0.0815535625367596,-0.8676346450352959
1970-01-01 00:00:00.000000019,11.596340858060948,-0.242657182930323,-0.36841495932524815,-0.7588051945407639
1970-01-01 00:00:00.000000020,9.86991256574943,1.0200652112697999,-0.6834272866941111,-0.7466259991200457
1970-01-01 00:00:00.000000020,7.995067672098253,3.0013761342380043,-0.7421635343929338,-0.9918819787838571
1970-01-01 00:00:00.000000020,5.1486471328086125,5.681105942025685,-0.19097261304491164,-1.4289153432798742
1970-01-01 00:00:00.000000020,0.9007766397471979,9.531458917683993,0.7288775994082459,-2.0046011166511137
1970-01-01 00:00:00.000000020,-4.6868616056838714,14.365474445925281,1.817857407550794,-2.556868639922728
1970-01-01 00:00:00.000000020,-10.55520985550502,18.91952573741215,2.436447019576163,-2.75642099025599
1970-01-01 00:00:00.000000020,-14.81776142078506,21.042161819214083,2.7966534760148285,-2.594800186085171
1970-01-01 00:00:00.000000020,-17.52786816962326,21.23265334598647,3.5870067974438182,-2.348117513528636
1970-01-01 00:00:00.000000020,-20.326343749691212,21.39101730585853,5.204068838405457,-2.5141405221506936
1970-01-01 00:00:00.000000020,-25.3930412055142,20.523878029485118,7.871915956797753,-2.1959190936478805
1970-01-01 00:00:00.000000020,-30.20662713226719,18.75857224645216,11.592544751347923,-1.6320988765288278
1970-01-01 00:00:00.000000020,-31.017303328892112,16.236493065901403,12.655712770776423,-0.9531367578523156
1970-01-01 00:00:00.000000020,-29.0752608579537,11.100343047131458,11.83530257386098,0.2597023023613402
1970-01-01 00:00:00.000000020,-24.96820300538499,5.45162763018428,10.376315147006064,1.3326507187433123
1970-01-01 00:00:00.000000020,-20.01125178417607,0.800248734915824,8.53185216237439,2.0672062443787533
1970-01-01 00:00:00.000000020,-15.321016999915551,-2.92160780711707,6.906997217442453,2.5439152334217585
1970-01-01 00:00:00.000000020,-11.369678961231871,-5.856396464035084,5.784335771614461,2.8344614946501734
1970-01-01 00:00:00.000000020,-8.177308379295091,-7.839130301251344,4.882035036726425,2.9872049163106005
1970-01-01 00:00:00.000000020,-5.541356115853091,-9.196809529966261,4.133922359783996,3.062076759120245
1970-01-01 00:00:00.000000020,-3.24885782921121,-10.426410731672332,3.5321849536072865,3.125877229700591
1970-01-01 00:00:00.000000020,-1.2890778173959831,-11.505706906166798,2.7956447066323817,3.2858751354135913
1970-01-01 00:00:00.000000020,1.1324659557394183,-12.468197715103196,2.4597001451948204,3.2409228197933375
1970-01-01 00:00:00.000000020,3.508393583373625,-13.773875243652485,2.228015371594126,3.219490530571636
1970-01-01 00:00:00.000000020,5.465176077918901,-15.45695354597493,2.166195205386202,3.2934951967795048
1970-01-01 00:00:00.000000020,6.95595511464165,-17.036590532504544,2.2865351389996493,3.3708531212405353
1970-01-01 00:00:00.000000020,7.99365627080425,-17.999803575126734,2.3514408041247954,3.389419706834337
1970-01-01 00:00:00.000000020,8.58022831364438,-18.36622666441872,2.294245903867666,3.374051668383306
1970-01-01 00:00:00.000000020,8.817082606726274,-18.37509216435773,2.106422800123385,3.36189291293528
1970-01-01 00:00:00.000000020,8.803547536687095,-18.011761185917003,2.0786702867876468,3.285250941791844
1970-01-01 00:00:00.000000020,8.73864495388895,-17.516186698320865,2.193948100223176,3.154849046124106
1970-01-01 00:00:00.000000020,8.59854005359935,-17.15559699948058,2.427611088503718,3.0540493464237795
1970-01-01 00:00:00.000000020,8.606421390972564,-16.911789376329477,2.6246942007029515,2.966319592242222
1970-01-01 00:00:00.000000020,8.733598585811148,-16.950011114246617,2.7018373776444866,2.937978064883831
1970-01-01 00:00:00.000000020,8.855480190531235,-17.067369629436488,2.7460560745914417,2.9189226121135983
1970-01-01 00:00:00.000000020,8.766739722962232,-16.998533562026587,2.8121119548361495,2.8820611542940244
1970-01-01 00:00:00.000000020,8.459875519216911,-16.63599939276832,2.938003858497863,2.7924590799380207
1970-01-01 00:00:00.000000020,7.862672319752693,-15.913111955638312,3.024330311686694,2.663365464711908
1970-01-01 00:00:00.000000020,6.859776156989868,-14.7345994680916,3.0023384984177444,2.5405257822572205
1970-01-01 00:00:00.000000020,5.802142487764058,-13.340717453235104,2.8691653751917814,2.399880259431422
1970-01-01 00:00:00.000000020,4.62937721700855,-12.053654254538534,2.626244146477846,2.306052110707988
1970-01-01 00:00:00.000000020,3.133609538500215,-11.038062258466077,2.3593117405494817,2.3221052641225066
1970-01-01 00:00:00.000000020,1.3496360004461496,-10.1087804630632,1.940419109339672,2.394729655180623
1970-01-01 00:00:00.000000020,-1.1792732618638453,-8.854515223160766,1.5764992327013954,2.518783820432578
1970-01-01 00:00:00.000000020,-4.027115097139011,-7.377084182370448,1.4611065535052794,2.587173250005005
1970-01-01 00:00:00.000000020,-7.252983043109337,-6.2450115575853165,1.4551238551974182,2.8053334465580253
1970-01-01 00:00:00.000000020,-10.256157417069948,-5.822572500012933,1.242892909244794,3.211178553080157
1970-01-01 00:00:00.000000020,-12.6348474389162,-3.4957013167758673,-0.17827067960076115,3.2539254861919575
1970-01-01 00:00:00.000000020,-15.88361983640543,2.622699493584766,-1.8721387119449617,2.4675654942223684
1970-01-01 00:00:00.000000020,-22.56655090687376,8.137804239754628,-1.290257946723505,1.8382528276007322
1970-01-01 00:00:00.000000020,-31.911917765277668,9.724281818733937,3.6614409893540705,1.9302210635401473
1970-01-01 00:00:00.000000020,-37.75955977378762,13.025302270666531,9.25666206388795,1.2739066661869205
1970-01-01 00:00:00.000000020,-37.54974733842792,18.847453543663185,10.657008790021283,-0.007473648493506291
1970-01-01 00:00:00.000000020,-33.525498658202785,21.683819739374368,9.560451597821718,-0.7591254707776944
1970-01-01 00:00:00.000000020,-27.165078646862145,20.004134093765842,8.613639025487021,-0.9617660145829214
1970-01-01 00:00:00.000000020,-19.513332653058026,16.09317645013856,7.4231777481633205,-0.9044878915269212
1970-01-01 00:00:00.000000020,-11.979755503903766,11.670499505771266,5.471029620719917,-0.6618442372478468
1970-01-01 00:00:00.000000020,-5.931934932692745,7.766136202116686,3.3004480077053615,-0.3207871441349137
1970-01-01 00:00:00.000000020,-1.8201968991764252,5.273510534437043,1.6493991703818656,-0.10238269773839659
1970-01-01 00:00:00.000000020,0.760599242544606,4.310914157552773,0.6755955224741261,-0.11258639133375214
1970-01-01 00:00:00.000000020,2.3069609865762155,4.211154972409502,0.18166318934106074,-0.20877324175202006
1970-01-01 00:00:00.000000020,3.6648199388873857,4.220003917281497,-0.19095559048835464,-0.30586394259496497
1970-01-01 00:00:00.000000020,5.132753030707876,3.793677307064987,-0.5227376196520257,-0.34613332183877676
1970-01-01 00:00:00.000000020,6.55528454988969,3.2553690740332923,-0.8768744395554753,-0.35495667289204436
1970-01-01 00:00:00.000000020,7.834907946906118,2.951231913719557,-1.8029280264605385,-0.24905925076182966
1970-01-01 00:00:00.000000020,9.232874192836805,2.1509315672061087,-3.0791433040679372,-0.007910753267424964
1970-01-01 00:00:00.000000020,10.37651758499613,0.9150243559297628,-3.542837228289595,0.2152662412241938
1970-01-01 00:00:00.000000020,11.602245089899771,-0.308042863729565,-3.690230766378245,0.3460237332925503
1970-01-01 00:00:00.000000020,12.783929018139355,-1.3533674344302966,-3.714579221725832,0.39488217347110055
1970-01-01 00:00:00.000000020,13.685740146924044,-2.115202075384225,-3.2357324297153633,0.32216411452989446
1970-01-01 00:00:00.000000020,14.497129774410684,-2.4065086636613433,-2.2996164433069692,0.042822229717185856
1970-01-01 00:00:00.000000020,14.98146061463026,-2.3963777848601047,-1.1397574809612059,-0.31311647995531056
1970-01-01 00:00:00.000000020,15.06501748498374,-2.2784752132970114,-0.20661922838149804,-0.5910575006471177
1970-01-01 00:00:00.000000020,14.718000423064273,-2.0572230631396837,0.12626822567955287,-0.6915127528985348
1970-01-01 00:00:00.000000020,14.044531899665099,-1.639085301608004,-0.5066764884040693,-0.5636312641482548
1970-01-01 00:00:00.000000020,13.210992248996053,-1.0253214168037892,-2.133774749116328,-0.21507934203230938
1970-01-01 00:00:00.000000020,12.520949370664848,-0.4822880165530664,-4.042936802195283,0.20748733841653977
1970-01-01 00:00:00.000000020,12.200092770784423,0.0020452893067310907,-5.5270185907206235,0.4544311723135871
1970-01-01 00:00:00.000000020,11.677589690944625,0.7617611363013629,-6.212314838794902,0.42509799611600196
1970-01-01 00:00:00.000000020,10.133895030059216,2.255007713768843,-5.765979733802757,0.10141041935659167
1970-01-01 00:00:00.000000020,7.2927791491923895,4.92290635686613,-4.419678752471045,-0.49886407848022873
1970-01-01 00:00:00.000000020,3.0953310022904033,8.024920558141554,-2.703889946390257,-1.0705905281989667
1970-01-01 00:00:00.000000020,-2.261064795045453,10.526139760634022,-1.0591587523886004,-1.2421957616153516
1970-01-01 00:00:00.000000020,-7.506402763719327,12.353315398751798,0.2790660516722294,-1.157539242042552
1970-01-01 00:00:00.000000020,-11.786383263973903,15.620492384666033,1.4510585265396263,-1.515554020933022
1970-01-01 00:00:00.000000020,-15.571270656965975,20.703329459786055,3.4528646374511625,-2.5703754769963574
1970-01-01 00:00:00.000000020,-19.81248376979341,23.048376984485714,6.955260639571676,-3.316916529440083
1970-01-01 00:00:00.000000020,-24.911737786201414,19.303930356258338,12.040253865915204,-2.646596209357648
1970-01-01 00:00:00.000000020,-26.387176319232694,15.737323145948666,14.211174251597686,-1.9229072381591252
1970-01-01 00:00:00.000000020,-25.526283583828857,12.2897151556249,12.09737149849127,-0.6972852760704911
1970-01-01 00:00:00.000000020,-23.17064543877452,7.897734965497901,9.730605117240591,0.5476470674283963
1970-01-01 00:00:00.000000020,-19.81444868118212,3.7271104783775644,7.906948232563817,1.4004310357951788
1970-01-01 00:00:00.000000020,-16.65407356796825,0.559510513696308,6.332259724982402,1.9779468356403123
1970-01-01 00:00:00.000000020,-13.93581162973334,-1.4868117853010725,5.197579165237087,2.2763417233683727
1970-01-01 00:00:00.000000020,-11.621758559929702,-2.929414923361673,4.526391529882622,2.395986862368039
1970-01-01 00:00:00.000000020,-9.69867746482601,-4.18804363386845,4.18433965318934,2.4733444457631837
1970-01-01 00:00:00.000000020,-7.921185303464595,-5.373431974584287,3.9751103227322635,2.5473377633398893
1970-01-01 00:00:00.000000020,-5.990574108528106,-6.516556769199425,3.7717019712895006,2.571531448720254
1970-01-01 00:00:00.000000020,-4.1871028933699606,-7.420250431020652,3.014193264864881,2.6760550884861907
1970-01-01 00:00:00.000000021,-2.493231323265941,-7.941234537213501,2.250486511206346,2.7096196451501156
1970-01-01 00:00:00.000000021,-0.9802012833359417,-8.735111983818392,2.256912627631786,2.6303387940911924
1970-01-01 00:00:00.000000021,-0.036339192567535816,-10.054170104957684,3.2887733557774723,2.550840089836748
1970-01-01 00:00:00.000000021,0.7816805841064121,-11.437763320541285,4.829685507858204,2.4207545345981183
1970-01-01 00:00:00.000000021,1.816038210243378,-12.451508312908492,5.92666659314253,2.26215695466006
1970-01-01 00:00:00.000000021,2.8394905794892837,-13.323020372701253,6.370253262276503,2.226117370108794
1970-01-01 00:00:00.000000021,3.978213240557647,-14.136527060541894,6.203686177806214,2.3652201013594603
1970-01-01 00:00:00.000000021,5.938090798288341,-15.34101062869209,4.901473171728679,3.0457183734331035
1970-01-01 00:00:00.000000021,8.366517085420973,-16.959505686164377,3.1223436868477994,3.4026602473946235
1970-01-01 00:00:00.000000021,9.968668154648912,-18.236156008402848,1.9812932625051618,3.7028252336456733
1970-01-01 00:00:00.000000021,11.412862242554295,-19.379669721141447,1.1596112203624938,3.907887918690891
1970-01-01 00:00:00.000000021,12.505062930031992,-20.154526346950597,0.688609802747961,3.9677787245551057
1970-01-01 00:00:00.000000021,12.812507318136534,-20.423844160017346,0.8015509403405634,3.8880651688855585
1970-01-01 00:00:00.000000021,12.25281651334121,-20.164754587574162,1.5777769723914252,3.6817222593794883
1970-01-01 00:00:00.000000021,11.011193991143873,-19.157332281823386,2.4156247368895727,3.432863295103063
1970-01-01 00:00:00.000000021,9.620535832299648,-17.464060698701214,2.763247246582914,3.1719730694401305
1970-01-01 00:00:00.000000021,8.1900023973392,-15.647710866971304,2.6666466369868878,2.9822353339984193
1970-01-01 00:00:00.000000021,6.684603281221105,-13.814971430655865,2.1953732309314535,2.854772265466182
1970-01-01 00:00:00.000000021,4.778351579815604,-11.741080973206518,1.473867385693065,2.7592826591997266
1970-01-01 00:00:00.000000021,2.1682983870337296,-9.491658438405185,1.3016025902959278,2.6456459785218374
1970-01-01 00:00:00.000000021,-0.7292266910140952,-8.83044648809623,1.4976529279346649,2.7986391746084247
1970-01-01 00:00:00.000000021,-4.3175191016204115,-8.744633506973598,1.3207896971596096,3.150605007205651
1970-01-01 00:00:00.000000021,-9.844694870452168,-7.087843584338428,1.1004835112275169,3.5017406738775763
1970-01-01 00:00:00.000000021,-16.216075414663184,-0.37762477261054106,1.1417836035364985,2.943141723123083
1970-01-01 00:00:00.000000021,-21.89721573165532,11.051791638869526,-1.1125093007264906,1.4201328035419294
1970-01-01 00:00:00.000000021,-31.867837047127427,17.668450397931878,-1.787083347307504,1.5901253864339195
1970-01-01 00:00:00.000000021,-40.031948967338,21.143263240192447,1.5081530583251663,1.957376803155841
1970-01-01 00:00:00.000000021,-38.92433231254779,25.2998190013699,2.607377836192683,1.4064402509601497
1970-01-01 00:00:00.000000021,-28.983851490853333,22.259377669284717,1.448576391366859,1.1212678833384835
1970-01-01 00:00:00.000000021,-17.097108236400903,14.094741272341327,0.020547933736708268,1.1813858402839283
1970-01-01 00:00:00.000000021,-10.207167488301602,9.218390949354985,-0.7240279150517821,1.493134107832201
1970-01-01 00:00:00.000000021,-2.953069214954585,5.3757259341180825,-3.7453900662599966,1.7543766831409842
1970-01-01 00:00:00.000000021,1.315511776467912,2.9938440314569252,-5.333869114344454,1.7399011346787305
1970-01-01 00:00:00.000000021,1.9307241195163851,2.408511842867852,-4.068627093391337,1.4706329189143448
1970-01-01 00:00:00.000000021,2.0490935803266743,2.4993346706009767,-3.05570346259574,1.2277766587151082
1970-01-01 00:00:00.000000021,2.3603508014920562,2.7013194529569655,-2.807571207095293,1.1043620940725667
1970-01-01 00:00:00.000000021,2.933932903805181,2.5888966301543874,-2.5961130580599474,1.039835990242038
1970-01-01 00:00:00.000000021,3.982394554500752,1.6435865589698542,-1.842784362764712,0.9631366783017212
1970-01-01 00:00:00.000000021,5.368820218464531,0.5980238809737449,-0.8489813176451744,0.822167780927449
1970-01-01 00:00:00.000000021,7.236143794206696,-0.14962082162392698,-0.23239026259980367,0.629944395875357
1970-01-01 00:00:00.000000021,9.533734427022184,-0.6502017543696121,-0.43797146209890314,0.47114525623819103
1970-01-01 00:00:00.000000021,11.907814715097281,-0.7784607271819958,-0.9654733948968228,0.2655733798101154
1970-01-01 00:00:00.000000021,14.042066315990635,-0.8876326125081657,-1.1492049330794325,-0.022828696248891944
1970-01-01 00:00:00.000000021,15.4608148217958,-1.4040785353597043,-0.5295185230693034,-0.30117686527103693
1970-01-01 00:00:00.000000021,16.16110714318835,-1.9754818044306823,0.3992108479818173,-0.5147105902151243
1970-01-01 00:00:00.000000021,16.409547509109235,-2.2703518744230236,0.9717897284238228,-0.6352007226108511
1970-01-01 00:00:00.000000021,16.354002499206754,-2.3637054287435704,1.049425195710306,-0.6281655059489695
1970-01-01 00:00:00.000000021,16.265203984026762,-2.560910308076864,0.8514749493316791,-0.5392535063530688
1970-01-01 00:00:00.000000021,16.09329782851403,-2.4050041299021636,0.566267195674865,-0.5085803680734735
1970-01-01 00:00:00.000000021,15.68307585942152,-1.5846935159852362,0.22724701718583562,-0.6056787102539218
1970-01-01 00:00:00.000000021,14.699654638227528,-0.39956363913155624,0.3015594309105438,-0.8153576081335385
1970-01-01 00:00:00.000000021,12.913084502937854,1.2780079745674202,0.8963903325339326,-1.1302139561362974
1970-01-01 00:00:00.000000021,10.422715118124646,3.765463579596156,1.5106641746490874,-1.5435045423221043
1970-01-01 00:00:00.000000021,7.040110224752295,6.9558053390576955,1.9578390475186458,-1.9308819839527631
1970-01-01 00:00:00.000000021,3.0469108972082317,10.584731548063978,2.3944410814570594,-2.249628013219666
1970-01-01 00:00:00.000000021,-0.5931530827929192,13.09450757063976,3.4546312637932335,-2.4992832229256963
1970-01-01 00:00:00.000000021,-3.8732573734578155,13.462540217324301,4.876170399074302,-2.4382216095797205
1970-01-01 00:00:00.000000021,-7.106036703662514,12.567677871498766,5.875569085596178,-2.1118706232626336
1970-01-01 00:00:00.000000021,-11.314794938967232,12.519739912143578,7.669172511024081,-2.1300775814296773
1970-01-01 00:00:00.000000021,-18.017648447802195,15.808712796456172,11.0355017521314,-2.759580997180578
1970-01-01 00:00:00.000000021,-26.053422976432998,19.550753897445524,14.524623101797582,-3.0961309990910273
1970-01-01 00:00:00.000000021,-32.702869466835686,17.917304174859837,16.73498373669127,-1.9330641999094345
1970-01-01 00:00:00.000000021,-34.54035725746016,14.65747583509546,15.010954800194506,-0.3583553490551923
1970-01-01 00:00:00.000000021,-33.656325862215,11.177545920304647,11.903798416147506,1.147702361087302
1970-01-01 00:00:00.000000021,-30.654786265274666,7.220526202633035,9.725864625291265,2.2278113259959884
1970-01-01 00:00:00.000000021,-26.038769970811693,2.8525883208615475,8.520473236790915,2.8763602489593834
1970-01-01 00:00:00.000000021,-20.876362929187486,-1.3794916297815443,7.398062677653351,3.302295343578085
1970-01-01 00:00:00.000000021,-16.305111627909906,-4.825602124168517,6.250479260644945,3.606104266525116
1970-01-01 00:00:00.000000021,-12.755565766764796,-7.1159688679567115,4.6606742145723,3.9055467454926966
1970-01-01 00:00:00.000000021,-10.01950152413961,-8.045878631252146,2.5974032122183464,4.150566579269029
1970-01-01 00:00:00.000000021,-7.724424026214999,-8.084097177626226,0.7578695135492102,4.2456379310775105
1970-01-01 00:00:00.000000021,-5.436598660164137,-8.140436791550886,-0.05061797328487261,4.113195971009468
1970-01-01 00:00:00.000000021,-3.2538494969677827,-8.73724388436028,0.34589751764618226,3.82833563414597
1970-01-01 00:00:00.000000021,-1.4092351530285938,-9.596599300961834,1.5583997349468535,3.467644974227011
1970-01-01 00:00:00.000000021,0.10502311662431918,-10.624792256068478,3.227040311460438,3.0914536936059633
1970-01-01 00:00:00.000000021,1.2898987937276094,-11.986989363654624,4.8574909237165365,2.83463704044665
1970-01-01 00:00:00.000000021,2.0755784991891946,-13.541029761842736,6.408105429649686,2.723867237297692
1970-01-01 00:00:00.000000021,2.8341008674601493,-15.117928634831566,7.414241248092727,2.7598939759396206
1970-01-01 00:00:00.000000021,3.778981919382746,-16.316905437095386,7.352546210368098,2.916638092667074
1970-01-01 00:00:00.000000021,4.838647501842906,-17.08112172576253,6.4619028728272605,3.143961005133116
1970-01-01 00:00:00.000000021,5.997724544353654,-17.742411473201653,5.249801041259995,3.398508769299192
1970-01-01 00:00:00.000000021,7.151682093467791,-18.70231754924854,4.294395742626675,3.674676305460048
1970-01-01 00:00:00.000000021,8.466852758750768,-20.19031539990567,3.9787309662626362,3.8948284728053775
1970-01-01 00:00:00.000000021,9.804008485045912,-22.397660605225777,4.41987798944281,4.071460141344319
1970-01-01 00:00:00.000000021,10.806626088021162,-25.241287343044867,6.163208346838848,4.137058979718374
1970-01-01 00:00:00.000000021,11.372871418890663,-27.304599677040557,8.049245355151827,3.988860329077938
1970-01-01 00:00:00.000000021,10.541702471873634,-27.72853219144758,8.92078798786255,3.8637716890689275
1970-01-01 00:00:00.000000021,7.9647477085429195,-26.10743864479708,8.570361164383817,3.8885361611106743
1970-01-01 00:00:00.000000021,4.860595966768327,-22.52273877693238,7.378535891640755,3.8235071401399976
1970-01-01 00:00:00.000000021,2.118704024305868,-18.324421393167974,5.332194849125906,3.8254735999593645
1970-01-01 00:00:00.000000021,0.5605568386211286,-14.84037828441085,2.9869855889503825,3.9077706510346006
1970-01-01 00:00:00.000000021,0.43031848244785653,-13.02925547143717,0.6529528670220173,4.068100830542762
1970-01-01 00:00:00.000000021,0.6150006025931853,-12.877608413909238,-1.2853471488710073,4.30009284218539
1970-01-01 00:00:00.000000021,-0.8511503587684737,-13.463267118355155,-1.6544213007821615,4.534540532300165
1970-01-01 00:00:00.000000021,-4.434941260208833,-12.969640254575946,-0.9730644451436228,4.590695095104292
1970-01-01 00:00:00.000000022,-10.193811544829629,-9.721697153305016,-0.6229961162041695,4.456779675488034
1970-01-01 00:00:00.000000022,-17.334780243864888,-2.078723329468202,0.339628862822287,3.4770457363442446
1970-01-01 00:00:00.000000022,-25.309911540686915,9.065027667323855,0.7618358220660654,1.9395456535477757
1970-01-01 00:00:00.000000022,-34.748721622447896,17.202841005632088,2.598308991381171,1.3062876059460717
1970-01-01 00:00:00.000000022,-40.677064514232704,20.677523288307764,7.408350748790768,0.8932935486420565
1970-01-01 00:00:00.000000022,-39.08362986321676,22.481682728261184,10.568556175553018,0.001263195053851307
1970-01-01 00:00:00.000000022,-32.64339455789998,21.734554182446928,9.349309798843287,-0.40531343640497663
1970-01-01 00:00:00.000000022,-25.587129916354034,18.956045795513937,6.71757399092397,-0.2927303421997325
1970-01-01 00:00:00.000000022,-19.636449794852297,16.092157352630753,5.038663012305594,-0.18770070870592792
1970-01-01 00:00:00.000000022,-14.650857900035911,13.528629759532647,4.0727543753424715,0.018468279236260043
1970-01-01 00:00:00.000000022,-9.990027901511198,11.09579678232127,2.8406557495120244,0.19005184762491645
1970-01-01 00:00:00.000000022,-5.283791455286394,8.734541836477845,1.3016093348176125,0.37834705194169027
1970-01-01 00:00:00.000000022,-0.8523693677742648,6.421948525245918,-0.26208798677035317,0.549191249436239
1970-01-01 00:00:00.000000022,2.700374239319438,4.283723965907013,-1.2523293568715406,0.6642292755519337
1970-01-01 00:00:00.000000022,5.23842046550259,2.6834070208869663,-1.6059961821173623,0.6685646290787428
1970-01-01 00:00:00.000000022,6.828995407344066,1.8154286735134186,-1.712404484824774,0.6229357570160736
1970-01-01 00:00:00.000000022,7.898460021607382,1.4481315801707662,-2.013960491956499,0.6044221985197054
1970-01-01 00:00:00.000000022,8.744325144811313,1.3680773866224798,-2.58057540247491,0.6191739705110919
1970-01-01 00:00:00.000000022,9.49246816191435,1.6027415229195399,-3.048791710581711,0.5648156415331755
1970-01-01 00:00:00.000000022,10.210039120495328,1.888877756258361,-3.253866759178172,0.4525393469071324
1970-01-01 00:00:00.000000022,10.988360196646326,1.9532191688469818,-2.9993495144383786,0.2987649697196839
1970-01-01 00:00:00.000000022,12.070318396377926,1.7525385172284786,-2.5740714160408027,0.10737052211074061
1970-01-01 00:00:00.000000022,13.22134409679601,1.1605686840825424,-2.205330830902946,-0.015756013000094438
1970-01-01 00:00:00.000000022,14.229579362398228,0.4321504122557085,-1.8705265590833462,-0.09469144188839129
1970-01-01 00:00:00.000000022,14.936869035830794,0.04354138387912032,-1.7628373272891786,-0.16610700895954644
1970-01-01 00:00:00.000000022,15.215094818133673,0.3218384666610459,-2.147709763544163,-0.2230693138690294
1970-01-01 00:00:00.000000022,14.973599911471252,1.189368628549731,-2.93205487582195,-0.22473608095427822
1970-01-01 00:00:00.000000022,14.514034625282024,2.1698075327478907,-4.139078855082737,-0.1273548713613022
1970-01-01 00:00:00.000000022,13.86770299955008,3.045217908866836,-5.4232910581884255,0.024694679392222474
1970-01-01 00:00:00.000000022,12.957452178935132,3.931739026249346,-5.909116696412589,0.013531206512945815
1970-01-01 00:00:00.000000022,11.47108783767572,4.995034465815455,-5.239561079000993,-0.18729646562272295
1970-01-01 00:00:00.000000022,9.721173436128396,6.571114899597141,-4.172109087785504,-0.5948554575280012
1970-01-01 00:00:00.000000022,7.140817625944546,8.431809324655793,-2.900642789858744,-1.0283024143149648
1970-01-01 00:00:00.000000022,3.383587332091643,10.732934232600078,-1.5000488719087497,-1.4353553905148297
1970-01-01 00:00:00.000000022,-1.6891798927665889,13.506963232175803,-0.2011284750488831,-1.737987880987704
1970-01-01 00:00:00.000000022,-8.03464127407058,16.260163892807515,1.6246709022498202,-1.846469567522719
1970-01-01 00:00:00.000000022,-14.075310989828886,17.823181985572248,4.122962947738868,-1.7222133582111543
1970-01-01 00:00:00.000000022,-17.648070722880984,17.56727926609014,7.296858235146781,-1.9630045837631716
1970-01-01 00:00:00.000000022,-22.355095046236716,16.52806778424074,12.676918986604848,-2.40544384604567
1970-01-01 00:00:00.000000022,-28.861452333447247,14.964122423254995,19.753525918028576,-2.496650772656142
1970-01-01 00:00:00.000000022,-33.21250917740954,10.780724116188242,22.695767272708007,-0.6378835711587003
1970-01-01 00:00:00.000000022,-25.506205129616824,-0.7544824633477654,16.162279267912666,2.3676401461648355
1970-01-01 00:00:00.000000022,-16.047922471968562,-7.739831751119174,8.847691836392586,3.8148433650367997
1970-01-01 00:00:00.000000022,-11.71641930673621,-9.388840976703303,6.057534154854062,4.054021521965227
1970-01-01 00:00:00.000000022,-9.422369337356,-9.368973749443123,5.095631215093784,3.8723955704213484
1970-01-01 00:00:00.000000022,-8.148222981873873,-8.977318945635906,4.870639965303184,3.6855471640052446
1970-01-01 00:00:00.000000022,-6.573748308092759,-9.171938396033138,4.758347234785322,3.572834216382633
1970-01-01 00:00:00.000000022,-4.577626342173014,-10.152900733294002,4.366852387865987,3.631850664260913
1970-01-01 00:00:00.000000022,-2.168362688596151,-11.006596301230308,3.0964523392707433,3.775675792305807
1970-01-01 00:00:00.000000022,0.4059864378293967,-11.641505892003988,1.8710542803647485,3.783846207886073
1970-01-01 00:00:00.000000022,2.350032971693623,-12.71677518419334,1.2693008292612307,3.824216391271675
1970-01-01 00:00:00.000000022,3.588740738998914,-13.728920022799448,1.3825721681050769,3.791257386835439
1970-01-01 00:00:00.000000022,4.085293856734022,-14.616318829858756,2.157894311108668,3.726236626787279
1970-01-01 00:00:00.000000022,4.318184713329518,-15.404064830946043,3.1381977842700195,3.6635120608319625
1970-01-01 00:00:00.000000022,4.708313534969371,-15.987085624036125,3.8797918458307072,3.5836919692936657
1970-01-01 00:00:00.000000022,5.18486086939044,-16.614712908426245,4.498716162762892,3.5674621916703573
1970-01-01 00:00:00.000000022,6.162639242907443,-18.114567802389622,4.831139649849704,3.822139278857424
1970-01-01 00:00:00.000000022,8.7551705156162,-20.948123363938887,3.972548775333438,4.2495497016045185
1970-01-01 00:00:00.000000022,11.067003408026856,-23.686276572263466,2.976163735850119,4.552946088130893
1970-01-01 00:00:00.000000022,11.03236510527834,-24.187273250260365,3.4029429295333644,4.41282248681323
1970-01-01 00:00:00.000000022,8.99804439499977,-22.31727598342277,4.456120562894245,3.984843229138742
1970-01-01 00:00:00.000000022,6.076511609491114,-19.22452066386942,4.81696990689735,3.6713593101883597
1970-01-01 00:00:00.000000022,3.736380671724212,-16.523382570874713,4.573466293509915,3.4520144880921704
1970-01-01 00:00:00.000000022,1.433561034578637,-14.007733320058438,4.315695447560339,3.270864269959453
1970-01-01 00:00:00.000000022,-0.8921306596281704,-11.935246323989297,4.2004815373332685,3.200248519496345
1970-01-01 00:00:00.000000022,-2.669343157832931,-10.380090662997034,4.211132825092925,3.0884294930661134
1970-01-01 00:00:00.000000022,-4.668388438905643,-9.429360707417366,3.897945609688774,3.17394563477137
1970-01-01 00:00:00.000000022,-7.3723870666753655,-8.703588942514399,2.042458131261279,3.7059191124876585
1970-01-01 00:00:00.000000022,-11.107198437893791,-6.16514721228231,-1.8491825374445559,4.377020902554451
1970-01-01 00:00:00.000000022,-16.19027706980783,1.1767605802904062,-5.038240272865816,3.9945485978502484
1970-01-01 00:00:00.000000022,-23.19853878437634,11.473758826912732,-5.1472288831435025,2.3506241581598366
1970-01-01 00:00:00.000000022,-35.35117156785948,15.606842518469445,2.3051752001073194,1.8031754165507778
1970-01-01 00:00:00.000000022,-42.940923842197925,17.47671455847196,12.45268467275068,0.9895944473900986
1970-01-01 00:00:00.000000022,-40.802240087512786,22.434497051390302,14.087357455277504,-0.3253218739325412
1970-01-01 00:00:00.000000022,-33.90663457467976,23.72909529131022,9.88035608198561,-0.4601386093556825
1970-01-01 00:00:00.000000022,-24.56941845942955,20.51281238737863,5.693993331726652,-0.2479270333080119
1970-01-01 00:00:00.000000022,-16.687074422998393,14.8974461995527,4.888070906274342,-0.11452728635134579
1970-01-01 00:00:00.000000022,-11.133459367743402,10.546108592071288,5.86179472920875,-0.17767913468102559
1970-01-01 00:00:00.000000022,-6.18476169050324,8.043244949052236,4.826145945042134,-0.14829321538639317
1970-01-01 00:00:00.000000022,-2.1428504903630015,6.298636378234919,2.1212771328245803,0.1896506371131934
1970-01-01 00:00:00.000000022,0.9415427150397233,5.4552593546428545,-0.8663412674266899,0.5429394807638639
1970-01-01 00:00:00.000000022,3.2125498659563987,5.048368897952681,-3.4574886525146615,0.8634750163106739
1970-01-01 00:00:00.000000022,5.1554495697026965,4.8082160937894525,-5.528337146759441,1.067158135303787
1970-01-01 00:00:00.000000022,6.624704832221779,4.379052908505619,-6.452027035846866,1.1441388830041264
1970-01-01 00:00:00.000000022,7.84873640813695,3.641682782313431,-6.2109224746554315,1.1288190242275524
1970-01-01 00:00:00.000000022,9.587668664961397,2.3539318441062456,-5.835330149700814,1.080281373257836
1970-01-01 00:00:00.000000022,11.221860726437207,0.5141111006086648,-4.743357475213855,0.9771691177560595
1970-01-01 00:00:00.000000022,12.345975304068284,-0.7821164458269463,-3.544505999227643,0.8328574599707794
1970-01-01 00:00:00.000000022,13.351621039453498,-1.573889980184637,-2.9009393461808988,0.6561044311755819
1970-01-01 00:00:00.000000022,13.501769885678756,-1.6936662762219428,-2.2616096047195318,0.48996589667632584
1970-01-01 00:00:00.000000022,13.28934276126799,-1.2202929260530313,-1.9777134294916348,0.34653830280961007
1970-01-01 00:00:00.000000022,13.008320128924368,-0.4503371249655346,-2.0827473893101947,0.25923085339644536
1970-01-01 00:00:00.000000023,13.004384884513598,-0.005359219479950328,-2.073015853346992,0.17490193940061616
1970-01-01 00:00:00.000000023,13.181348854167107,0.1341756448102196,-2.06014320525607,0.1304159281916455
1970-01-01 00:00:00.000000023,13.520663977991967,0.08506074131384134,-2.3438915766098463,0.14204420570041476
1970-01-01 00:00:00.000000023,13.68523489847452,0.05871096248927388,-2.828682771383514,0.1897811895149668
1970-01-01 00:00:00.000000023,13.346834646590422,0.4158649304825528,-3.364813566157827,0.23653456775996728
1970-01-01 00:00:00.000000023,12.556670898160334,1.0850166533663081,-3.6059090220507906,0.20078360480062574
1970-01-01 00:00:00.000000023,11.199045906883562,2.331269518001096,-3.293045221619963,-0.024935458580144232
1970-01-01 00:00:00.000000023,8.988782096645314,4.295744658894905,-2.869827635457836,-0.3487996882639339
1970-01-01 00:00:00.000000023,5.547502555434894,7.242421396935244,-2.35371581096846,-0.7153140278033376
1970-01-01 00:00:00.000000023,1.0405575181646523,10.67007399997841,-1.5100583190680825,-0.705481148833607
1970-01-01 00:00:00.000000023,-4.149112286317478,13.028411294943808,-0.4890241114067311,-0.7481408436006256
1970-01-01 00:00:00.000000023,-9.59873054287109,14.353726054218296,0.813102401799612,-0.581925083029716
1970-01-01 00:00:00.000000023,-14.822568264650872,17.516123349055228,3.1867201401014156,-1.06420376345694
1970-01-01 00:00:00.000000023,-19.755671338684248,23.296101309414706,5.942838320080249,-2.281378136525615
1970-01-01 00:00:00.000000023,-25.46486770072584,25.249118755239667,8.290421252164492,-2.3567977179951374
1970-01-01 00:00:00.000000023,-30.111041631314226,22.01685849326457,11.23528889956938,-1.359705383493441
1970-01-01 00:00:00.000000023,-30.750162819933813,19.626657182882994,12.232975656187005,-0.7789495617081017
1970-01-01 00:00:00.000000023,-29.613265446012885,13.918688391838115,12.320856764741222,0.4995716192772286
1970-01-01 00:00:00.000000023,-25.95010280225988,6.756291101915257,12.008518696993885,1.751446442000904
1970-01-01 00:00:00.000000023,-20.985480908660932,1.021428078043647,10.179404772263757,2.71544048755762
1970-01-01 00:00:00.000000023,-16.313428720496727,-2.8295547678328616,7.933588381031272,3.3193264035990118
1970-01-01 00:00:00.000000023,-12.86035051294805,-5.1658011830844766,6.531087142027159,3.565679490702586
1970-01-01 00:00:00.000000023,-10.730391861469274,-6.6176144156906656,6.185227213459522,3.639184059768427
1970-01-01 00:00:00.000000023,-8.99701048167621,-7.464340341677195,6.015495320266245,3.643439276571735
1970-01-01 00:00:00.000000023,-7.0756065271223765,-8.107392029665206,5.295329213656817,3.701560642236672
1970-01-01 00:00:00.000000023,-4.8562863352929355,-8.90189960783348,4.491738299917808,3.7377443699087207
1970-01-01 00:00:00.000000023,-2.797926241063074,-9.765526797526494,3.4599754684357213,3.8516093842507493
1970-01-01 00:00:00.000000023,-0.931801540370061,-10.049112999032749,2.3958102741961804,3.8796213858513697
1970-01-01 00:00:00.000000023,0.8201959795727536,-10.121592930327969,1.9158331808914095,3.742800734406614
1970-01-01 00:00:00.000000023,2.292052273848526,-10.886447305244788,1.9291344244497435,3.6791487123456235
1970-01-01 00:00:00.000000023,3.4590023777541488,-11.892716763788313,2.0905638267446744,3.669683501058776
1970-01-01 00:00:00.000000023,4.233145296004078,-12.632653839437147,2.3503403752589103,3.642258748483843
1970-01-01 00:00:00.000000023,4.680773147056456,-13.396721584421039,2.9108416218392623,3.619219479239015
1970-01-01 00:00:00.000000023,5.056743324292996,-14.212446178504587,3.6087661758272174,3.5987514070360276
1970-01-01 00:00:00.000000023,5.4805207453881675,-14.907389145280145,3.957781215418154,3.6347060552964976
1970-01-01 00:00:00.000000023,6.115004345895359,-15.487975138835852,3.8004122456864264,3.743099145833009
1970-01-01 00:00:00.000000023,7.135435014570602,-16.41123639534107,3.260052626062296,3.941375544781463
1970-01-01 00:00:00.000000023,8.358147916947052,-17.77674624849826,2.8096699448702576,4.168403304781908
1970-01-01 00:00:00.000000023,9.510128306937546,-19.417425483539446,2.4945227160077352,4.404701969543105
1970-01-01 00:00:00.000000023,10.211715658106652,-21.0304457243091,2.5057394700964903,4.627547410280109
1970-01-01 00:00:00.000000023,10.555440479880929,-21.9496021584815,2.8654498909231476,4.649786476985977
1970-01-01 00:00:00.000000023,10.224367842279166,-21.90121968470465,3.319000454814593,4.529981792968046
1970-01-01 00:00:00.000000023,9.204533889833218,-21.085013264322274,3.7958784532920067,4.36373945201238
1970-01-01 00:00:00.000000023,7.93715519160198,-19.44367095047829,3.8701852855878647,4.147152367524457
1970-01-01 00:00:00.000000023,6.503305112783162,-17.455762846512933,3.6374638096591916,3.953415477867151
1970-01-01 00:00:00.000000023,5.0114139735615275,-15.5242094456314,3.179054034949619,3.8384834492686126
1970-01-01 00:00:00.000000023,3.5765422453652445,-13.97994035173828,2.6649469677770035,3.8092909408221836
1970-01-01 00:00:00.000000023,2.1551089281893385,-13.016880175866518,2.441813970465655,3.8353732830067697
1970-01-01 00:00:00.000000023,0.6660324845689367,-12.261051216313179,2.2288034151403657,3.8662623353454277
1970-01-01 00:00:00.000000023,-1.580192411629906,-12.10264796837601,1.9147329345376338,4.138265922173752
1970-01-01 00:00:00.000000023,-4.637616927222511,-11.626464871235088,1.3529648759800037,4.406598076590013
1970-01-01 00:00:00.000000023,-9.62777211749292,-7.627943362853574,0.5492789090402479,4.179543792514819
1970-01-01 00:00:00.000000023,-16.926574940912644,1.6661600184933785,0.721731612412133,2.8409517202553713
1970-01-01 00:00:00.000000023,-27.753313414481678,11.47162663861438,2.294837402526806,1.7892168854600665
1970-01-01 00:00:00.000000023,-39.08283219515166,18.386617304596683,6.307736336313164,1.442463722308238
1970-01-01 00:00:00.000000023,-43.97564201831467,24.517183736230404,8.81418682866272,0.8631482222371314
1970-01-01 00:00:00.000000023,-41.02040134392789,27.840163837546683,8.438128301502891,0.28105999665722514
1970-01-01 00:00:00.000000023,-32.45811634556317,25.30335606378733,6.401393498172309,0.26728932840467756
1970-01-01 00:00:00.000000023,-21.870984884596563,19.837374770756337,3.3864210351943957,0.5783782109543982
1970-01-01 00:00:00.000000023,-12.457761420211774,13.402115700530778,0.6283274059740247,1.100976775901935
1970-01-01 00:00:00.000000023,-5.503892524483109,8.083491487779778,-1.3578387296905894,1.6174385372432265
1970-01-01 00:00:00.000000023,-0.17314979241716932,4.5998787039769296,-3.5422488731657955,1.9732894187596361
1970-01-01 00:00:00.000000023,3.208716229024816,2.2041254105763777,-4.691988954806745,2.157969114886391
1970-01-01 00:00:00.000000023,4.996745640940447,1.123520975503483,-4.929439312698011,2.159591731731491
1970-01-01 00:00:00.000000023,6.232039289453546,0.6604613814147778,-4.873352034642507,2.0862295499012253
1970-01-01 00:00:00.000000023,7.541819022966184,-0.11862874284297525,-4.478630688188102,1.9967425047035121
1970-01-01 00:00:00.000000023,8.948005748244157,-1.4773179012944744,-3.4135570095556447,1.8676390686144946
1970-01-01 00:00:00.000000023,10.389475221493756,-2.4593185978810643,-2.377772575587387,1.6448497967551705
1970-01-01 00:00:00.000000023,11.676707694713395,-2.714107802884684,-2.076126092694013,1.4091833370249465
1970-01-01 00:00:00.000000023,12.393002877532025,-2.6782449686360907,-1.7842848157815538,1.2021488689280302
1970-01-01 00:00:00.000000023,12.736231529752814,-1.8928185694430892,-1.3938761525615906,0.9102253595183889
1970-01-01 00:00:00.000000023,13.280278440863329,-0.9089599682286225,-1.081474865283202,0.5485337308067841
1970-01-01 00:00:00.000000023,13.814989505662092,0.004643703015627665,-0.9022009343397781,0.2096311026505404
1970-01-01 00:00:00.000000023,14.06092676170643,0.9878406164224982,-1.0744496951192108,-0.02929183782960365
1970-01-01 00:00:00.000000023,13.983782383135244,1.6707605656201774,-1.6042332086499798,-0.09110164418077105
1970-01-01 00:00:00.000000023,13.48216584378567,2.3185176478696308,-2.294023945883197,-0.07892810786380267
1970-01-01 00:00:00.000000023,12.218716288097614,3.20497719447982,-2.558652062575411,-0.10849454588064456
1970-01-01 00:00:00.000000023,10.170623100294684,4.42071309849076,-2.0847352482481987,-0.23987668086934022
1970-01-01 00:00:00.000000023,7.661782818188675,6.3155122985458,-1.0679638063496113,-0.5512385491747889
1970-01-01 00:00:00.000000023,4.9427533131840615,8.679937539996128,-0.16846894544111057,-0.9060441144591032
1970-01-01 00:00:00.000000023,2.1065801559928494,11.063609141491806,0.7901101395805084,-1.235443226440489
1970-01-01 00:00:00.000000023,-0.5071345396561759,13.056904398359382,1.7708378321917126,-1.5258264267162636
1970-01-01 00:00:00.000000023,-3.099507084219346,14.92103696376901,1.9707386791536963,-1.6079414907002105
1970-01-01 00:00:00.000000023,-5.419066783338648,16.84791234135474,1.9759252229102033,-1.6960736495973907
1970-01-01 00:00:00.000000023,-7.598328283146074,17.68626200384023,1.8429080904534452,-1.5666798427571873
1970-01-01 00:00:00.000000023,-10.028472477308071,17.034298013627435,1.1357294706264955,-1.095444398911451
1970-01-01 00:00:00.000000023,-14.535127935988701,14.682812900179872,1.2648161525410333,-0.16158893713269196
1970-01-01 00:00:00.000000023,-20.786084443818844,13.273781024595882,7.1364373813492055,-0.11462471566329002
1970-01-01 00:00:00.000000023,-25.406950392462036,12.11607880153462,11.325797181512257,0.12922710648943214
1970-01-01 00:00:00.000000023,-26.80050181839936,10.880006310170048,10.929746212813669,0.779117738849642
1970-01-01 00:00:00.000000023,-27.028821821539438,8.550036063719148,9.68329505511895,1.7185977877534373
1970-01-01 00:00:00.000000023,-25.74076737266174,5.462912151765871,8.76116501691705,2.5206687266524748
1970-01-01 00:00:00.000000023,-23.33266899710494,3.0424601817923764,7.212028549474373,3.089027434336702
1970-01-01 00:00:00.000000023,-20.659671623839106,1.2871148557314689,5.817207917994502,3.3923755541823017
1970-01-01 00:00:00.000000023,-18.261323033757407,-0.08926547084491987,5.803678842574541,3.361907589423301
1970-01-01 00:00:00.000000023,-15.994573876922756,-1.5678633231560837,7.261540076906247,3.1642500602755246
1970-01-01 00:00:00.000000023,-12.45686275269063,-5.185048361843535,9.565899126419934,3.0365413851820433
1970-01-01 00:00:00.000000024,-8.11189230786353,-9.375813445598999,9.945365337452358,3.155697795300376
1970-01-01 00:00:00.000000024,-5.248823765397214,-11.5228982715847,8.897981382538541,3.5120169403134236
1970-01-01 00:00:00.000000024,-1.7422493418054814,-13.74823802117708,7.294333857099517,3.818662913813226
1970-01-01 00:00:00.000000024,1.154071340621188,-15.164654799103424,6.063906260241789,3.8874566883778696
1970-01-01 00:00:00.000000024,2.6020633279896215,-15.654049656058898,5.724527067985108,3.8417610255855115
1970-01-01 00:00:00.000000024,3.6850133962927627,-15.99837005056085,5.744640439281484,3.74210832099681
1970-01-01 00:00:00.000000024,4.464172398748916,-16.679339146578123,6.003367355121502,3.7234676584750788
1970-01-01 00:00:00.000000024,4.992906091097419,-17.71761195159743,6.222453104450361,4.323394867921918
1970-01-01 00:00:00.000000024,5.948390373851249,-18.912893985504518,6.28615602608646,4.484313708072449
1970-01-01 00:00:00.000000024,7.223004129231343,-19.912623588884728,5.5216616680236905,4.713807689781787
1970-01-01 00:00:00.000000024,8.652929295922888,-20.890562938086283,4.1360889868492094,5.068704263939558
1970-01-01 00:00:00.000000024,10.425820307350744,-21.91852417990366,1.8667925364460265,5.54808936773556
1970-01-01 00:00:00.000000024,12.175209419850386,-22.83750690370436,-0.6606074871978871,5.994622052137318
1970-01-01 00:00:00.000000024,13.051869900682354,-23.899365257138953,-1.9083977278133042,6.294333374555865
1970-01-01 00:00:00.000000024,12.879317699836156,-25.286132969541196,-0.7069090942564986,6.30443150198324
1970-01-01 00:00:00.000000024,12.059398862369095,-25.959822233428255,1.9382548699314408,5.984550237642936
1970-01-01 00:00:00.000000024,11.237662556240293,-25.624243416491158,4.2946144989366,5.476079202514611
1970-01-01 00:00:00.000000024,9.98093627297643,-24.051768961467854,4.609317651721065,5.155399652223594
1970-01-01 00:00:00.000000024,7.791766194804831,-21.115833708603656,3.0646469320683356,5.070226613666339
1970-01-01 00:00:00.000000024,4.684451142698377,-17.171634102199146,0.7902565827547563,5.087656357006933
1970-01-01 00:00:00.000000024,1.1020098614632847,-12.68440137632487,-1.1438335232420844,5.0732110715764005
1970-01-01 00:00:00.000000024,-1.8179330389021775,-8.875616814573725,-2.4921754662918723,5.013459191163173
1970-01-01 00:00:00.000000024,-3.8151738070625925,-7.647011984670243,-2.5846634341427572,5.043258093932742
1970-01-01 00:00:00.000000024,-5.771751272240946,-9.243134088746457,-0.9431645727869662,5.197912399403988
1970-01-01 00:00:00.000000024,-9.026125932296749,-11.168100362993805,0.6187280173833936,5.492715110071792
1970-01-01 00:00:00.000000024,-14.977461017333162,-8.377463039036007,1.5669337151894767,5.466338617193248
1970-01-01 00:00:00.000000024,-20.81347228926112,1.2482032655228337,0.9600872492337982,4.062862882254372
1970-01-01 00:00:00.000000024,-29.994140179194787,10.602496333684403,-0.37103286034466304,3.4473347008147814
1970-01-01 00:00:00.000000024,-40.701813571555434,14.24615121733856,2.248978994842976,4.184957884735024
1970-01-01 00:00:00.000000024,-42.5316042683422,20.68087047607939,4.730749662727309,3.126642500261003
1970-01-01 00:00:00.000000024,-36.95620441040091,23.692266998394146,4.53617726038357,1.9821353555090648
1970-01-01 00:00:00.000000024,-28.58381524460569,20.468343186634584,4.204041073701626,1.541847176164126
1970-01-01 00:00:00.000000024,-20.792965774295872,16.60157041921662,3.871503108036893,1.239140151006815
1970-01-01 00:00:00.000000024,-14.858459928889209,12.557421828698526,4.1099065397783034,1.1411309691116034
1970-01-01 00:00:00.000000024,-10.269799170764752,9.97586814312484,3.873022653459014,1.0412755740955726
1970-01-01 00:00:00.000000024,-6.786289090216997,8.440956804049229,2.861643871991857,1.0660786714535646
1970-01-01 00:00:00.000000024,-3.9879679375091044,6.973428844178464,1.684825168294119,1.2291422047313207
1970-01-01 00:00:00.000000024,-1.5748801595653104,5.9501615904057505,0.23717527358609036,1.4221308295367732
1970-01-01 00:00:00.000000024,0.6169106224819585,5.396613891559632,-1.3154129866868185,1.5769003591517026
1970-01-01 00:00:00.000000024,2.70937401865179,4.848805012210061,-2.6629343836246884,1.687400769672242
1970-01-01 00:00:00.000000024,4.564758421352328,4.100103633175535,-3.504833176116666,1.7547329886696568
1970-01-01 00:00:00.000000024,6.076408736726289,3.515265620536672,-4.05628883451795,1.794492833023613
1970-01-01 00:00:00.000000024,7.528376946560973,3.058158554274311,-5.018874922908198,1.885494307535444
1970-01-01 00:00:00.000000024,8.752631207600247,2.4095122287047017,-5.348837200168088,1.9111807258763571
1970-01-01 00:00:00.000000024,9.758886568311274,1.8520680213693297,-4.796333081014064,1.7626120633498217
1970-01-01 00:00:00.000000024,10.611847190398652,1.5123347109755165,-3.986145624503292,1.5381857188850656
1970-01-01 00:00:00.000000024,11.453415532462895,1.2493406811106145,-2.811227274433728,1.2296042242958858
1970-01-01 00:00:00.000000024,12.394906791863875,1.044984277009457,-1.8418701872086385,0.9290793067104941
1970-01-01 00:00:00.000000024,13.29716275382899,0.6737380758797435,-1.4607645024627691,0.7568707062318234
1970-01-01 00:00:00.000000024,13.66639134087277,0.40385225207001696,-1.3408628989595746,0.7071686134833426
1970-01-01 00:00:00.000000024,13.69764130558543,0.6159617679514771,-1.6068447315050676,0.6652012673671135
1970-01-01 00:00:00.000000024,13.098246762310065,1.7534811264460117,-2.7675792078506873,0.7224616208631254
1970-01-01 00:00:00.000000024,12.087821634797145,2.9160082703587893,-4.429814256195542,0.9720724918135355
1970-01-01 00:00:00.000000024,11.146601147601327,3.9266324600280584,-5.639515422642386,1.1642163164970012
1970-01-01 00:00:00.000000024,10.44452508468172,4.653395738400438,-6.0367745671462885,1.2049260132163035
1970-01-01 00:00:00.000000024,9.942963407797642,4.985003476829162,-5.583446890262142,1.0815674119956806
1970-01-01 00:00:00.000000024,9.190863627511433,5.365206147418386,-4.7927834585011215,0.863732493705335
1970-01-01 00:00:00.000000024,7.67689843811797,6.281375061586686,-3.9158939311494176,0.587852847774871
1970-01-01 00:00:00.000000024,5.103993121980599,7.787904828740659,-2.6303683692153577,0.25710908114165765
1970-01-01 00:00:00.000000024,1.6615543332157605,9.702167611764256,-1.6439397403128315,0.007035012010486508
1970-01-01 00:00:00.000000024,-2.8699281063746516,12.335858505719647,-1.5907668024058745,0.04090443157410295
1970-01-01 00:00:00.000000024,-7.317887692651629,14.483305050029083,-1.1894709172830005,0.15750801946101678
1970-01-01 00:00:00.000000024,-10.794578137974586,16.637602968418218,0.39927715911823647,-0.17113241116439104
1970-01-01 00:00:00.000000024,-14.002338525796219,19.285339388023402,3.523318504236174,-1.031888458531725
1970-01-01 00:00:00.000000024,-17.861834202834178,19.355211366264363,7.768973313308893,-1.4583747395344098
1970-01-01 00:00:00.000000024,-22.04768447926116,15.2436148966349,12.177208350623312,-0.7131517417705378
1970-01-01 00:00:00.000000024,-23.02922046377757,12.071716870380136,13.364978181019744,-0.004565889161122438
1970-01-01 00:00:00.000000024,-22.65216294574282,8.908320863762901,11.14278279704356,1.2482833661616146
1970-01-01 00:00:00.000000024,-20.686645752775647,4.832004782877864,9.61921567081538,2.2801054787916355
1970-01-01 00:00:00.000000024,-17.956296961703114,0.5427140677538466,9.062946108786052,2.9943007266345036
1970-01-01 00:00:00.000000024,-15.080875409640816,-3.1373216390348455,8.371732580897179,3.5502478264368738
1970-01-01 00:00:00.000000024,-12.35326535652093,-5.214782437316474,7.259449459816046,3.8408368431472546
1970-01-01 00:00:00.000000024,-10.125571008877667,-6.306290536641696,6.238916466004403,3.950690942015053
1970-01-01 00:00:00.000000024,-8.539398251215742,-6.828129904025129,5.418227270286901,3.9975811108511996
1970-01-01 00:00:00.000000024,-7.337172308884877,-6.964009645965461,4.642427057813266,4.016036648646268
1970-01-01 00:00:00.000000024,-6.331168772999352,-7.09221798258516,4.285215845128729,3.9861513286634183
1970-01-01 00:00:00.000000024,-5.270166871818298,-6.998113886003301,4.336162758492471,3.8306415947038785
1970-01-01 00:00:00.000000024,-3.9494688851949347,-7.10353812334407,4.5444974503279525,3.6373209161091573
1970-01-01 00:00:00.000000024,-2.52032440085091,-7.824209350041708,4.838474494606868,3.5430596060956936
1970-01-01 00:00:00.000000024,-0.9834706258091731,-8.796184079985885,4.698244151853684,3.572049067878513
1970-01-01 00:00:00.000000024,0.5211386762528576,-9.849497443306904,4.3373809717126965,3.6683589645020604
1970-01-01 00:00:00.000000024,1.920908438400585,-10.974279487745584,3.8270094859438606,3.832440746839782
1970-01-01 00:00:00.000000024,3.2810004706424634,-11.934943929346415,3.012979945249311,4.02147636825767
1970-01-01 00:00:00.000000024,4.474968338003,-12.551080308064131,2.241575332331329,4.1583778642687035
1970-01-01 00:00:00.000000024,5.594034882573505,-13.122187057626046,1.5815913584558632,4.269593669364548
1970-01-01 00:00:00.000000024,6.619661408483058,-13.92314272489888,1.2862188689170835,4.388309103122376
1970-01-01 00:00:00.000000024,7.839851101992926,-15.146289396899531,1.0526952200497837,4.563959604291643
1970-01-01 00:00:00.000000024,9.303405653015625,-16.966888071211667,0.6963349926042675,4.841213504537054
1970-01-01 00:00:00.000000024,10.743356961739572,-19.364918981023493,0.5931191250577674,5.186404934608525
1970-01-01 00:00:00.000000024,12.141919296040772,-21.6456912438071,1.0581145565705339,5.374783274115061
1970-01-01 00:00:00.000000024,13.317323700830418,-23.105232557512572,1.6894859466020056,5.339085882361062
1970-01-01 00:00:00.000000024,13.746807637239336,-23.904254747690775,2.34933906302563,5.264698982582891
1970-01-01 00:00:00.000000024,13.607103569341014,-24.102176139066447,2.700138246162531,5.2080865100576474
1970-01-01 00:00:00.000000024,12.944978006955917,-23.687564073399336,2.47133051706719,5.213404094286004
1970-01-01 00:00:00.000000024,11.742449266519818,-22.695961292533067,1.7918782648343186,5.262746957455167
1970-01-01 00:00:00.000000024,9.95952767722023,-21.830513726397292,1.432259732055831,5.346471227207703
1970-01-01 00:00:00.000000024,7.571123392557077,-21.09710476257637,1.509939058290447,5.415611106377679
1970-01-01 00:00:00.000000024,4.228727445735148,-19.501796244534688,1.8756134604159702,5.357377635227387
1970-01-01 00:00:00.000000025,-0.22581851125549468,-17.540839199629552,2.292179013171407,5.336970056600194
1970-01-01 00:00:00.000000025,-6.101526117592235,-15.72019592073923,2.393886119936145,5.564310489309785
1970-01-01 00:00:00.000000025,-13.783323259001525,-11.611685836525155,2.1355110489075986,5.635008350175374
1970-01-01 00:00:00.000000025,-22.813789727193136,-1.4852364696819795,2.074997396327067,4.583830532791169
1970-01-01 00:00:00.000000025,-32.76596941447369,13.559696835003272,1.6888143318153148,2.6206420866857045
1970-01-01 00:00:00.000000025,-44.874132749665854,21.61113055441006,3.537069102326354,2.630415718970433
1970-01-01 00:00:00.000000025,-49.963646889425135,25.1000398430381,10.471263139965773,2.752624406093164
1970-01-01 00:00:00.000000025,-33.58501104002917,21.949536396449805,8.79662686558039,1.2428648059836664
1970-01-01 00:00:00.000000025,-17.63068616118494,12.760501822042132,4.010721191640605,1.489296941755224
1970-01-01 00:00:00.000000025,-8.74767458099635,7.9658922646297805,0.6247247746578943,1.8115447127033044
1970-01-01 00:00:00.000000025,-2.9190427868727613,4.691634002916801,-1.7701075959227803,2.006967606542438
1970-01-01 00:00:00.000000025,-0.07884578846852486,3.2756769913460566,-2.3501786873512573,1.9055444665182868
1970-01-01 00:00:00.000000025,0.8388484504218549,4.172770270553864,-3.5135914554337697,1.8253711219325375
1970-01-01 00:00:00.000000025,1.570529559876026,5.185507656502155,-5.470403266466843,1.8873757939080185
1970-01-01 00:00:00.000000025,1.822110191678314,5.635399889196348,-5.887833304978849,1.8947513731300083
1970-01-01 00:00:00.000000025,2.673286561445249,5.826677103370794,-6.144708216390378,1.8388116575277849
1970-01-01 00:00:00.000000025,4.00688090069851,5.1896268558246,-6.76454358355178,1.9694209594834975
1970-01-01 00:00:00.000000025,5.860414198592808,3.8248185476544467,-6.966397995746564,2.0786374176416436
1970-01-01 00:00:00.000000025,7.9059536828326795,1.4743265956662412,-6.684349636784741,2.259154607015561
1970-01-01 00:00:00.000000025,10.0576667160385,-2.499458998064234,-4.4925007308395095,2.398591063734321
1970-01-01 00:00:00.000000025,12.830409584294246,-5.964427225096002,-1.8678777775774247,2.2096090574695535
1970-01-01 00:00:00.000000025,15.612446601421915,-8.775004982989087,0.07487183278777354,1.9874372098362458
1970-01-01 00:00:00.000000025,18.04865562400413,-9.868559956659283,-0.26843537820285934,1.7548555924125773
1970-01-01 00:00:00.000000025,17.97269018139426,-7.652693998986861,-2.5492071964407086,1.3785962584818108
1970-01-01 00:00:00.000000025,13.07384475620915,-1.0811421146045719,-3.1371230243152484,0.8517919133315413
1970-01-01 00:00:00.000000025,9.566038813374345,3.372616639947252,-2.49235472478768,0.3670577621067741
1970-01-01 00:00:00.000000025,8.006856482822752,5.496967408093491,-1.176278530039209,-0.12454369618186645
1970-01-01 00:00:00.000000025,7.093424640623467,6.770652614608284,-0.04201635023908468,-0.5430756976306785
1970-01-01 00:00:00.000000025,6.054792969100204,8.24945792061351,0.48064180786819843,-0.8881827802090223
1970-01-01 00:00:00.000000025,4.47710093096072,10.033974841051696,0.5886087617739935,-1.1570831435654152
1970-01-01 00:00:00.000000025,2.103959369643007,12.158258142443138,0.9021901146909825,-1.4011541160409338
1970-01-01 00:00:00.000000025,-0.6479627292567862,13.80373593473285,2.0852652647024463,-1.6478244343656225
1970-01-01 00:00:00.000000025,-3.467128793779983,14.177942149860773,3.7853020867908125,-1.7432629319620259
1970-01-01 00:00:00.000000025,-6.683759950672362,13.229845168813402,5.097034135955847,-1.4796190459482137
1970-01-01 00:00:00.000000025,-11.130567239149368,11.893197769704887,6.19993994562406,-0.8796183216791427
1970-01-01 00:00:00.000000025,-16.12494455369791,12.69763113346574,7.862480916140273,-0.7474264937878998
1970-01-01 00:00:00.000000025,-21.29138366787811,15.700744492032927,10.094946448326445,-1.0814827270766023
1970-01-01 00:00:00.000000025,-25.338576821611422,18.40554208581337,11.384145123062032,-1.3080225775375887
1970-01-01 00:00:00.000000025,-28.52515525027902,17.200880958562355,12.228961007984102,-0.5716251074490732
1970-01-01 00:00:00.000000025,-28.87301261953144,13.573553615812338,12.603111912951576,0.3909671222096627
1970-01-01 00:00:00.000000025,-26.865426066450407,8.623647220665966,11.893641194002221,1.4278305847583423
1970-01-01 00:00:00.000000025,-24.034434728703328,3.603865404165979,11.614144387105931,2.2109153536168193
1970-01-01 00:00:00.000000025,-21.207868890178368,-0.07564543494912539,11.181893131093348,2.722032461485216
1970-01-01 00:00:00.000000025,-18.508712111604332,-2.147806955648197,10.295455344558533,2.993958923982032
1970-01-01 00:00:00.000000025,-15.951100405426395,-3.4137976278763063,9.546745911662677,3.077715851059382
1970-01-01 00:00:00.000000025,-13.541082522801513,-4.48791985878792,9.003493408557722,3.102690818199107
1970-01-01 00:00:00.000000025,-11.17403592809195,-5.958649349897651,8.598965328895687,3.2078380751702924
1970-01-01 00:00:00.000000025,-8.602843191713841,-7.951993749056097,8.112189311018534,3.414068676145245
1970-01-01 00:00:00.000000025,-5.842004629239555,-10.057001562639535,7.368326380582173,3.621709118082927
1970-01-01 00:00:00.000000025,-3.656511931985638,-11.885999004489914,6.03367240242173,4.034639575169466
1970-01-01 00:00:00.000000025,-1.144375051453261,-12.917026995621999,4.738773047770765,4.2230165998130165
1970-01-01 00:00:00.000000025,1.5689873517513737,-13.752163323554111,3.284766441138968,4.319887798885793
1970-01-01 00:00:00.000000025,3.820875971355808,-14.815992680163001,2.0253109231570545,4.450856655632911
1970-01-01 00:00:00.000000025,5.254461863137564,-15.86051096015303,1.8177565647953173,4.483882609250818
1970-01-01 00:00:00.000000025,6.151151301243569,-16.612674583423075,2.3592449868619454,4.380615080038997
1970-01-01 00:00:00.000000025,6.676401760771064,-17.11704990098828,2.6965109717588276,4.318890068437161
1970-01-01 00:00:00.000000025,6.85098064139594,-17.581887005767815,2.6623369881192445,4.406715130611155
1970-01-01 00:00:00.000000025,7.059099676768078,-18.124863036803266,2.4056239253995413,4.5929673013566195
1970-01-01 00:00:00.000000025,7.6755383834306725,-19.36390950391001,1.7150144816788466,4.990420115382758
1970-01-01 00:00:00.000000025,9.010413411414428,-21.13598332870953,0.7144773199875636,5.424598679390219
1970-01-01 00:00:00.000000025,10.407575915232833,-23.147460684782587,-0.26394715554982584,5.84543653997183
1970-01-01 00:00:00.000000025,11.300196046844984,-24.94394550225075,-0.18954086166332962,6.015210183372551
1970-01-01 00:00:00.000000025,11.160785871377477,-25.528099541550855,0.9573122250769095,5.837719370877528
1970-01-01 00:00:00.000000025,10.092581046426787,-25.142404494677074,2.7093085636839245,5.487063080618208
1970-01-01 00:00:00.000000025,8.672950564694379,-23.964156200084556,4.0466846090350135,5.127162045813041
1970-01-01 00:00:00.000000025,7.242800496863877,-21.95536728785961,4.23562150000893,4.842270401435446
1970-01-01 00:00:00.000000025,5.857488023857483,-19.49488400484771,3.4009724584830923,4.66152798557522
1970-01-01 00:00:00.000000025,4.311918331162985,-16.762316178140136,1.7348195439235792,4.6246824993377365
1970-01-01 00:00:00.000000025,2.6167010160048854,-14.09886973195055,-0.07206169956125796,4.655195194882859
1970-01-01 00:00:00.000000025,0.7572336619102256,-12.221969130540263,-0.9952879780924015,4.712297841838003
1970-01-01 00:00:00.000000025,-0.9261545394052102,-11.77305326689099,-0.17947018318908237,4.659602685841756
1970-01-01 00:00:00.000000025,-2.6535423272121688,-12.529627600489507,2.020434507013963,4.4293287762706335
1970-01-01 00:00:00.000000025,-6.236448738002364,-12.253855680004076,4.004238138888001,4.166823165141108
1970-01-01 00:00:00.000000025,-13.012121111748337,-7.520647693050262,3.6478233095321473,4.090237374463962
1970-01-01 00:00:00.000000025,-20.069835247567532,2.6788379808714264,0.9694612317049753,3.4635685839649364
1970-01-01 00:00:00.000000025,-26.355143450798945,14.965550592664659,-2.6060926374118814,2.253904434029201
1970-01-01 00:00:00.000000025,-35.162865942594586,21.23893694084833,-3.236053522051943,2.451272679951046
1970-01-01 00:00:00.000000025,-40.75561351422529,22.335229192229086,0.5821299239984401,2.7414529319919274
1970-01-01 00:00:00.000000025,-38.51230530915637,23.642759028924843,4.7840692495975174,1.6099768887725152
1970-01-01 00:00:00.000000025,-31.99519196586546,21.736414875098014,7.304890101490782,0.6565859765759974
1970-01-01 00:00:00.000000025,-24.554940076167235,17.71096222703011,8.168483118961845,0.29987673244223556
1970-01-01 00:00:00.000000025,-17.277764338450922,13.9974681032454,7.532056959010131,0.18950127324847443
1970-01-01 00:00:00.000000025,-10.786921915285738,10.284418882334725,6.010797096050818,0.34191259236028015
1970-01-01 00:00:00.000000025,-5.530944810099475,7.263021661988818,4.0906445765590735,0.5848312880299571
1970-01-01 00:00:00.000000025,-1.7443249109149492,5.008960436807655,2.3784009164887943,0.8518392552470557
1970-01-01 00:00:00.000000025,1.0003172990544016,3.4583376833728225,0.8556077201934427,1.1057687805496288
1970-01-01 00:00:00.000000025,3.186137343229398,2.4682958675419164,-0.6748536179830396,1.317569298229341
1970-01-01 00:00:00.000000025,4.833550171185065,1.7564146317860532,-2.0058915142085993,1.5008787885234114
1970-01-01 00:00:00.000000025,6.01020824984543,1.364472221489384,-2.8246442348411547,1.577243648064524
1970-01-01 00:00:00.000000025,6.838029473308151,1.3336097805575764,-3.260228394372773,1.545486766702104
1970-01-01 00:00:00.000000025,7.404894954940494,1.4820540056970806,-3.362460261091294,1.4514738303785415
1970-01-01 00:00:00.000000025,7.897222550763901,1.413455210033629,-3.044591818321887,1.3374261156428195
1970-01-01 00:00:00.000000025,8.513276534309709,1.2497534028411605,-2.5230020959694404,1.1890606549617357
1970-01-01 00:00:00.000000025,9.350710399634028,1.3083997086349384,-2.097951730895817,0.9572372356347552
1970-01-01 00:00:00.000000026,10.042540606240017,1.2389844541939865,-1.709748914326095,0.7798030564221805
1970-01-01 00:00:00.000000026,10.614454921068358,1.23018937626646,-1.479260134244401,0.6449667347824164
1970-01-01 00:00:00.000000026,11.119284777702568,1.1694119524190874,-1.2869914628546038,0.5390946554752443
1970-01-01 00:00:00.000000026,11.551229741836629,0.9224950525696873,-0.9409476493084514,0.4506633019243278
1970-01-01 00:00:00.000000026,11.91607080043542,0.7538035352245136,-0.6027460002115217,0.3561761900973388
1970-01-01 00:00:00.000000026,12.176221153100556,0.3933318419752818,-0.3700629129188773,0.34073789954132927
1970-01-01 00:00:00.000000026,12.334680028879776,-0.00889289139169902,-0.514001738097976,0.4302106333727096
1970-01-01 00:00:00.000000026,12.400771160233903,-0.06589082601342033,-1.1904349321893042,0.5540109104133923
1970-01-01 00:00:00.000000026,12.076093366038739,0.2818652730223139,-2.075716747020221,0.7916212571360086
1970-01-01 00:00:00.000000026,11.346095952406031,0.9670535141793459,-2.5631169207933095,0.8452716996339094
1970-01-01 00:00:00.000000026,10.51197904021724,1.429814979267249,-2.5272047449522974,0.8666583532386047
1970-01-01 00:00:00.000000026,9.894049049092663,1.8970685754194192,-2.412293543535927,0.7983298380030628
1970-01-01 00:00:00.000000026,8.969809594780658,2.7768806608293737,-2.368876826745601,0.6587997274284669
1970-01-01 00:00:00.000000026,7.283987178049472,3.816543336238696,-1.8095467093311433,0.4618052226413627
1970-01-01 00:00:00.000000026,4.671305013431767,5.463349824061064,-1.295323918749192,0.23821004114637612
1970-01-01 00:00:00.000000026,0.7447385425889044,8.308554800445254,-1.299546209861105,0.06922712615829729
1970-01-01 00:00:00.000000026,-4.21205593173779,11.268115885513403,-0.8919376499484979,0.0161168134921561
1970-01-01 00:00:00.000000026,-8.985811983580897,14.35433973861501,0.14099529144983292,-0.22559918085944997
1970-01-01 00:00:00.000000026,-13.52409246773734,19.19955374084755,1.3493072028490158,-0.9720896621295734
1970-01-01 00:00:00.000000026,-18.61477191395306,24.283607017068736,2.790294938271696,-1.7861175930271909
1970-01-01 00:00:00.000000026,-24.967512385337294,24.870330035410795,6.15115044589105,-1.6058826833896478
1970-01-01 00:00:00.000000026,-28.886630123323673,22.707162763257653,10.782625925020552,-1.3461476834468145
1970-01-01 00:00:00.000000026,-29.713327753673415,19.91489647836058,12.421581435478332,-0.8135645130479325
1970-01-01 00:00:00.000000026,-28.74126164882561,15.247346168349893,11.852376848766033,0.3669181978364917
1970-01-01 00:00:00.000000026,-25.70818822001687,9.873159992731768,10.202303406849577,1.5647741310897663
1970-01-01 00:00:00.000000026,-21.91213765422298,4.583888205468499,8.365729706233047,2.622606262459897
1970-01-01 00:00:00.000000026,-18.009511843684983,0.4840277432456012,6.764604849770539,3.322509494467387
1970-01-01 00:00:00.000000026,-14.383138374883071,-1.9640157035063508,5.329724671902116,3.6209818733024055
1970-01-01 00:00:00.000000026,-11.569255020004181,-3.683142081358965,4.467270948144237,3.7580190920670926
1970-01-01 00:00:00.000000026,-9.347841255623752,-5.2004226343031785,4.066988786875039,3.8606398222039164
1970-01-01 00:00:00.000000026,-7.318758884663707,-6.717405527113509,3.8522898151952747,3.9748279759641467
1970-01-01 00:00:00.000000026,-5.126301067401682,-8.328331572759755,3.7860312483992713,4.035618904642091
1970-01-01 00:00:00.000000026,-3.0613457204041197,-9.960104915168296,3.557995913816918,4.159032822416129
1970-01-01 00:00:00.000000026,-1.00499797811858,-11.556115437302685,3.318244124139598,4.281361350887435
1970-01-01 00:00:00.000000026,1.0664314557173846,-13.353445989720596,3.2361613402358844,4.373997904640754
1970-01-01 00:00:00.000000026,2.6468298301590116,-15.475938514422273,3.3190998329604753,4.562278195956335
1970-01-01 00:00:00.000000026,3.7296115194767148,-17.565405476949714,3.8110225724278917,4.723710159723349
1970-01-01 00:00:00.000000026,4.328935618413539,-19.234877445733847,4.883641540079884,4.7677363848736265
1970-01-01 00:00:00.000000026,4.837388030974049,-20.248010298041613,5.575574269551004,4.768155842498407
1970-01-01 00:00:00.000000026,5.281212941687532,-20.77860368853639,5.339660650650821,4.889976626248471
1970-01-01 00:00:00.000000026,5.880831320215693,-21.37930544336137,4.490247147100636,5.140905266101633
1970-01-01 00:00:00.000000026,6.66397726981531,-22.194626762836965,3.6650288404507503,5.4171904286923205
1970-01-01 00:00:00.000000026,7.716236326653914,-23.322003000679622,3.0191456976275317,5.661558811961333
1970-01-01 00:00:00.000000026,8.747560056214594,-24.357841587225288,2.493517663779935,5.82121851336309
1970-01-01 00:00:00.000000026,9.286844881248033,-24.786530941915142,2.3590201369196837,5.799238312142723
1970-01-01 00:00:00.000000026,8.981515323424055,-24.336988326331518,2.9915315512045804,5.534429783455124
1970-01-01 00:00:00.000000026,7.7998561704092095,-23.20472019695535,3.769765417685608,5.22250786403939
1970-01-01 00:00:00.000000026,5.98061024335837,-21.241566663987893,4.241025053780405,4.906881223894752
1970-01-01 00:00:00.000000026,3.8201760254627706,-18.453892254338236,4.1015985107641395,4.61168100831032
1970-01-01 00:00:00.000000026,1.539613229983151,-15.677894131295457,3.587764808700565,4.428844423144875
1970-01-01 00:00:00.000000026,-0.7040680539108699,-12.954143110469658,2.9131575043206572,4.34693294758284
1970-01-01 00:00:00.000000026,-2.2091319081779,-10.891038506485529,2.0104191528571556,4.365984857303432
1970-01-01 00:00:00.000000026,-2.945899911187293,-10.518235674466398,0.9538205129962536,4.6050274405953076
1970-01-01 00:00:00.000000026,-3.8726038199941732,-11.730125907416381,0.11393349473260805,5.075663186272886
1970-01-01 00:00:00.000000026,-6.062589966830873,-12.387794307978691,-0.5702466374202864,5.4799564573808865
1970-01-01 00:00:00.000000026,-10.39539971340453,-8.946621965626203,-1.2168942626978785,5.161567956205305
1970-01-01 00:00:00.000000026,-18.27381522349126,-0.08396568442727892,-0.6988653759204411,3.954119790476372
1970-01-01 00:00:00.000000026,-29.130660485980197,9.39261486122538,2.310595487982063,2.7974411126050036
1970-01-01 00:00:00.000000026,-38.92890137612794,15.96364918818871,7.364025802112215,2.340580851346881
1970-01-01 00:00:00.000000026,-39.20340626175051,22.172267681991727,8.564455631169873,1.679304686694871
1970-01-01 00:00:00.000000026,-28.325301557324742,21.03128101168199,3.2199790255682332,1.454056826320363
1970-01-01 00:00:00.000000026,-19.373572013680153,15.987930790751204,0.4405892165013363,1.880549132095791
1970-01-01 00:00:00.000000026,-10.873905069692073,9.602670657211704,-0.36424986142102234,2.0152984096892217
1970-01-01 00:00:00.000000026,-5.719391169418489,6.285360455210531,0.35084802637667245,1.7683997815708463
1970-01-01 00:00:00.000000026,-2.0706139843557576,5.3214510064939615,-0.9434640533876146,1.6855934165567916
1970-01-01 00:00:00.000000026,0.7069838010883138,3.9071943964137112,-1.5609997915544311,1.615708492562245
1970-01-01 00:00:00.000000026,1.8952596695647903,3.2141634261288665,-0.9121645891292175,1.464609962888479
1970-01-01 00:00:00.000000026,3.0860566878072904,2.5781036934568777,-0.614558530542773,1.366354440630293
1970-01-01 00:00:00.000000026,4.187539362731074,2.040975834257953,-0.5345761984741699,1.308007821993242
1970-01-01 00:00:00.000000026,5.238661280909302,1.801662488093932,-0.5455801716741099,1.207983760584894
1970-01-01 00:00:00.000000026,6.181311102656959,1.8644754501074754,-0.43552433089698006,1.0528261704408273
1970-01-01 00:00:00.000000026,7.302601497253537,1.9139851001564736,-0.08876632719569755,0.8278416274779796
1970-01-01 00:00:00.000000026,8.638761984727095,1.8513662425977913,0.3270774850933784,0.5718501107570653
1970-01-01 00:00:00.000000026,10.051521218743883,1.825941329998261,0.42289630473130124,0.3498575937897148
1970-01-01 00:00:00.000000026,11.327587107094844,1.8017180330394598,0.19379110833466573,0.211681638060925
1970-01-01 00:00:00.000000026,12.403758805147335,1.6164027676399386,-0.14457917412234256,0.1462121902411071
1970-01-01 00:00:00.000000026,13.094243505778717,1.2710260772714341,-0.417559425605905,0.1506252332930611
1970-01-01 00:00:00.000000026,13.355263622091227,0.9803330797386707,-0.6004935561879599,0.184409220532205
1970-01-01 00:00:00.000000026,13.188524695227677,0.8950644956761402,-0.8486691714657111,0.2602294918918999
1970-01-01 00:00:00.000000026,12.762353894681736,1.240735279008529,-1.5092470978938421,0.38082238685335845
1970-01-01 00:00:00.000000026,12.246346044395313,1.8552609734746364,-2.4005295357490004,0.5071562398803771
1970-01-01 00:00:00.000000026,11.678034582129083,2.609471074967103,-3.04689029716791,0.5552645108898506
1970-01-01 00:00:00.000000026,11.045445763988406,3.603389261363761,-3.3625772770584126,0.47262511568360077
1970-01-01 00:00:00.000000026,10.162730321752951,4.5300839115675,-3.144651253696897,0.2883668930915624
1970-01-01 00:00:00.000000026,8.648681876242684,5.658632138424945,-2.343250785292514,-0.002254863933947693
1970-01-01 00:00:00.000000026,6.243932463995022,7.275544700250649,-1.3505590748583207,-0.34197899415336774
1970-01-01 00:00:00.000000026,2.6628775228576713,9.161981784463327,-0.24093721975989535,-0.6155626112732286
1970-01-01 00:00:00.000000026,-2.2497459353250875,11.225802005908005,0.7230926669892641,-0.6656646337638974
1970-01-01 00:00:00.000000026,-7.864234135861659,12.995792234751882,2.0755590881711203,-0.5615542898386385
1970-01-01 00:00:00.000000026,-13.051641169606766,15.276602902402827,4.683017283641037,-0.8955782710578495
1970-01-01 00:00:00.000000026,-17.826728714331527,19.078322445347787,7.721743885362451,-1.778514362685545
1970-01-01 00:00:00.000000026,-23.349476336659045,21.153813538381744,10.619778037537156,-2.073890754247554
1970-01-01 00:00:00.000000026,-28.600738335536157,18.642331661735383,13.579951698916503,-1.164139080411033
1970-01-01 00:00:00.000000026,-30.036552048170005,15.78208321270216,14.13185971743502,-0.2802141818126618
1970-01-01 00:00:00.000000026,-29.51692151915257,12.242757740470813,12.749103331078599,0.8519071815307087
1970-01-01 00:00:00.000000026,-27.537658650344966,7.6356142813656644,11.957168723043008,1.8796549353098428
1970-01-01 00:00:00.000000027,-24.315778069205802,2.5798482841615518,11.255472618842198,2.794504850406458
1970-01-01 00:00:00.000000027,-20.07576707004142,-1.7314290527490674,9.438873541951072,3.554965932731278
1970-01-01 00:00:00.000000027,-15.953873540319325,-4.652549373727254,7.019996348495858,4.100167018809072
1970-01-01 00:00:00.000000027,-12.633518395321227,-6.394232373356669,5.094199531967782,4.377423590456169
1970-01-01 00:00:00.000000027,-10.247123455484246,-7.376413356311067,4.138702365225822,4.440289624911245
1970-01-01 00:00:00.000000027,-8.324866606555211,-8.136638307442096,4.033054268729826,4.377394572560017
1970-01-01 00:00:00.000000027,-6.2824244203799955,-9.041780805382729,4.274803029721645,4.255112324263688
1970-01-01 00:00:00.000000027,-4.158527271789948,-10.168368057764088,4.209702913882489,4.318421913499533
1970-01-01 00:00:00.000000027,-2.01682043308251,-11.043151313360443,3.5981810859929144,4.350094539112121
1970-01-01 00:00:00.000000027,0.10903703992614378,-11.809129967493545,2.878773843399612,4.368527836001597
1970-01-01 00:00:00.000000027,2.0332850462024856,-12.801558659375136,2.380511835386405,4.398765940521592
1970-01-01 00:00:00.000000027,3.5607680372020987,-13.85039213479251,2.127607412875302,4.427524016924295
1970-01-01 00:00:00.000000027,4.512224526576296,-14.651329483267954,2.072587809001837,4.44889177118994
1970-01-01 00:00:00.000000027,5.033212128761497,-15.285402395449426,2.28236494816703,4.439465081197528
1970-01-01 00:00:00.000000027,5.166687934152392,-15.837732514486548,2.7680684708881076,4.430277858524567
1970-01-01 00:00:00.000000027,5.222464772129698,-16.353689603447553,3.18516965805092,4.454532749205442
1970-01-01 00:00:00.000000027,5.376445253893284,-17.028271860624823,3.4151272144599583,4.572531045996094
1970-01-01 00:00:00.000000027,6.057465737600652,-17.77984405588375,3.4030717099069214,4.680421828228585
1970-01-01 00:00:00.000000027,7.123201890393768,-18.56571518932126,2.9296114119429753,4.807470533092742
1970-01-01 00:00:00.000000027,8.120648335369577,-19.67422220930664,2.5166802590365194,4.988336169759316
1970-01-01 00:00:00.000000027,8.928743822889345,-20.929522933477557,2.4795171105233536,5.133177336890027
1970-01-01 00:00:00.000000027,9.397088216626097,-21.89177230592713,2.7114064137541334,5.185386372932056
1970-01-01 00:00:00.000000027,9.335547958550455,-22.20169348071452,3.1750919066786265,5.115700336116632
1970-01-01 00:00:00.000000027,8.726396860340014,-21.81806888758122,3.7519578523523096,4.971215246001778
1970-01-01 00:00:00.000000027,7.91445002836544,-20.752112445602005,4.011824145209129,4.7879751023075805
1970-01-01 00:00:00.000000027,7.053498030616112,-19.44138698408447,3.864874227882024,4.648502433891318
1970-01-01 00:00:00.000000027,6.173774278726674,-18.09923572057702,3.405880411706523,4.58450077485986
1970-01-01 00:00:00.000000027,5.428460134885769,-16.612433036503454,2.469441323186019,4.555372680317399
1970-01-01 00:00:00.000000027,4.561539699184129,-15.094638395042116,1.3608531842904474,4.549189221684672
1970-01-01 00:00:00.000000027,3.2501207599951094,-13.91000235652394,0.5563959257655962,4.60234733627917
1970-01-01 00:00:00.000000027,1.3307114013438464,-14.085699689336396,0.05156235314821278,4.900724157621022
1970-01-01 00:00:00.000000027,-2.0368619653012145,-15.206577707865769,0.03309915692787513,5.461326225180358
1970-01-01 00:00:00.000000027,-7.0312769454539685,-13.139611678115878,-0.30559837117173316,5.454180425172272
1970-01-01 00:00:00.000000027,-15.708204066992868,-4.154103106306527,-1.1254206836085094,4.507189507428034
1970-01-01 00:00:00.000000027,-28.71609724682717,8.488465906348676,-0.8211219877483722,3.2963841318950213
1970-01-01 00:00:00.000000027,-43.82838054243535,17.909782780583548,3.0222272172649634,2.8590920146008743
1970-01-01 00:00:00.000000027,-53.87148544557146,23.162612295949728,8.258199980444932,2.782853146871859
1970-01-01 00:00:00.000000027,-53.1695164543255,27.331002854324055,10.549425899013107,1.9250063532050137
1970-01-01 00:00:00.000000027,-44.63909549011267,27.86106367715252,9.912898199261456,1.075727054016746
1970-01-01 00:00:00.000000027,-32.64502517685401,22.5628618183772,7.743970870629276,1.061579252831031
1970-01-01 00:00:00.000000027,-20.54550159128639,15.382145413798835,4.72025530249574,1.4296625251880763
1970-01-01 00:00:00.000000027,-11.026136156053614,9.525799946863334,0.7236578894275147,2.1068542779197568
1970-01-01 00:00:00.000000027,-3.6712424771385885,4.881009597044412,-3.6149358424197047,2.818769182179236
1970-01-01 00:00:00.000000027,0.7284966177951626,2.0192391035262824,-5.5691457045689985,3.054503329110879
1970-01-01 00:00:00.000000027,2.4320596437801894,1.5530617931517792,-5.837382585956595,2.8642460568018873
1970-01-01 00:00:00.000000027,2.652783988887817,2.302922224827121,-5.150691203003704,2.466442875796188
1970-01-01 00:00:00.000000027,2.2432423091698435,3.3584257007723983,-3.748692471551444,2.009108771287849
1970-01-01 00:00:00.000000027,2.1870479439677997,3.8717337608642826,-2.0668434640486355,1.573465771813116
1970-01-01 00:00:00.000000027,2.638544403808525,3.638244413990389,-0.34622248633439145,1.2311353970941992
1970-01-01 00:00:00.000000027,3.7013953193678475,3.384680995260241,0.49265191140409326,0.9878152861147793
1970-01-01 00:00:00.000000027,5.162087752942957,2.904636247245256,0.5543178834537648,0.8931808752148249
1970-01-01 00:00:00.000000027,6.843283361379566,1.9740407119139332,0.6574739733995332,0.8584211342381303
1970-01-01 00:00:00.000000027,8.724881458852145,0.9000063893808106,0.7030228132836198,0.8365429221653324
1970-01-01 00:00:00.000000027,10.753082765993225,-0.1507501006982459,0.5972600831917694,0.7981656201606167
1970-01-01 00:00:00.000000027,12.61059692558279,-1.208538436637543,0.4347201044897444,0.7724592517674758
1970-01-01 00:00:00.000000027,13.989891558116032,-2.2860646072650592,0.33390581928157825,0.7987670168120142
1970-01-01 00:00:00.000000027,14.869414134089816,-3.0486976710236346,0.29724530460894893,0.8075682486535196
1970-01-01 00:00:00.000000027,15.204706313176553,-3.32239451706279,0.3980953984696476,0.7587634481432626
1970-01-01 00:00:00.000000027,15.03318707104618,-3.1792008260108187,0.4280839177328386,0.702608072876302
1970-01-01 00:00:00.000000027,14.321392969497127,-2.7760198775061706,0.15017828804101718,0.7484721852417935
1970-01-01 00:00:00.000000027,13.302383680055797,-2.172336048369776,-0.5222703223394627,0.9039505049387131
1970-01-01 00:00:00.000000027,12.288526636738819,-1.2269475466613549,-1.6013711093903078,1.1051070879209992
1970-01-01 00:00:00.000000027,11.67869341846688,-0.1868258029582326,-2.946327722670211,1.249172535457516
1970-01-01 00:00:00.000000027,10.993454014096253,1.0270355241475426,-4.1050927453473935,1.263745784790463
1970-01-01 00:00:00.000000027,9.532721136314457,2.7676224017442914,-4.540338954907334,1.0196108586875847
1970-01-01 00:00:00.000000027,6.188783273663606,5.633282629921583,-4.049545730176925,0.49707046474884375
1970-01-01 00:00:00.000000027,-0.17814414408503332,9.639995781626164,-2.4884085843819723,0.007088623019683826
1970-01-01 00:00:00.000000027,-8.179324320148107,14.882439729706116,-0.40164979241606913,-0.52303162949636
1970-01-01 00:00:00.000000027,-16.287862312812948,22.006825338393693,1.7148126071022736,-1.2611844434658575
1970-01-01 00:00:00.000000027,-22.00919835996209,28.981650158053014,5.131395935306505,-2.5523328349512373
1970-01-01 00:00:00.000000027,-25.625923619952506,29.235828974513367,9.070977691649823,-2.8668922967400348
1970-01-01 00:00:00.000000027,-28.12924653538694,21.690336594779488,13.089606180212265,-1.502344978056243
1970-01-01 00:00:00.000000027,-27.1460766524967,14.245840541215765,15.19097063076517,-0.3070308960936683
1970-01-01 00:00:00.000000027,-24.462410009025163,8.756565647954526,13.875808480355815,0.8185281714364219
1970-01-01 00:00:00.000000027,-21.998945818637097,4.756405493265484,11.280831878551059,2.0290748225863737
1970-01-01 00:00:00.000000027,-18.375276783569188,0.9352783412632816,8.225547911572953,3.0321974674469434
1970-01-01 00:00:00.000000027,-14.886314451860864,-1.758372840553764,6.179479172521824,3.507583995084948
1970-01-01 00:00:00.000000027,-12.61861986024016,-3.641937547644989,5.639797235085884,3.7387876464172116
1970-01-01 00:00:00.000000027,-10.346558067746887,-5.587110249482562,5.08187687117584,3.97332291255919
1970-01-01 00:00:00.000000027,-8.140583528283788,-7.344603197759004,4.436314277287181,4.203176741306911
1970-01-01 00:00:00.000000027,-5.865886388433038,-8.947712175849329,3.9680725297391763,4.328722774889255
1970-01-01 00:00:00.000000027,-3.84401734285306,-10.528687597695829,3.6665819781482636,4.434085891181499
1970-01-01 00:00:00.000000027,-2.1835810842610743,-11.801401651656414,3.8050921905458313,4.4638573552944605
1970-01-01 00:00:00.000000027,-0.41043102773377305,-13.100803994660149,4.3292601689574,4.395225462136993
1970-01-01 00:00:00.000000027,1.3685446493843554,-14.527691747835066,4.477546827635987,4.396654336737323
1970-01-01 00:00:00.000000027,2.7171104097295276,-16.023710002310423,4.687667371789233,4.484414582346432
1970-01-01 00:00:00.000000027,3.950274632102214,-17.71073624260695,4.991214282612011,4.631091216555726
1970-01-01 00:00:00.000000027,5.30989896342265,-19.424611014861714,4.816675791950971,4.84341555587439
1970-01-01 00:00:00.000000027,6.469278973818943,-20.622161645826033,4.190631612896576,5.069538062886254
1970-01-01 00:00:00.000000027,7.445651289861404,-21.231923857392875,3.472207321305099,5.222751465104543
1970-01-01 00:00:00.000000027,8.33895810850115,-21.554625921369666,2.6441226447534216,5.32671783534963
1970-01-01 00:00:00.000000027,8.913245439272668,-21.539643957121996,1.9974361495036204,5.348771909802464
1970-01-01 00:00:00.000000027,9.040127465605716,-21.65423139409181,2.148182918677783,5.248463014151108
1970-01-01 00:00:00.000000027,8.27941110673653,-20.906530221644775,2.8465761165082863,4.999612691989971
1970-01-01 00:00:00.000000027,7.03452744645796,-19.78270592451294,2.9987508928506976,4.827268093383827
1970-01-01 00:00:00.000000027,5.054379124300401,-18.403365226657527,2.942862504008553,4.706600100922735
1970-01-01 00:00:00.000000028,1.8143821141751755,-15.928630913473523,2.388060997147233,4.727268671298004
1970-01-01 00:00:00.000000028,-1.4856309373019898,-13.203067314622015,1.2513865414720025,4.943065904629303
1970-01-01 00:00:00.000000028,-3.313445166583617,-10.635446799537084,-0.1818845956193027,4.951060293477869
1970-01-01 00:00:00.000000028,-5.249017426859055,-8.758999390447133,-1.9672737407619292,5.227368659704995
1970-01-01 00:00:00.000000028,-6.819142152136853,-9.419879933680312,-2.246849596096825,5.67236008541385
1970-01-01 00:00:00.000000028,-7.900094560279144,-10.258572813846417,-0.8784793487782889,5.5423494095444905
1970-01-01 00:00:00.000000028,-10.874755454114782,-8.158826985221886,0.9306662340349363,4.670642785239379
1970-01-01 00:00:00.000000028,-19.039350688718265,-2.106846775085278,3.429376679780076,3.534724561978219
1970-01-01 00:00:00.000000028,-31.40544198673002,5.39347154994926,7.532011612057222,2.7763523799093615
1970-01-01 00:00:00.000000028,-42.492391484356325,13.864231322797197,11.068589544846754,2.200366894363333
1970-01-01 00:00:00.000000028,-46.788480310751424,22.518213988453656,12.1473459216838,1.3509180904858313
1970-01-01 00:00:00.000000028,-42.61524615149051,26.573862192752173,10.856066167916374,0.6106618757610085
1970-01-01 00:00:00.000000028,-33.1611190955871,23.179589798838585,9.419965195041021,0.4804016377507003
1970-01-01 00:00:00.000000028,-22.275580083806286,16.486395278701362,7.4443270010022715,0.7114397460260888
1970-01-01 00:00:00.000000028,-13.483257197653726,10.151222813796338,5.525003919717807,1.0665360923587481
1970-01-01 00:00:00.000000028,-7.707847346551334,5.7370304710989455,4.121188608677329,1.3653690246651466
1970-01-01 00:00:00.000000028,-4.114562040112241,4.61508163546991,2.863570244165042,1.3048338029021778
1970-01-01 00:00:00.000000028,-1.690435915717996,4.74613761291176,1.8211719101024353,1.1310320797237865
1970-01-01 00:00:00.000000028,0.1844199363913932,4.71170292903528,0.9891403444879119,1.0540258652346313
1970-01-01 00:00:00.000000028,1.9882748743133105,4.483671964247396,0.39944788427784217,0.9814212745248121
1970-01-01 00:00:00.000000028,3.7419544129296813,3.9505706246621806,-0.10091694996919198,0.9374035656596789
1970-01-01 00:00:00.000000028,5.139297229294224,3.6309966335368733,-0.6749438015418661,0.9176612298985387
1970-01-01 00:00:00.000000028,6.254723546369258,3.7621148615265234,-1.4467893109688035,0.9051505220005269
1970-01-01 00:00:00.000000028,7.380649886531721,3.9144969368905156,-2.1699752854053598,0.879719673033085
1970-01-01 00:00:00.000000028,8.530364247955513,3.6090098305838234,-2.712835998910691,0.9169125456648677
1970-01-01 00:00:00.000000028,9.80073092200547,2.9817343407071855,-3.1236308333485407,0.9698094114597409
1970-01-01 00:00:00.000000028,11.0772948043208,2.226197422884323,-3.2968164471245647,0.9862461178305137
1970-01-01 00:00:00.000000028,12.211244167304022,1.525618472637571,-3.240390843547161,0.9487826651386939
1970-01-01 00:00:00.000000028,13.049543732783755,0.8565323165826966,-3.0527053503964297,0.911841318873625
1970-01-01 00:00:00.000000028,13.563097907201103,0.40505245286518177,-2.878355239386046,0.865155821925879
1970-01-01 00:00:00.000000028,13.601553317455178,0.13699990133053008,-2.8557701224731655,0.8944063633855388
1970-01-01 00:00:00.000000028,13.404260184515994,0.10838025520752392,-3.16300269524137,0.9881758613389293
1970-01-01 00:00:00.000000028,13.107344810548147,0.25817870803764165,-3.826390930279312,1.1451781112368853
1970-01-01 00:00:00.000000028,12.840078728294065,0.12673266077962664,-4.3852646233291015,1.3358454407347127
1970-01-01 00:00:00.000000028,12.585129395558807,-0.11996253076712016,-4.859319563386424,1.5290076245276316
1970-01-01 00:00:00.000000028,12.334594053538446,-0.07052823765430416,-5.271170834265989,1.632477675056593
1970-01-01 00:00:00.000000028,11.937170575605112,0.18313950387848177,-5.494853572017571,1.6552534914849422
1970-01-01 00:00:00.000000028,11.21374533479901,0.45393103710698557,-5.401239415474511,1.637927289477416
1970-01-01 00:00:00.000000028,10.062715126303363,1.1494296451803414,-5.012179498623346,1.5351389712830408
1970-01-01 00:00:00.000000028,8.611079220386072,1.8279377486142014,-4.680338681503276,1.4480178007238487
1970-01-01 00:00:00.000000028,6.341900137085679,1.9922702943459403,-4.069584175022559,1.4886468749107842
1970-01-01 00:00:00.000000028,2.8922671350120206,2.3369957818237443,-3.07479846100861,1.5090079046714275
1970-01-01 00:00:00.000000028,-2.3401525764205653,4.785695640413032,-1.2708944466917254,1.0735708764426872
1970-01-01 00:00:00.000000028,-10.222313675214936,10.76298153412569,1.146843425128858,0.2535252837848816
1970-01-01 00:00:00.000000028,-18.77021805013966,18.85430869763426,3.5251698418241766,-0.7989607978906959
1970-01-01 00:00:00.000000028,-26.706773380213754,22.76728959159173,6.2466785937165215,-0.9716060375344497
1970-01-01 00:00:00.000000028,-32.21013161571787,21.50037005233282,9.523011965510701,-0.40661793884331576
1970-01-01 00:00:00.000000028,-34.48167563820073,20.27606744905895,10.658010102737787,0.16621181613868563
1970-01-01 00:00:00.000000028,-33.92269806201833,17.96804783240278,11.007857568552563,0.7988582344379158
1970-01-01 00:00:00.000000028,-30.05578719986863,13.063143733911971,11.006063956277046,1.4948047214874127
1970-01-01 00:00:00.000000028,-24.488120164870974,7.100135928322823,10.019172196030729,2.3140966905316978
1970-01-01 00:00:00.000000028,-18.256610577101924,1.5754230026436034,7.94648200839194,3.0606270944144587
1970-01-01 00:00:00.000000028,-12.888409541194038,-2.6527716958770142,5.6967851916202425,3.6237025194341896
1970-01-01 00:00:00.000000028,-9.026212802497872,-4.768060697690885,3.7989162589863916,3.851463523647652
1970-01-01 00:00:00.000000028,-6.7153139107567466,-5.030851442572515,2.4279695002166535,3.809752817963676
1970-01-01 00:00:00.000000028,-5.436524108518288,-4.3890027465429045,1.9321857520874732,3.5777125663024982
1970-01-01 00:00:00.000000028,-4.4742175684869645,-3.846312909109955,2.11695561112089,3.304320776886529
1970-01-01 00:00:00.000000028,-3.276633812124333,-3.917188934280369,2.5198726133222324,3.073129774486492
1970-01-01 00:00:00.000000028,-2.0128276403285956,-4.474830527246094,2.612562737793368,3.0030654231696374
1970-01-01 00:00:00.000000028,-0.6677761774096496,-5.098607403586459,2.573949204876384,2.9541890485782596
1970-01-01 00:00:00.000000028,0.5673667890245457,-5.906269364274025,2.665365799183308,2.931263393464509
1970-01-01 00:00:00.000000028,1.6759478031697737,-7.0090165165277725,3.002576288357379,2.941495989954827
1970-01-01 00:00:00.000000028,2.7127938122553727,-8.222932648645626,3.2684379197961175,2.9932967683529292
1970-01-01 00:00:00.000000028,3.5613675386191597,-9.409630543800521,3.3457819992414524,3.117975708384789
1970-01-01 00:00:00.000000028,4.389945480592594,-10.423680247811053,3.231087845880493,3.2453836439007335
1970-01-01 00:00:00.000000028,5.109203778505063,-11.523140546603031,3.150185440026663,3.403902777136799
1970-01-01 00:00:00.000000028,5.764153801884062,-13.107005720934676,3.418027824375218,3.644024628035575
1970-01-01 00:00:00.000000028,6.916433748839417,-15.109396880275625,3.89318285646205,3.8813037178884473
1970-01-01 00:00:00.000000028,8.731219824689719,-17.424546586982434,3.6200727596254128,4.213263714184681
1970-01-01 00:00:00.000000028,10.657194042769179,-19.733637565350353,2.7185050563240214,4.636464467704509
1970-01-01 00:00:00.000000028,12.37834299944117,-21.519411997901628,1.6438194406986002,4.975457093119548
1970-01-01 00:00:00.000000028,13.4388314745538,-22.728794600998988,0.9763116195328378,5.1524933232245935
1970-01-01 00:00:00.000000028,13.399135745860754,-23.05825103682966,1.0663854789296712,5.1315783258930425
1970-01-01 00:00:00.000000028,12.38286244459155,-22.4210870564093,1.7389926485611291,4.962942312587533
1970-01-01 00:00:00.000000028,11.081239001058831,-21.26696028622905,2.1805552322125967,4.801927813669748
1970-01-01 00:00:00.000000028,9.874566102604662,-20.316744214849184,2.106095078104497,4.799129613127859
1970-01-01 00:00:00.000000028,8.990373358095207,-19.83590375865765,1.8832416326508845,4.86372599653172
1970-01-01 00:00:00.000000028,8.107643936730952,-19.206415558800188,1.0376707135755994,4.95763850304186
1970-01-01 00:00:00.000000028,6.282155955106655,-17.74125564888219,-0.6200716860445672,5.128498765369819
1970-01-01 00:00:00.000000028,2.9247204512704625,-15.53477140853897,-2.7568906842992886,5.424468214129871
1970-01-01 00:00:00.000000028,-2.305869189450259,-13.069008840607541,-4.437413248973454,5.850631056906362
1970-01-01 00:00:00.000000028,-8.932990293217093,-9.451465904976487,-4.9262656550970725,6.059496204935181
1970-01-01 00:00:00.000000028,-15.597836440708768,-3.9314505531477337,-4.13263939803802,5.584811016659752
1970-01-01 00:00:00.000000028,-22.292288359786433,2.4846222026378166,-1.9726768592787605,4.552646977234955
1970-01-01 00:00:00.000000028,-29.972773844747447,6.796770571537095,2.4008847446805404,3.757102415559681
1970-01-01 00:00:00.000000028,-36.97443341970254,8.771770111572762,7.540151848362282,3.522629625292053
1970-01-01 00:00:00.000000028,-39.20953739318248,12.138219346140168,9.530412066313376,3.0910188722451264
1970-01-01 00:00:00.000000028,-36.05497639207721,16.844313146436317,6.915134854323374,2.4589653372577063
1970-01-01 00:00:00.000000028,-29.867510436982986,17.96399488055481,3.4839882733320686,2.2467290063342453
1970-01-01 00:00:00.000000028,-22.022548085785136,14.946314122511573,1.165314019610411,2.3554078274418213
1970-01-01 00:00:00.000000028,-13.932028443033815,10.173240439403786,-0.6837557317046178,2.5759608464480652
1970-01-01 00:00:00.000000028,-7.319683879713239,5.210260071852527,-1.8976364451731118,2.8145418568248313
1970-01-01 00:00:00.000000028,-3.214658280926855,1.5763053238545677,-1.979904464729288,2.8791176107693874
1970-01-01 00:00:00.000000028,-1.2811525936380455,0.4935733378194352,-0.6661944369190147,2.4551477992542
1970-01-01 00:00:00.000000028,-0.7220105918815379,1.0844686442727993,0.8269485149186016,1.8840913158035852
1970-01-01 00:00:00.000000028,-0.6509725009380709,1.985964585913118,1.692688868087529,1.5041267555156788
1970-01-01 00:00:00.000000028,-0.28532265733700535,2.9271240761545947,1.7661998242182164,1.2578044835997855
1970-01-01 00:00:00.000000028,0.4482809049496772,3.8280076195354633,1.0263285350794689,1.128140950660406
1970-01-01 00:00:00.000000029,1.2929913784747238,4.418115580063702,0.1837045516886755,1.080959612698507
1970-01-01 00:00:00.000000029,2.3449049303617295,5.0323433402308195,-0.7450753414385245,1.018923389952155
1970-01-01 00:00:00.000000029,3.548782295897098,5.633417855551261,-1.8724755211467115,0.9981596650988336
1970-01-01 00:00:00.000000029,5.115669615911001,5.752491696001432,-2.8792107931743347,1.0038650037713595
1970-01-01 00:00:00.000000029,7.033810940877187,5.382892936530973,-3.4171808945158415,0.9451549364786795
1970-01-01 00:00:00.000000029,9.032198207150183,4.743755640338543,-3.4765353087490825,0.8133808308639003
1970-01-01 00:00:00.000000029,10.906372389185844,3.9428459759046413,-3.204935818414706,0.6503886198479756
1970-01-01 00:00:00.000000029,12.515165647955527,3.101207756898864,-2.9186097406367164,0.5251584525495416
1970-01-01 00:00:00.000000029,13.843864571487487,2.258328737590849,-2.878961901550305,0.38737937592247285
1970-01-01 00:00:00.000000029,14.810925521049713,1.5272170284843498,-3.4098127307913337,0.4783307517814195
1970-01-01 00:00:00.000000029,15.147700231368876,1.0227623004454296,-4.389750560856719,0.7144793751284535
1970-01-01 00:00:00.000000029,14.975311595689888,0.832307968846641,-5.3685095270357674,0.9482524459850488
1970-01-01 00:00:00.000000029,14.24174139882343,1.2403011494165344,-6.019258378105894,1.0697821414645452
1970-01-01 00:00:00.000000029,13.131039334638727,2.3082405599903564,-5.999049187232288,0.9789800521423508
1970-01-01 00:00:00.000000029,11.951319186931762,3.3280494677746026,-5.209214179714875,0.7492319478236591
1970-01-01 00:00:00.000000029,10.824976802825326,3.914682244612913,-4.034146490379706,0.506566897779662
1970-01-01 00:00:00.000000029,9.590784984604865,4.338504331104524,-2.9926078662073587,0.2889046705508318
1970-01-01 00:00:00.000000029,7.610890713160337,5.583698599893959,-2.4075019925329015,0.043320295772159234
1970-01-01 00:00:00.000000029,4.21135539000374,7.793475283213451,-2.387828514999955,-0.1064420835282558
1970-01-01 00:00:00.000000029,-0.7500044646324708,10.54388292201881,-2.6101190373153003,-0.07281049189056477
1970-01-01 00:00:00.000000029,-6.871258311881872,12.812600381306392,-2.4141487225003577,0.20249275648903264
1970-01-01 00:00:00.000000029,-13.19251748371131,14.806156575525529,-0.6620672679220552,0.3406413033603024
1970-01-01 00:00:00.000000029,-18.14197301299702,18.17829488528442,2.7630002160058127,-0.3898126543665237
1970-01-01 00:00:00.000000029,-22.42116672848588,20.90310696315326,5.408374736078445,-0.8295841512633491
1970-01-01 00:00:00.000000029,-25.40207950927058,15.346393147868927,7.778917686128718,0.6475377822670514
1970-01-01 00:00:00.000000029,-23.251729074524302,10.83471359966491,6.257608359753892,1.7140070268238585
1970-01-01 00:00:00.000000029,-20.838760599439702,5.8809996829176026,6.616633667060747,2.4614747658051956
1970-01-01 00:00:00.000000029,-17.74572820024304,1.3777824257622697,7.067005237538235,3.062013420562054
1970-01-01 00:00:00.000000029,-13.09330210975517,-3.5078771851889865,6.61550474861908,3.526581775511473
1970-01-01 00:00:00.000000029,-9.267769925402039,-6.090865962445615,5.426223438595992,3.670992165660579
1970-01-01 00:00:00.000000029,-7.457171533438185,-6.7482288872179135,4.839803007097401,3.678178794942639
1970-01-01 00:00:00.000000029,-5.905246102375656,-7.46123131505858,4.648540430413764,3.6806151591639944
1970-01-01 00:00:00.000000029,-4.142964941859635,-8.370725297282679,4.755079936155624,3.67341900856053
1970-01-01 00:00:00.000000029,-1.6609665600391588,-9.545703291158251,4.491266266203558,3.6450436763793235
1970-01-01 00:00:00.000000029,0.8129143756005932,-10.347588862565885,4.024783952764429,3.52413213909875
1970-01-01 00:00:00.000000029,2.4898551815287715,-11.431846034359896,3.8352504221971078,3.554571227041679
1970-01-01 00:00:00.000000029,4.004745959189165,-12.606294363727566,3.982937147981463,3.5459478764438543
1970-01-01 00:00:00.000000029,5.184750004932645,-13.71034604062443,4.181808318962319,3.5544743665959144
1970-01-01 00:00:00.000000029,5.997652283917809,-14.743709683770922,4.255226513362182,3.644896255000522
1970-01-01 00:00:00.000000029,6.735996478015139,-15.418559061609649,4.160563901397192,3.699678061992522
1970-01-01 00:00:00.000000029,7.303539572995876,-15.70442274155259,3.932961062498782,3.740070840928274
1970-01-01 00:00:00.000000029,7.908846326245102,-16.190894445127253,3.689345301252988,3.8328923422474497
1970-01-01 00:00:00.000000029,8.659754483618148,-17.275231783397967,3.35385756481715,4.063215077231564
1970-01-01 00:00:00.000000029,9.679405527371355,-18.67490523612816,2.9302674193004323,4.330070397488795
1970-01-01 00:00:00.000000029,10.745032161845831,-20.31501254395998,2.645559804397285,4.621579887062263
1970-01-01 00:00:00.000000029,11.992790748239665,-22.08924676268078,2.491033987537299,4.8344704252968915
1970-01-01 00:00:00.000000029,12.7839180423769,-22.812555840432708,2.1444520670982055,4.8319129879362706
1970-01-01 00:00:00.000000029,11.96482501917932,-22.388206986965045,2.1207257661514176,4.729431375013144
1970-01-01 00:00:00.000000029,9.620416980161218,-20.663013736511804,2.621162690103319,4.509450392524721
1970-01-01 00:00:00.000000029,6.634027094292267,-17.94500751700287,2.968823248488116,4.234582788997905
1970-01-01 00:00:00.000000029,3.4958784226177757,-14.79337660727639,2.845877634364802,4.023794709701199
1970-01-01 00:00:00.000000029,0.6498963153386303,-11.598284301681165,2.247749457139692,3.9264481347062627
1970-01-01 00:00:00.000000029,-1.2634135035202996,-9.342899892154312,0.6107573543677653,4.148401757322755
1970-01-01 00:00:00.000000029,-2.0999953766118917,-9.572368218691645,-1.6696563214160463,4.808741064795905
1970-01-01 00:00:00.000000029,-2.969607731894984,-11.390232809134153,-3.4706688292147416,5.549113379546302
1970-01-01 00:00:00.000000029,-5.760110062833495,-10.56302689089789,-4.137511330349245,5.558908103980851
1970-01-01 00:00:00.000000029,-12.49647071020368,-4.376020036945033,-2.306663882049877,4.367575820095002
1970-01-01 00:00:00.000000029,-23.719034709499546,5.237322987154441,1.4344236087743087,2.833173316350138
1970-01-01 00:00:00.000000029,-37.09721588034392,12.638237361593035,5.390597990434293,2.6232975768304914
1970-01-01 00:00:00.000000029,-44.43710000559572,18.529276098950383,9.895912456044497,2.1707487651596917
1970-01-01 00:00:00.000000029,-41.638609669665875,21.31015925912522,11.956980271825064,1.2855582155328724
1970-01-01 00:00:00.000000029,-32.26161068934551,18.95232995838185,10.049860944182672,1.0373262991722634
1970-01-01 00:00:00.000000029,-21.50729563560874,14.014436764833688,6.500952368755846,1.2246361937609225
1970-01-01 00:00:00.000000029,-13.126917876767711,8.1876350055019,3.9760253255989895,1.6687204297398728
1970-01-01 00:00:00.000000029,-7.531677845942243,3.473644806938671,3.5236678456372177,1.8934490164300015
1970-01-01 00:00:00.000000029,-3.647369879683689,1.3100560853944112,3.1222878101580065,1.8043815014159765
1970-01-01 00:00:00.000000029,-1.2961336271432282,0.8622307748126742,2.242464304731847,1.6799099818976935
1970-01-01 00:00:00.000000029,-0.07368857162575448,1.3408313415462034,1.29490492460034,1.5645417008140639
1970-01-01 00:00:00.000000029,0.5583436925871395,2.330580029334766,0.46033324187741886,1.443777706475697
1970-01-01 00:00:00.000000029,1.2088145980320693,3.098003787020514,-0.1027330573817904,1.3213278945518983
1970-01-01 00:00:00.000000029,1.999488502602649,3.4478187427715383,-0.6018292686331428,1.2550691529712497
1970-01-01 00:00:00.000000029,2.9194562914970694,3.27547844467599,-0.8642810188478377,1.2386125965309485
1970-01-01 00:00:00.000000029,4.034586434979326,2.8906091934693583,-1.0832483102694819,1.2286780673468234
1970-01-01 00:00:00.000000029,5.2776132106862725,2.4309524722878693,-1.4734406651372065,1.2363750991181073
1970-01-01 00:00:00.000000029,6.434647988913687,2.176494915303061,-2.0182622914350414,1.2255341498356207
1970-01-01 00:00:00.000000029,7.272660458995995,2.254405961453796,-2.349645483049279,1.1637398509970305
1970-01-01 00:00:00.000000029,8.150290279205231,2.7514182710647566,-2.1132135237802485,0.8950912381935776
1970-01-01 00:00:00.000000029,9.18368031308136,3.4217310557717466,-1.8192759605403246,0.5322644627001742
1970-01-01 00:00:00.000000029,10.104013933120228,3.99324075798852,-1.649316887591537,0.22466696192128754
1970-01-01 00:00:00.000000029,10.846327869014283,4.69476834668552,-1.6632810676643983,-0.02656037006474765
1970-01-01 00:00:00.000000029,11.632514935105164,5.134044545199973,-1.890731996667846,-0.18255982699741224
1970-01-01 00:00:00.000000029,12.401797264016803,5.002566931204655,-2.308350284877127,-0.18372521738119652
1970-01-01 00:00:00.000000029,12.987486099183766,4.762701341341504,-3.1072869509990175,-0.05988511428535004
1970-01-01 00:00:00.000000029,13.283025586731231,4.775327580074219,-4.403439097036284,0.1424826107293069
1970-01-01 00:00:00.000000029,13.077719996401962,4.5419483555695965,-5.4147636340724175,0.41841782287824225
1970-01-01 00:00:00.000000029,12.562813270442577,4.216119723509918,-5.936337319713929,0.6543374941818916
1970-01-01 00:00:00.000000029,11.797012095145215,4.401475440439925,-6.008152736961359,0.7475829652698613
1970-01-01 00:00:00.000000029,11.181958735163818,4.881972013234746,-5.77553173337607,0.6793545969646213
1970-01-01 00:00:00.000000029,10.608054294005669,5.667198587611354,-5.425774393479275,0.49111800748139967
1970-01-01 00:00:00.000000029,9.827094422265283,6.639084312727899,-4.963682430108176,0.2282232494831149
1970-01-01 00:00:00.000000029,8.418802939868018,7.896314237360674,-4.285414838122765,-0.1301567061257365
1970-01-01 00:00:00.000000029,5.443737659810294,9.02798908157902,-3.025929213637176,-0.38516814531533416
1970-01-01 00:00:00.000000029,0.65624234644413,9.87893857618154,-2.145126319173049,-0.10913842248648109
1970-01-01 00:00:00.000000029,-4.1483670155492165,10.705408585063328,-2.6404252942946798,0.5811840319140051
1970-01-01 00:00:00.000000029,-7.522428822492131,12.658996588133165,-3.904453259178303,0.9337078357628104
1970-01-01 00:00:00.000000030,-10.524596050104744,14.442982122078273,-4.92432987597351,1.1251075452210393
1970-01-01 00:00:00.000000030,-14.245467551338002,12.980123039376483,-2.123851060710199,1.2634954005950247
1970-01-01 00:00:00.000000030,-18.757621266690656,10.97101335831902,4.031024654030813,0.8306388720711926
1970-01-01 00:00:00.000000030,-25.1273539010764,11.003529543153734,9.977808627458797,0.32074323723711196
1970-01-01 00:00:00.000000030,-32.482259315992955,11.867295894469754,15.362819874993091,0.21313730496120709
1970-01-01 00:00:00.000000030,-36.7818938257545,12.22749234702297,18.882360736849037,0.6386939202037791
1970-01-01 00:00:00.000000030,-33.04287089595542,6.635294546376816,17.071217091157056,2.2825927957609813
1970-01-01 00:00:00.000000030,-22.515346046377577,-1.5387114298748883,11.076328889365177,3.6678369143100995
1970-01-01 00:00:00.000000030,-15.361410516127547,-5.13577395612425,7.784392118576732,4.184430271479544
1970-01-01 00:00:00.000000030,-10.173666244526679,-7.115258811436323,6.1141848862489665,4.123643443890832
1970-01-01 00:00:00.000000030,-6.957418614338534,-8.256659675207192,5.768154087595404,3.9234334452330373
1970-01-01 00:00:00.000000030,-4.770661491528543,-8.768800418953761,5.921727479030709,3.654748031815674
1970-01-01 00:00:00.000000030,-3.2136339875475164,-8.97501853737617,5.39442094540208,3.58063296716896
1970-01-01 00:00:00.000000030,-1.8412381794814212,-8.84502638153048,4.6893117554980215,3.5339522446293996
1970-01-01 00:00:00.000000030,-0.23553613901771275,-9.058245290295062,4.4994449266965475,3.4184625656872596
1970-01-01 00:00:00.000000030,1.5449119824447062,-9.937100301142664,4.586197420602431,3.3549696384309264
1970-01-01 00:00:00.000000030,3.4130906563073555,-11.088797692276627,4.482550577849523,3.3703192744387187
1970-01-01 00:00:00.000000030,5.223343258471777,-12.156345524438821,3.746760047221918,3.497679091512259
1970-01-01 00:00:00.000000030,6.756041436607969,-13.715911275657977,3.0965908890560954,3.7835728425166577
1970-01-01 00:00:00.000000030,8.41963934559993,-16.247885366336128,3.03656750928298,4.134097662638266
1970-01-01 00:00:00.000000030,10.166919652605548,-19.100665944268187,3.01705953273359,4.513328174076234
1970-01-01 00:00:00.000000030,11.717886520588738,-21.817677778400466,2.826457225028398,4.928116842135218
1970-01-01 00:00:00.000000030,13.15427060575795,-23.64277162749771,2.381147988080663,5.1796254628322576
1970-01-01 00:00:00.000000030,13.977978042305422,-24.316807934096527,2.184886683090164,5.192055338487657
1970-01-01 00:00:00.000000030,13.97025065475185,-24.164100818955962,2.357734229506315,5.052746904696852
1970-01-01 00:00:00.000000030,13.096993691294587,-23.257368629380366,2.5804830619143426,4.88859309087229
1970-01-01 00:00:00.000000030,11.77857595446475,-21.74645609850205,2.353704517992822,4.77759907887727
1970-01-01 00:00:00.000000030,10.352088944069322,-20.08359090306746,1.7828940509991003,4.719873620132658
1970-01-01 00:00:00.000000030,8.761272987956138,-18.49679908154498,1.0481340617576378,4.72262432169012
1970-01-01 00:00:00.000000030,6.863862264719119,-16.503282873975365,0.3434270411301539,4.667620944383891
1970-01-01 00:00:00.000000030,4.579298906218354,-14.149828695454463,-0.08359413090823842,4.5450874512211366
1970-01-01 00:00:00.000000030,2.1254360683500124,-11.975208384771552,-0.03358505712891002,4.416560211320913
1970-01-01 00:00:00.000000030,-0.05258175849737601,-10.598264201482827,0.5093310803226525,4.334508200548628
1970-01-01 00:00:00.000000030,-1.7746014562158385,-10.17319958784567,0.5402496932601055,4.419823125122004
1970-01-01 00:00:00.000000030,-4.224687192998733,-10.210245409227664,-0.5547101011773092,4.91853189307909
