time,ax,ay,az,speed
1970-01-01 00:00:00.000000000,0.0007435448739597818,-0.05384644346046199,-0.06403516544371458,-0.978941194116858
1970-01-01 00:00:00.000000000,0.05890201444908556,-0.033345860181550724,-0.05297068132743291,-0.9631781436577489
1970-01-01 00:00:00.000000000,0.05521955318849645,-0.03186489897054425,-0.051546347926126904,-0.962241802171519
1970-01-01 00:00:00.000000000,0.04531778369642176,-0.022122124206422726,-0.0338964248612659,-0.9624662271565365
1970-01-01 00:00:00.000000000,0.035338112300512224,-0.003261334830158155,-0.051486003555339374,-0.9621752112822398
1970-01-01 00:00:00.000000000,0.0359605100816951,-0.011557843493389335,-0.051849598418429385,-0.961888404749469
1970-01-01 00:00:00.000000000,0.035946511822759666,-0.012189264248193991,-0.05184197849910319,-0.9622005417102759
1970-01-01 00:00:00.000000000,0.04501130182264883,-0.012826262020027485,-0.04315779186952237,-0.962800192240139
1970-01-01 00:00:00.000000000,0.04376436955301219,-0.014128385046555413,-0.043426976732028326,-0.9634132235274995
1970-01-01 00:00:00.000000000,0.06310355168178763,-0.03274079830823503,-0.04347124396652424,-0.9634575070736265
1970-01-01 00:00:00.000000000,0.0630778696931901,-0.03336129724920379,-0.04378473833754642,-0.9634275954338336
1970-01-01 00:00:00.000000000,0.0640371469710467,-0.03147284177662093,-0.05217530550357716,-0.9625461839962222
1970-01-01 00:00:00.000000000,0.044687124385588896,-0.003875490639360199,-0.05241857017883533,-0.9627894323839635
1970-01-01 00:00:00.000000000,0.044688319096643385,-0.002873455206042548,-0.042834139044908785,-0.9624765400907164
1970-01-01 00:00:00.000000000,0.025995887548879083,-0.011207727619926694,-0.04160311172984776,-0.9615770777615303
1970-01-01 00:00:00.000000000,0.025994768536599627,-0.012132451557797644,-0.04284713868678712,-0.9625018204964335
1970-01-01 00:00:00.000000000,0.05401468981525307,-0.003840416829749241,-0.05274158520254315,-0.9634440280313221
1970-01-01 00:00:00.000000000,0.05311604725622073,-0.004454095837556064,-0.0440709547740052,-0.9633822293413975
1970-01-01 00:00:00.000000000,0.04378534428338465,-0.03142605919762183,-0.052180082108940776,-0.9628820525997569
1970-01-01 00:00:00.000000000,0.07307513095167195,-0.023677221169486583,-0.04441898083864548,-0.9640609095232924
1970-01-01 00:00:00.000000000,0.06183142545923845,-0.005109467499039247,-0.0443829556549994,-0.9640130596496516
1970-01-01 00:00:00.000000000,0.05313897598400463,-0.01281348266499812,-0.052455903206772826,-0.9628267823777376
1970-01-01 00:00:00.000000000,0.045017874025833314,-0.02079388269559599,-0.05186574916752445,-0.9622493827889312
1970-01-01 00:00:00.000000000,0.044383608220054833,0.005871117477738771,-0.04342685672255472,-0.9634140853295765
1970-01-01 00:00:00.000000000,0.042503543259139125,0.01523138149933323,-0.034742055436652576,-0.9640135942048415
1970-01-01 00:00:00.000000000,0.04251481649974803,0.006870274620978653,-0.04311454845034128,-0.9634588665844169
1970-01-01 00:00:00.000000000,0.0428238198035979,0.005901529156697449,-0.04371525683297733,-0.9637403076848319
1970-01-01 00:00:00.000000000,0.0524992245780026,-0.0037599783696457487,-0.04342837701955375,-0.9637604318855486
1970-01-01 00:00:00.000000000,0.05219993922619435,-0.013670568607681385,-0.03510054616552469,-0.964040976695524
1970-01-01 00:00:00.000000000,0.061863295058257106,-0.01409423122205445,-0.05303522663389416,-0.9640947960778699
1970-01-01 00:00:00.000000000,0.0715274396034215,-0.014707193659925982,-0.04468409222176792,-0.9643520366791097
1970-01-01 00:00:00.000000000,0.061863412144014474,-0.02335246840932651,-0.043787734167214994,-0.9637626650714802
1970-01-01 00:00:00.000000000,0.06280662271702428,-0.0220422861788492,-0.04381756308002349,-0.9634727530378351
1970-01-01 00:00:00.000000000,0.0525932444410692,0.014278006441785555,-0.05321920413203799,-0.963934402088683
1970-01-01 00:00:00.000000000,0.049383979449757476,0.006650084218951843,-0.04399932437310497,-0.9636544792447084
1970-01-01 00:00:00.000000000,0.042918629593295454,0.006573157114114651,-0.043463664297606695,-0.9634376478742374
1970-01-01 00:00:00.000000000,0.04314489598786458,0.006560528385582048,-0.043784241138857954,-0.9634266428362674
1970-01-01 00:00:00.000000000,0.043147689381668956,0.006203339076575352,-0.053068616671562985,-0.9634394789249856
1970-01-01 00:00:00.000000000,0.05282260281659591,-0.003404837639767462,-0.053402873315043856,-0.9637737524600536
1970-01-01 00:00:00.000000000,0.061528254505110645,-0.004364561443457572,-0.04503956892777395,-0.9646824435896213
1970-01-01 00:00:00.000000000,0.07058256292110776,0.003585922131770756,-0.04464124426948055,-0.9646279809943477
1970-01-01 00:00:00.000000000,0.052512423717902504,-0.03140385749177712,-0.042862342841254134,-0.9628613597508175
1970-01-01 00:00:00.000000000,0.0543928599114252,-0.031712350864293005,-0.042864288898898324,-0.9628510087322389
1970-01-01 00:00:00.000000000,0.05343556725291431,-0.0044288371752486885,-0.04407267876010143,-0.9637150973507325
1970-01-01 00:00:00.000000000,0.052491086041390383,0.005843787140799611,-0.05338799761560721,-0.9637465797293173
1970-01-01 00:00:00.000000000,0.05281251311977231,0.00622389893386513,-0.053390447904254505,-0.9634297463837941
1970-01-01 00:00:00.000000000,0.043458145283092976,-0.00212415287775803,-0.052479732750581244,-0.96318220958444
1970-01-01 00:00:00.000000000,0.05219995480369525,0.014295978240668143,-0.0356903314874287,-0.9646179075220717
1970-01-01 00:00:00.000000000,0.05094143099877648,0.0052446904094388125,-0.04403009237634931,-0.9643721684778505
1970-01-01 00:00:00.000000000,0.06155123944293793,-0.013354237188859315,-0.043787062677052464,-0.9640955413829355
1970-01-01 00:00:00.000000000,0.061569515735494726,-0.013925180579061662,-0.036336685974480185,-0.9643235349318239
1970-01-01 00:00:00.000000000,0.061894078432936116,-0.0037474457627650337,-0.053425265950846776,-0.9637617090932414
1970-01-01 00:00:00.000000000,0.052810188867418596,0.0065139914779135735,-0.0623756482048756,-0.9634727640921756
1970-01-01 00:00:00.000000000,0.05249966377277591,0.015600647487490113,-0.04474180375974396,-0.9640274895744437
1970-01-01 00:00:00.000000000,0.0422019559334638,0.016236464543861528,-0.044120079448665854,-0.9637364805582602
1970-01-01 00:00:00.000000000,0.042836267333483904,0.016202023000657692,-0.05308221355034916,-0.9634393576947001
1970-01-01 00:00:00.000000000,0.04315846976992998,0.0068933453328981,-0.053424497551740724,-0.9634509883396136
1970-01-01 00:00:00.000000000,0.05218673768127139,0.005281367880332052,-0.05401615345389187,-0.9643742605821148
1970-01-01 00:00:00.000000000,0.07089079954987512,-0.004327921488450889,-0.04504315462786286,-0.9646855563020009
1970-01-01 00:00:00.000000000,0.060927353046085445,-0.00437372789086999,-0.04438750132074605,-0.9643742393942555
1970-01-01 00:00:00.000000000,0.06126276923001897,-0.0047080778948020985,-0.04436472736205741,-0.9643642536726638
1970-01-01 00:00:00.000000000,0.061550405278796565,-0.013368259689478725,-0.04408402187550167,-0.9640844941883676
1970-01-01 00:00:00.000000000,0.06185012292536843,-0.004371181270291631,-0.044040110825655544,-0.9640533369624241
1970-01-01 00:00:00.000000000,0.05249768054798055,-0.002770460193432099,-0.04311579600222237,-0.9634724293821098
1970-01-01 00:00:00.000000000,0.04253581691532929,0.015243567933166849,-0.03441156934881678,-0.9640274444690045
1970-01-01 00:00:00.000000000,0.04158939420054947,0.015276559620184392,-0.035066811184600595,-0.96433880604977
1970-01-01 00:00:00.000000000,0.05187504316867042,0.006558921566864419,-0.05305695288035154,-0.9637849391197334
1970-01-01 00:00:00.000000000,0.052196468292756586,0.0056028637133642215,-0.05368237555668637,-0.9640660091548255
1970-01-01 00:00:00.000000000,0.061248804358296015,-0.003981849653101499,-0.04506743549727788,-0.9646975564076504
1970-01-01 00:00:00.000000000,0.06997817658945539,0.004367335042613534,-0.04565824348008502,-0.965287874462008
1970-01-01 00:00:00.000000000,0.06966605218394756,0.004965341677596956,-0.054639692591091936,-0.9650096081926445
1970-01-01 00:00:00.000000000,0.07030115644958146,0.004980139779895809,-0.054330206952005335,-0.9646882972119999
1970-01-01 00:00:00.000000000,0.0609250471675997,-0.0033137283873380594,-0.045088055879975567,-0.9643865772982694
1970-01-01 00:00:00.000000000,0.06154929597494477,0.015235175338954611,-0.0533613202303765,-0.9640633082643133
1970-01-01 00:00:00.000000000,0.04222177623024154,0.016245081588545342,-0.04408597129073774,-0.9637411267887478
1970-01-01 00:00:00.000000000,0.0422342154552243,0.016256002746314002,-0.044085929425001426,-0.964073139837333
1970-01-01 00:00:00.000000000,0.05093948948568566,0.023937630986805146,-0.044963484759412975,-0.9649630103943544
1970-01-01 00:00:00.000000000,0.06029149911425725,0.005302158330409028,-0.04468603464616256,-0.9646860163772558
1970-01-01 00:00:00.000000000,0.06124879128932168,-0.013308958355194564,-0.044089052976405176,-0.9640890340809906
1970-01-01 00:00:00.000000000,0.06154807417967339,-0.013334213864266288,-0.04440857566037587,-0.9644080837530915
1970-01-01 00:00:00.000000000,0.07059112454983811,0.013273509471786064,-0.04495416440196897,-0.9649409018007071
1970-01-01 00:00:00.000000000,0.05126399298332795,-0.0030474695952107597,-0.044120302390497634,-0.9637627040637095
1970-01-01 00:00:00.000000000,0.05283309768062385,-0.0023885739279372667,-0.05312738552692065,-0.9634854933049068
1970-01-01 00:00:00.000000000,0.05217429844899956,0.02456191691077061,-0.054313163466507886,-0.9643396717989215
1970-01-01 00:00:00.000000000,0.05155321531081193,0.025196925923907043,-0.053691432663632147,-0.9640490498608077
1970-01-01 00:00:00.000000000,0.042523363114291314,0.007288104859291343,-0.04382249662699104,-0.9634516526183129
1970-01-01 00:00:00.000000000,0.042845581589886,0.006964805595110202,-0.044133075946965854,-0.9637626705154815
1970-01-01 00:00:00.000000000,0.051562919212125594,0.024239206143395555,-0.054292994006397574,-0.9646628913649987
1970-01-01 00:00:00.000000000,0.06060321977808901,0.014943220038759333,-0.05432830246355287,-0.9646859365772746
1970-01-01 00:00:00.000000000,0.0609378450095242,-0.0033022193113449935,-0.04510112672397668,-0.9643873504358618
1970-01-01 00:00:00.000000000,0.06093668043801244,0.004980687531238023,-0.05431829010747591,-0.9646886962146595
1970-01-01 00:00:00.000000000,0.07058877842621952,0.005279942728090622,-0.0539935461045304,-0.964708287286603
1970-01-01 00:00:00.000000000,0.06061449150800213,0.005359145398385768,-0.035726075443672754,-0.9646536812524314
1970-01-01 00:00:00.000000000,0.05126245281850711,0.0062733160571230295,-0.04375415784584062,-0.9640847735002527
1970-01-01 00:00:00.000000000,0.051885508979035815,0.015602734652514657,-0.04405383988544915,-0.9640528567458198
1970-01-01 00:00:00.000000000,0.04189838201527156,0.016280448576303033,-0.044419590045730296,-0.9640624296213358
1970-01-01 00:00:00.000000000,0.05156370967814296,0.02522989751030824,-0.0540145707466251,-0.9643722224276002
1970-01-01 00:00:00.000000000,0.051239923429568866,0.024573521645808217,-0.054327082669351844,-0.964340838480066
1970-01-01 00:00:00.000000000,0.05220965289105252,-0.002389636256486513,-0.0534614845088659,-0.9634752397171721
1970-01-01 00:00:00.000000000,0.05252020849814637,-0.0036901996642711293,-0.05372949816335504,-0.9640871329769058
1970-01-01 00:00:00.000000001,0.07057790894605831,0.004345531960853459,-0.04564367926203836,-0.9652860640195989
1970-01-01 00:00:00.000000001,0.06996729208358621,0.004980552316194705,-0.044688852202810984,-0.9646756058433974
1970-01-01 00:00:00.000000001,0.05127332184792978,-0.0030139112220819303,-0.04409862201235458,-0.9640985855506182
1970-01-01 00:00:00.000000001,0.06124804253741988,0.014954090287870262,-0.04466369653047144,-0.9646759584230079
1970-01-01 00:00:00.000000001,0.050626213092411096,0.02426303995879124,-0.044332493346154106,-0.9646636009063713
1970-01-01 00:00:00.000000001,0.05096282292684322,0.007003970325017643,-0.03545764209016589,-0.9643852843234846
1970-01-01 00:00:00.000000001,0.05094957826520096,0.023917603920114487,-0.05395039798492098,-0.9646656307242938
1970-01-01 00:00:00.000000001,0.06093594479048061,0.005958433784643821,-0.05401600523612403,-0.964399646965872
1970-01-01 00:00:00.000000001,0.06093555559830542,-0.003625609763311402,-0.045067461418983094,-0.9647105553828179
1970-01-01 00:00:00.000000001,0.06966489903775505,0.013346930676914743,-0.04560862500546469,-0.9655885202992557
1970-01-01 00:00:00.000000001,0.06936601157524232,0.005173434025197043,-0.045184717743380426,-0.9649987967119024
1970-01-01 00:00:00.000000001,0.0603130834886027,0.0010048026371623359,-0.04970973943203998,-0.9647099762883372
1970-01-01 00:00:00.000000001,0.07060572774580012,0.014460135329378447,-0.05447434877051767,-0.964666664922011
1970-01-01 00:00:00.000000001,0.05142805882115688,0.006771759459863948,-0.053744769168123624,-0.9639370684021382
1970-01-01 00:00:00.000000001,0.056427640556514225,0.015322991354221126,-0.04968879750153897,-0.9646885606684459
1970-01-01 00:00:00.000000001,0.059990091079121524,0.02431237192397747,-0.04548939855354377,-0.9652907048260188
1970-01-01 00:00:00.000000001,0.05936199857857188,0.02399540879526086,-0.045640605242038945,-0.9652761114319556
1970-01-01 00:00:00.000000001,0.06062498663373775,0.006629342881629176,-0.05374126564793008,-0.964098626503202
1970-01-01 00:00:00.000000001,0.051895219458754915,0.006306505831722015,-0.05406391042906953,-0.9640771473315032
1970-01-01 00:00:00.000000001,0.0612491891782394,0.01495617128302041,-0.05467445922879367,-0.964674494739237
1970-01-01 00:00:00.000000001,0.06060400734265581,0.014970532645694937,-0.05468607491247624,-0.9646737967920195
1970-01-01 00:00:00.000000001,0.06122473431387663,0.0066876127484602095,-0.05441016081033918,-0.9640786160475595
1970-01-01 00:00:00.000000001,0.052518669350917625,0.017537251118101678,-0.062446027411328646,-0.9635065969367265
1970-01-01 00:00:00.000000001,0.040987730550757696,0.05190919411201171,-0.04654155262381345,-0.9655084745723334
1970-01-01 00:00:00.000000001,0.059368812092715134,0.024226699465572505,-0.05396018387228487,-0.9650065069569131
1970-01-01 00:00:00.000000001,0.06093516739370972,-0.022224320418746744,-0.03481942380507691,-0.9641032251415179
1970-01-01 00:00:00.000000001,0.06126862900610199,-0.023226523737259086,-0.035107431830318295,-0.9647237448295964
1970-01-01 00:00:00.000000001,0.07901651920405553,0.012335627325720223,-0.045853787800535825,-0.9662104374446058
1970-01-01 00:00:00.000000001,0.07807165080101473,0.013648033617361156,-0.04558526669850352,-0.9655984940891159
1970-01-01 00:00:00.000000001,0.06031323425823535,-0.0029895617679938646,-0.04409925517006942,-0.9640997450725278
1970-01-01 00:00:00.000000001,0.0521953134074877,0.006953784301954327,-0.04377463723823154,-0.9637746372139987
1970-01-01 00:00:00.000000001,0.04219735590047085,0.03453891707842693,-0.04401877110450945,-0.9640182805477568
1970-01-01 00:00:00.000000001,0.032569702003934234,0.026865900146145552,-0.04346325925295087,-0.9634500142448649
1970-01-01 00:00:00.000000001,0.03196619791879591,0.025328913438581423,-0.04500070215408263,-0.9646435774925215
1970-01-01 00:00:00.000000001,0.06870569374829043,0.02337128815462031,-0.055199173448217655,-0.9655700525941563
1970-01-01 00:00:00.000000001,0.06969337497314854,-0.003303002430140603,-0.05437585011411241,-0.964746711716003
1970-01-01 00:00:00.000000001,0.06939668412471013,0.004112141069180175,-0.04628428479522048,-0.9659266689003193
1970-01-01 00:00:00.000000001,0.08712053054628956,0.012749213342641251,-0.04688143731220949,-0.9668549465479798
1970-01-01 00:00:00.000000001,0.08743497426941196,0.013684953480276499,-0.04594618833628341,-0.9655885535969856
1970-01-01 00:00:00.000000001,0.05097212315012758,-0.0026981604086168537,-0.053108338800898755,-0.9634786916040846
1970-01-01 00:00:00.000000001,0.05345267994372229,-0.0013956722326824017,-0.052839347007732476,-0.963196507433058
1970-01-01 00:00:00.000000001,0.04252223585644843,0.0435583992528881,-0.04501064128117975,-0.9642836199617785
1970-01-01 00:00:00.000000001,0.03161434059571275,0.03587316652275964,-0.05404725312202939,-0.964060517072862
1970-01-01 00:00:00.000000001,0.05186103372153696,0.026257867506733187,-0.06302442236849648,-0.9641095703603688
1970-01-01 00:00:00.000000001,0.051248477817074145,0.025322642475502852,-0.04537876451089221,-0.9646644963406222
1970-01-01 00:00:00.000000001,0.05002680881563296,0.024008147588538954,-0.04564755116890303,-0.9652771625797478
1970-01-01 00:00:00.000000001,0.06966486869698632,0.005672453767535071,-0.05433000569698006,-0.9650437819600675
1970-01-01 00:00:00.000000001,0.0696396364153811,0.004751275357763953,-0.04565943142670685,-0.9653017791192264
1970-01-01 00:00:00.000000001,0.0699762171653994,0.006017899284715772,-0.045068724431487954,-0.9646983358664293
1970-01-01 00:00:00.000000001,0.05096159632019186,0.024920657801961184,-0.054007475751061795,-0.964364636801964
1970-01-01 00:00:00.000000001,0.051261297953691325,0.025611300891076754,-0.054361681324350174,-0.9643754182637834
1970-01-01 00:00:00.000000001,0.05156061237828117,0.026280577892027215,-0.05406180837147559,-0.9640755446852646
1970-01-01 00:00:00.000000001,0.04158474169450678,0.03525288110174254,-0.054018565797410836,-0.9643757093302833
1970-01-01 00:00:00.000000001,0.05064953106070468,0.03464009058428518,-0.045346589429346315,-0.9649757285031237
1970-01-01 00:00:00.000000001,0.04970154104064006,0.024698409427138773,-0.045670504041784674,-0.9653001155008902
1970-01-01 00:00:00.000000001,0.06936329830574989,0.015009593179314246,-0.05496439046798548,-0.9653347607900595
1970-01-01 00:00:00.000000001,0.06905117289841664,0.013685519539771807,-0.05524312546838581,-0.9656135127052828
1970-01-01 00:00:00.000000001,0.07871571014962941,-0.0049048011913377584,-0.0460042327642819,-0.9656343178384301
1970-01-01 00:00:00.000000001,0.07933912348956804,-0.004603669860737285,-0.04535967732208712,-0.965001587087188
1970-01-01 00:00:00.000000001,0.06063624169612703,0.005616145867093483,-0.05369662401639477,-0.9643981025999612
1970-01-01 00:00:00.000000001,0.06092586573427328,0.015323134953382722,-0.04536564443944067,-0.96466365643063
1970-01-01 00:00:00.000000001,0.051550130144441375,0.025878327836264092,-0.053405945886470754,-0.9637507910650174
1970-01-01 00:00:00.000000001,0.03320519539772852,0.02686863305267872,-0.053117978068336374,-0.963130785897904
1970-01-01 00:00:00.000000001,0.03256813414568407,0.025967963215908507,-0.05438626332875922,-0.9643872295485321
1970-01-01 00:00:00.000000001,0.06964084324376764,0.03366982150490546,-0.05590768408009717,-0.9659209641843868
1970-01-01 00:00:00.000000001,0.06809345469354489,0.032692688594261506,-0.055545735656127644,-0.965903332252181
1970-01-01 00:00:00.000000001,0.06875108610415342,-0.0028790679761936736,-0.045739017151689654,-0.9653808451408509
1970-01-01 00:00:00.000000001,0.07838253007711332,0.022707161961014063,-0.046273041526959206,-0.9662448006382671
1970-01-01 00:00:00.000000001,0.06873021228674746,0.023274503083206638,-0.04633104191655343,-0.965926709932722
1970-01-01 00:00:00.000000001,0.06969566715098532,0.005147051957219942,-0.05522245954831524,-0.9643337368735581
1970-01-01 00:00:00.000000001,0.0528791678673953,-0.0011384096845567307,-0.0615096753342342,-0.9629184950996187
1970-01-01 00:00:00.000000001,0.042542525012434135,0.0339709993211575,-0.0356836617145865,-0.9646105180547125
1970-01-01 00:00:00.000000001,0.04036241736343703,0.034937153283527214,-0.03536742903187073,-0.9649837304498969
1970-01-01 00:00:00.000000001,0.049409392821160365,0.033689943320407194,-0.044879118159573815,-0.9655924001061539
1970-01-01 00:00:00.000000001,0.0677795576088118,0.01509869185212228,-0.03596138579197184,-0.965603696931609
1970-01-01 00:00:00.000000001,0.05879051755772198,0.014078420981964511,-0.03597461392859462,-0.9656037327522151
1970-01-01 00:00:00.000000001,0.06884278490300155,0.0051520514227911055,-0.04521981351820607,-0.9655637106163271
1970-01-01 00:00:00.000000001,0.0755856884718557,0.013823968096506014,-0.04616335039986092,-0.965819453225502
1970-01-01 00:00:00.000000001,0.06913393459748587,0.014655874723342746,-0.054629859737549274,-0.9650007389317475
1970-01-01 00:00:00.000000001,0.060931636870863636,0.006975496956139651,-0.05375201499157214,-0.9641096504092895
1970-01-01 00:00:00.000000001,0.05157276227987396,0.025300773798457056,-0.04505631432887207,-0.9643415914130544
1970-01-01 00:00:00.000000001,0.04158708196075666,0.035208107899379115,-0.0537057595908007,-0.9640506054460176
1970-01-01 00:00:00.000000001,0.042221413860625855,0.026578378168711857,-0.05373895593880846,-0.9637645169454765
1970-01-01 00:00:00.000000001,0.04190809565535195,0.025612517456264215,-0.05404163595661312,-0.9643869372814381
1970-01-01 00:00:00.000000001,0.06000115394224021,0.02405278696621127,-0.04629202107394183,-0.965589595837545
1970-01-01 00:00:00.000000001,0.06870563363122903,0.014690688259640039,-0.05496497541162598,-0.9656541927040857
1970-01-01 00:00:00.000000001,0.07870404781590105,0.014076997635121453,-0.04628111344889589,-0.9655924055817128
1970-01-01 00:00:00.000000001,0.06001007659102589,0.0063058509000719735,-0.05370748469712028,-0.9644231549907283
1970-01-01 00:00:00.000000001,0.060645194409672004,0.015011458879755975,-0.04499049116041199,-0.9650022969550216
1970-01-01 00:00:00.000000001,0.05937579237130533,0.02404319639862257,-0.03599611908870657,-0.9655992052495624
1970-01-01 00:00:00.000000001,0.05874186874039965,0.024720377055104513,-0.036339191062605095,-0.9656107116111108
1970-01-01 00:00:00.000000001,0.05937540519618712,0.034294732407188,-0.05427429128365755,-0.965002259932453
1970-01-01 00:00:00.000000001,0.05033353539008766,0.02596451971630582,-0.05433955181879865,-0.964723184787774
1970-01-01 00:00:00.000000001,0.05969917497065447,0.03368179340355406,-0.0459591143534237,-0.9655892358669674
1970-01-01 00:00:00.000000001,0.05875351410936124,0.024030034442834015,-0.04597040346045463,-0.9656000513571645
1970-01-01 00:00:00.000000001,0.06936292126823822,0.0057051515557941315,-0.054665764076043934,-0.965036135773646
1970-01-01 00:00:00.000000001,0.06998478031691963,0.005360010854863137,-0.054654273301470296,-0.9650246612400217
1970-01-01 00:00:00.000000002,0.0693636821554799,0.014044680311273879,-0.04597007627788285,-0.9656001789211747
1970-01-01 00:00:00.000000002,0.06904030005954429,0.014724764876770914,-0.04565937887411801,-0.965301762304449
1970-01-01 00:00:00.000000002,0.060310167426431735,0.016638062545709063,-0.053719062139116334,-0.9644333121147654
1970-01-01 00:00:00.000000002,0.05033586743678105,0.04363464701241055,-0.045623575726976985,-0.9652659416391787
1970-01-01 00:00:00.000000002,0.04939059384240987,0.043968997714823724,-0.04564589156380772,-0.9652755212176003
1970-01-01 00:00:00.000000002,0.05032538423848875,0.02629185430215117,-0.05405193348151859,-0.9644095682217152
1970-01-01 00:00:00.000000002,0.0509460941860759,0.025012899466758505,-0.05465448141370578,-0.9646809897452219
1970-01-01 00:00:00.000000002,0.06062229183071415,0.016302245624965028,-0.05437325036391173,-0.9647313405746474
1970-01-01 00:00:00.000000002,0.05937694339043736,0.03234462231486333,-0.046226388504357493,-0.9658683158626982
1970-01-01 00:00:00.000000002,0.06875266399326618,0.005382082207877701,-0.045359713922225126,-0.9653336623866899
1970-01-01 00:00:00.000000002,0.06936250494464014,-0.004224527865305069,-0.045682012558853076,-0.9653366937410637
1970-01-01 00:00:00.000000002,0.07901423076772665,0.013689166976036577,-0.05492112361965875,-0.9656235670748751
1970-01-01 00:00:00.000000002,0.06935202221048697,0.01534276547798014,-0.0456775959122303,-0.9649888880208505
1970-01-01 00:00:00.000000002,0.05066041172273243,0.02525421640755591,-0.053685250532432956,-0.9643876940099564
1970-01-01 00:00:00.000000002,0.0509593078656773,0.025322068979588747,-0.04502317700988765,-0.9646778587944065
1970-01-01 00:00:00.000000002,0.05063597086353779,0.025657957945834545,-0.04472421683002161,-0.9646981815345035
1970-01-01 00:00:00.000000002,0.05001288606223816,0.03432721206503652,-0.045646260893598654,-0.9652886261301037
1970-01-01 00:00:00.000000002,0.059388220833404615,0.0339701997471288,-0.05493139536016739,-0.9653012920413137
1970-01-01 00:00:00.000000002,0.05937531404888579,0.01536922833538652,-0.05500036660297823,-0.9653452117574342
1970-01-01 00:00:00.000000002,0.07871713752608674,0.014115066858250851,-0.04696240137029708,-0.9659033238594615
1970-01-01 00:00:00.000000002,0.0689889811433344,0.014693037135289338,-0.06402901009713279,-0.9650890721501124
1970-01-01 00:00:00.000000002,0.07175607508735239,0.008916946913286775,-0.05550086013356436,-0.9651816130748517
1970-01-01 00:00:00.000000002,0.06978756290523772,0.005842641220925832,-0.054716101811637614,-0.9650363691734041
1970-01-01 00:00:00.000000002,0.06965508253050406,0.024367181723341298,-0.04630107310901766,-0.9652675389354293
1970-01-01 00:00:00.000000002,0.05063646885640745,0.03516138637509132,-0.062322751066036595,-0.9640970610173832
1970-01-01 00:00:00.000000002,0.04162011437595602,0.02598840792816339,-0.03541504814992075,-0.9643549510098696
1970-01-01 00:00:00.000000002,0.04066045993274746,0.02502461076240626,-0.03538456590474435,-0.9649876331720105
1970-01-01 00:00:00.000000002,0.05967664698587171,0.024665601261074824,-0.044978712673902424,-0.9653216260301393
1970-01-01 00:00:00.000000002,0.05905239720603353,0.02404093003553967,-0.045946369541672756,-0.9656019628928174
1970-01-01 00:00:00.000000002,0.06905076829314251,0.015035272798718566,-0.054977501851047196,-0.9653356089757056
1970-01-01 00:00:00.000000002,0.0693620993060972,0.015046465101065769,-0.055311150865396695,-0.9653244498800315
1970-01-01 00:00:00.000000002,0.06903952411465727,0.024031772706450315,-0.05561108373826493,-0.9656120500087465
1970-01-01 00:00:00.000000002,0.06935124628310059,0.025010807330264943,-0.054988700710569514,-0.9650014909989296
1970-01-01 00:00:00.000000002,0.050647571661445644,0.026279458776034152,-0.05406440188178471,-0.964408773397033
1970-01-01 00:00:00.000000002,0.050337419739888756,0.04332585452120825,-0.0459588751990601,-0.9652441158224013
1970-01-01 00:00:00.000000002,0.050312948364596356,0.026291844900801546,-0.054051996888621286,-0.9644091222035756
1970-01-01 00:00:00.000000002,0.05125938510768217,0.025957017081294546,-0.05404198151285829,-0.9643991243932705
1970-01-01 00:00:00.000000002,0.05033701674421573,0.0336599293212266,-0.04596919093148701,-0.9652549233876578
1970-01-01 00:00:00.000000002,0.05968943662126084,0.015323342959387087,-0.05466390526973061,-0.9650215387059277
1970-01-01 00:00:00.000000002,0.06997448049592672,0.005372146683149177,-0.05465443525032503,-0.9650248055714701
1970-01-01 00:00:00.000000002,0.06966878514364805,0.005060788986537366,-0.04566967498813096,-0.965312040222841
1970-01-01 00:00:00.000000002,0.06919634098865936,0.014213355861242075,-0.045482589521337886,-0.9654560805373584
1970-01-01 00:00:00.000000002,0.06467624858445095,0.015847094642658554,-0.045212966712322986,-0.964854858910169
1970-01-01 00:00:00.000000002,0.05049099240846693,0.03460470950362847,-0.054321001698291904,-0.9646786000241168
1970-01-01 00:00:00.000000002,0.05068257958560183,0.03525874173056631,-0.05467539936627603,-0.9646886619657116
1970-01-01 00:00:00.000000002,0.049579570600508494,0.03353814780634641,-0.05575795060648017,-0.9657584424654007
1970-01-01 00:00:00.000000002,0.08275257906764051,0.01462515344341097,-0.056435362606066644,-0.9664353801974814
1970-01-01 00:00:00.000000002,0.08732462919886975,0.02317261407212229,-0.0561652208509476,-0.9661652039602211
1970-01-01 00:00:00.000000002,0.06688583266205325,0.016088077625788497,-0.05497294924762497,-0.9649724756065928
1970-01-01 00:00:00.000000002,0.059773046893191684,0.03400701415097697,-0.055302876508103845,-0.9652901050909622
1970-01-01 00:00:00.000000002,0.059685215898321486,0.03497359979401465,-0.055332421127757846,-0.9649880665059559
1970-01-01 00:00:00.000000002,0.05065897913991795,0.03527748748596627,-0.06367518674282527,-0.9643903833713074
1970-01-01 00:00:00.000000002,0.05065731779175787,0.026046776630574003,-0.0553694066250032,-0.9650240702158296
1970-01-01 00:00:00.000000002,0.068728223321055,0.043024322442085275,-0.056259951229698506,-0.9662206715535351
1970-01-01 00:00:00.000000002,0.0674836530911751,0.04236550537679134,-0.056893700505773775,-0.9661784856585405
1970-01-01 00:00:00.000000002,0.06937612434590659,0.006997419380850231,-0.07371686577663418,-0.9644453445774908
1970-01-01 00:00:00.000000002,0.07123246133016885,0.0060086126089597645,-0.07401788076054383,-0.9644020232309094
1970-01-01 00:00:00.000000002,0.0709235020953059,0.014979793104051557,-0.06502124271506074,-0.9646646106140772
1970-01-01 00:00:00.000000002,0.06095033370415021,0.015613576774807209,-0.06438789697172814,-0.9643746877748058
1970-01-01 00:00:00.000000002,0.06127255608945629,0.015660661637618048,-0.06437809369972008,-0.9643780774838
1970-01-01 00:00:00.000000002,0.0609351693981848,0.016336503382604676,-0.06470841697896584,-0.9647211883460528
1970-01-01 00:00:00.000000002,0.06966648164788418,0.0429334787963401,-0.06524061562871696,-0.965585458755977
1970-01-01 00:00:00.000000002,0.05905552363971637,0.03369683381783499,-0.05595879529714162,-0.9652567883660681
1970-01-01 00:00:00.000000002,0.06124572551350379,-0.0003364664069527498,-0.06286435808625852,-0.9635653278200068
1970-01-01 00:00:00.000000002,0.05159478965427782,0.043292936049000655,-0.055304510177266154,-0.9649326999195437
1970-01-01 00:00:00.000000002,0.04940538018203584,0.04330163551848242,-0.05630152091141363,-0.9655616742191688
1970-01-01 00:00:00.000000002,0.06996577909070287,0.01666082261064842,-0.07402695477026197,-0.9644229043373759
1970-01-01 00:00:00.000000002,0.061869180478085026,0.01658649804083665,-0.08238033481386228,-0.9638108198181804
1970-01-01 00:00:00.000000002,0.06096004108919379,0.024399189468005088,-0.05701752022794231,-0.9652446657774225
1970-01-01 00:00:00.000000002,0.0696773632422633,0.02496602538941581,-0.07431830354647734,-0.9650207483781204
1970-01-01 00:00:00.000000002,0.06998717444224922,0.02497500719556134,-0.0742851643776206,-0.9650240292824939
1970-01-01 00:00:00.000000002,0.0693761398167461,0.0243882966851726,-0.056352006854831965,-0.965598914454775
1970-01-01 00:00:00.000000002,0.0687538615946158,0.024076380091025255,-0.0566516439159125,-0.9655792842094997
1970-01-01 00:00:00.000000002,0.06998676978744375,0.016260049120190273,-0.08265629552712808,-0.9644556758540436
1970-01-01 00:00:00.000000002,0.07060982443978261,0.02468961812036206,-0.06532366335028955,-0.9649792918834387
1970-01-01 00:00:00.000000002,0.06001322971276421,0.02536935716878165,-0.05607289789150721,-0.9649754879596126
1970-01-01 00:00:00.000000002,0.060325339111317766,0.034942565578497585,-0.07398503957866229,-0.9646993428843611
1970-01-01 00:00:00.000000002,0.060623459848522195,0.03528689552597736,-0.0743161886570412,-0.9646997878428116
1970-01-01 00:00:00.000000002,0.060312142837001835,0.03501013533453857,-0.0653455324498032,-0.9649884071599109
1970-01-01 00:00:00.000000002,0.060001568801506616,0.034976665869898116,-0.06502328012431641,-0.9649972981114546
1970-01-01 00:00:00.000000002,0.060013216163353686,0.03433071575169097,-0.06531215830774625,-0.9649677692503743
1970-01-01 00:00:00.000000002,0.06063471896025829,0.016651382742935095,-0.07370627086764775,-0.9644337483314643
1970-01-01 00:00:00.000000002,0.07028722017230918,0.024689920983936547,-0.06532385244235964,-0.9653101330227775
1970-01-01 00:00:00.000000002,0.06904303732478079,0.033362676839242156,-0.056651552060175345,-0.9655536502676388
1970-01-01 00:00:00.000000002,0.06033736202839532,0.01664022754020336,-0.07373017931776785,-0.9641005503388685
1970-01-01 00:00:00.000000002,0.061881215513552586,0.01695154217177535,-0.08303521409403856,-0.9641331334562799
1970-01-01 00:00:00.000000002,0.07027712660065998,0.04299294783339985,-0.06627906448560864,-0.9655525162450215
1970-01-01 00:00:00.000000002,0.05969180454439462,0.03498834757785608,-0.0653692287695612,-0.9646545069114665
1970-01-01 00:00:00.000000002,0.051918171701120154,0.018267024911061476,-0.08211552415020534,-0.9635445822222308
1970-01-01 00:00:00.000000002,0.060946029089920896,0.04369244435047018,-0.06627880395631437,-0.9655780937591005
1970-01-01 00:00:00.000000002,0.0680965776973444,0.05230712597393797,-0.06653402924796659,-0.9661857958511527
1970-01-01 00:00:00.000000002,0.06902352557192684,0.025307361089938866,-0.07343258159469415,-0.9647309900779261
1970-01-01 00:00:00.000000002,0.06153714156849378,-0.0013039199878185567,-0.07344121725102483,-0.9638464796951024
1970-01-01 00:00:00.000000002,0.07092147959535655,0.033353803468864025,-0.06561327995306278,-0.9652569574599335
1970-01-01 00:00:00.000000002,0.05969096023495558,0.0349526195333471,-0.06502133559547191,-0.9649953658369059
1970-01-01 00:00:00.000000002,0.06000310990401999,0.03499691217142884,-0.06533279288473476,-0.9649879318965852
1970-01-01 00:00:00.000000003,0.0606129668654504,0.03525627325480117,-0.07367180813279792,-0.9643865312113267
1970-01-01 00:00:00.000000003,0.05157266342802805,0.026306029912364567,-0.06442246249665506,-0.9640648466050636
1970-01-01 00:00:00.000000003,0.0519084658564719,0.02630638447419095,-0.06443482918173851,-0.9640644770302444
1970-01-01 00:00:00.000000003,0.05127295937440516,0.0349548543838881,-0.0743294219171989,-0.9646875297184582
1970-01-01 00:00:00.000000003,0.06997665002417477,0.03466219603758534,-0.07527205043581311,-0.9653113132213185
1970-01-01 00:00:00.000000003,0.06934075484418395,0.034320675879742656,-0.0746197026009278,-0.9653216900083226
1970-01-01 00:00:00.000000003,0.06936485353190991,0.02508094436208294,-0.05637502814263782,-0.9652894253567849
1970-01-01 00:00:00.000000003,0.060012425661121326,0.025658591952206204,-0.06471228719459485,-0.9646990245691703
1970-01-01 00:00:00.000000003,0.06063588256672354,0.03459662676377209,-0.0739611376951354,-0.9646886495945218
1970-01-01 00:00:00.000000003,0.06062462537480752,0.02565767808528352,-0.06503108315842387,-0.9646871670672774
1970-01-01 00:00:00.000000003,0.060612964979765135,0.02533769975306179,-0.0647010893681457,-0.964687843007801
1970-01-01 00:00:00.000000003,0.06093712493484775,0.02595907253911199,-0.06439947248976739,-0.9643857368516124
1970-01-01 00:00:00.000000003,0.0509620312045303,0.03463027814004403,-0.06501164851847265,-0.964654032648629
1970-01-01 00:00:00.000000003,0.06094957237214735,0.02593463779169686,-0.07403883695938095,-0.9643969441117574
1970-01-01 00:00:00.000000003,0.06093606105401591,0.024989432382448863,-0.07465245923808775,-0.9646789682220992
1970-01-01 00:00:00.000000003,0.07061991752663845,0.015994020037311117,-0.07436357896607065,-0.9647212143819992
1970-01-01 00:00:00.000000003,0.06975893411523298,0.02413718695605474,-0.06587609451469645,-0.9655057417607689
1970-01-01 00:00:00.000000003,0.076224283992263,0.024448596564245938,-0.06555240414263903,-0.9651952443706718
1970-01-01 00:00:00.000000003,0.060729099362165334,0.016629251683938154,-0.07338448593119029,-0.9641115248420105
1970-01-01 00:00:00.000000003,0.06125584426759558,0.025659383442592307,-0.06471053145899455,-0.9646977418231
1970-01-01 00:00:00.000000003,0.059978754341552344,0.04365981003572043,-0.05631415469199828,-0.9652417956120259
1970-01-01 00:00:00.000000003,0.05096281861830408,0.036200920213437446,-0.07272621253340147,-0.9637853070100448
1970-01-01 00:00:00.000000003,0.042231882562553016,0.02664913757793748,-0.06440948185897982,-0.9640773918083251
1970-01-01 00:00:00.000000003,0.06092468761218931,0.03464462847625176,-0.06501096357368319,-0.9649854377293673
1970-01-01 00:00:00.000000003,0.059991060824523774,0.03431980689074933,-0.0653225590205539,-0.9649654512746793
1970-01-01 00:00:00.000000003,0.060636646356950305,0.016649661350999566,-0.07403862620427619,-0.9644222429099651
1970-01-01 00:00:00.000000003,0.07059889870557554,0.024645386885524763,-0.07429601119561946,-0.9650107699950984
1970-01-01 00:00:00.000000003,0.06966569066094667,0.02437897961949272,-0.0563504810161282,-0.9652653518963673
1970-01-01 00:00:00.000000003,0.060325701047064514,0.016341601255783204,-0.0644124378248223,-0.9643991927918105
1970-01-01 00:00:00.000000003,0.06124726372216982,0.02594718969503991,-0.07368240484569136,-0.9644099180741366
1970-01-01 00:00:00.000000003,0.06061334104000015,0.04394799204767802,-0.06529702147145673,-0.9649531236724906
1970-01-01 00:00:00.000000003,0.05063981451890734,0.03559959805490481,-0.0643861724209897,-0.9643734186204689
1970-01-01 00:00:00.000000003,0.05157381303233655,0.026294789999431085,-0.0640759993305863,-0.9640755445154839
1970-01-01 00:00:00.000000003,0.05188398044117949,0.02596077155659639,-0.06406476987796456,-0.9640652436707124
1970-01-01 00:00:00.000000003,0.051584710894558516,0.02594549137233619,-0.06437333803079567,-0.9643865852500934
1970-01-01 00:00:00.000000003,0.060312499306396344,0.03365027378887695,-0.06493257866111402,-0.9652897797894063
1970-01-01 00:00:00.000000003,0.06936432440298261,0.01571663997506586,-0.055701546771552216,-0.9653327300161463
1970-01-01 00:00:00.000000003,0.06874046328735695,0.023486156415627214,-0.05622203329307878,-0.9659067797688259
1970-01-01 00:00:00.000000003,0.07860346029731213,0.017110850185248806,-0.06359208520317597,-0.9654490568037651
1970-01-01 00:00:00.000000003,0.06953905715319739,0.024719024214913107,-0.0745520415638461,-0.965005528304017
1970-01-01 00:00:00.000000003,0.07061083404102372,0.02561414915867392,-0.07400169147940894,-0.9643888618634239
1970-01-01 00:00:00.000000003,0.051583373576275404,0.026280806502397877,-0.06407582494705372,-0.9640759385752865
1970-01-01 00:00:00.000000003,0.051285440603671344,0.03496548356606909,-0.055047724931024535,-0.9646636225093025
1970-01-01 00:00:00.000000003,0.05032655101880997,0.034653377529697306,-0.05534662044238041,-0.9649757414276439
1970-01-01 00:00:00.000000003,0.06031253010305729,0.0256458065172967,-0.06434093023170259,-0.9647112992555426
1970-01-01 00:00:00.000000003,0.060310543508944665,0.02500004907936064,-0.06464184517153766,-0.9650126878299643
1970-01-01 00:00:00.000000003,0.06936370204753638,0.024375280259776172,-0.05596912776546987,-0.9656115105191445
1970-01-01 00:00:00.000000003,0.0687293431545567,0.02402020511187005,-0.05563691731889182,-0.9656104090096813
1970-01-01 00:00:00.000000003,0.06937651202101075,0.015048991719568826,-0.05534890588574832,-0.9649907987833902
1970-01-01 00:00:00.000000003,0.06062266644444091,0.007011036832354441,-0.06407507608042987,-0.9644326926259673
1970-01-01 00:00:00.000000003,0.07059893880270116,0.033973876127082345,-0.06495327491275642,-0.9649670287446378
1970-01-01 00:00:00.000000003,0.05064914528700145,0.03558527515826726,-0.06436169000459299,-0.9643754269198623
1970-01-01 00:00:00.000000003,0.05097240774478909,0.035298264411736106,-0.06434264394565846,-0.9646997868260373
1970-01-01 00:00:00.000000003,0.05999185372985869,0.03468795907329844,-0.05566960141350368,-0.9652987222684605
1970-01-01 00:00:00.000000003,0.05927207251766058,0.034260192206184106,-0.05575303258008714,-0.9653821527835437
1970-01-01 00:00:00.000000003,0.062817546059403,0.0255518559132974,-0.06444765282922879,-0.9648047774675867
1970-01-01 00:00:00.000000003,0.06022975141943903,0.024986640548172543,-0.06498687071376137,-0.9650001157459799
1970-01-01 00:00:00.000000003,0.06968008591085445,0.023996930306085518,-0.06528836502359683,-0.9652888562551502
1970-01-01 00:00:00.000000003,0.0699885658717242,0.006018838526044366,-0.06471062411343675,-0.9647106423331518
1970-01-01 00:00:00.000000003,0.07061135444581675,0.005709202294113883,-0.06470099364218887,-0.9647009943429496
1970-01-01 00:00:00.000000003,0.07060007770277801,0.015648269872587366,-0.06469755776810493,-0.9646975584689311
1970-01-01 00:00:00.000000003,0.060626179634665524,0.034273495238728524,-0.0646536551236555,-0.9646536733451976
1970-01-01 00:00:00.000000003,0.05127375175581809,0.02660219973344615,-0.06408503241023061,-0.9640855236910401
1970-01-01 00:00:00.000000003,0.051584712556235174,0.035276005508540306,-0.06435211200833921,-0.9643653583686527
1970-01-01 00:00:00.000000003,0.05094883046208815,0.03494202714700133,-0.06432991366505358,-0.9646870741127164
1970-01-01 00:00:00.000000003,0.06031329046662735,0.025345887758454626,-0.055368396650162785,-0.9649984823767388
1970-01-01 00:00:00.000000003,0.059688278838217826,0.024377520367656776,-0.055636217852955264,-0.9652913720228358
1970-01-01 00:00:00.000000003,0.06967424167807067,0.015659613176444116,-0.06399703437145744,-0.9650561112316567
1970-01-01 00:00:00.000000003,0.06905079778870903,0.023763542436450093,-0.0469522031362811,-0.9658921241917796
1970-01-01 00:00:00.000000003,0.06842853534506782,0.024354580849878536,-0.05531390206596398,-0.9656326937042241
1970-01-01 00:00:00.000000003,0.06905154770637514,0.024698208641415125,-0.05563508451361027,-0.9653025376911399
1970-01-01 00:00:00.000000003,0.060011105066473246,0.02532029167784703,-0.06401014059199228,-0.9647125847470395
1970-01-01 00:00:00.000000003,0.060290462723377014,0.025848800789114036,-0.055739577341511776,-0.9650381163502565
1970-01-01 00:00:00.000000003,0.06047772796620599,0.04843662741518236,-0.06511914984189057,-0.9654772589229462
1970-01-01 00:00:00.000000003,0.058899556441377704,0.04415764247875154,-0.06525996533161099,-0.9656303715113554
1970-01-01 00:00:00.000000003,0.06812672383047526,0.03411330541874011,-0.0566063282039631,-0.9662491859760162
1970-01-01 00:00:00.000000003,0.07715380326125701,0.03343992215771045,-0.056572577844899066,-0.9665593315105924
1970-01-01 00:00:00.000000003,0.07715478407462568,0.03338119297753151,-0.05623667347020666,-0.9662361646718698
1970-01-01 00:00:00.000000003,0.06845065908619424,0.024366086231906545,-0.0553038078543989,-0.9653033166336196
1970-01-01 00:00:00.000000003,0.06001010401880598,0.006722860132835986,-0.05474641374967506,-0.9647336595869633
1970-01-01 00:00:00.000000003,0.07027478386596214,0.024678812035617916,-0.05532168870586303,-0.9649778175334155
1970-01-01 00:00:00.000000003,0.05094863900770138,0.03520779349883707,-0.06333645263861676,-0.9640646851452587
1970-01-01 00:00:00.000000003,0.04192600141481624,0.02661290857045866,-0.054081236399306336,-0.9640873852510992
1970-01-01 00:00:00.000000003,0.050798380157246546,0.034509406395653426,-0.04568826165053948,-0.9651260481423029
1970-01-01 00:00:00.000000003,0.05437835081668709,0.03401289168890367,-0.050630000588524716,-0.9654440870143356
1970-01-01 00:00:00.000000003,0.06435224710333723,0.0205080712108153,-0.05965235223356451,-0.96519489923869
1970-01-01 00:00:00.000000003,0.0695113535686305,0.024229451413651466,-0.05545908930718348,-0.9652937720197566
1970-01-01 00:00:00.000000003,0.059703796718372844,0.01637885733150367,-0.05505131868667417,-0.9650452049210234
1970-01-01 00:00:00.000000003,0.06872721122480413,0.042713038203949685,-0.05621317356602814,-0.9662134191808905
1970-01-01 00:00:00.000000003,0.06809272103110389,0.043979551888087484,-0.05559798988313745,-0.9656107352500752
1970-01-01 00:00:00.000000003,0.049712048723491,0.03531045928390644,-0.05435695676920388,-0.9647008360616584
1970-01-01 00:00:00.000000003,0.0506584702267169,0.02602603418064598,-0.045416657482105494,-0.9646886530114399
1970-01-01 00:00:00.000000003,0.050335865015029985,0.03430752252237811,-0.054977736318801144,-0.9649777363183708
1970-01-01 00:00:00.000000003,0.06000040079517293,0.024965389618978928,-0.06429390743011348,-0.9650219118891625
1970-01-01 00:00:00.000000003,0.06965169333040293,0.015059661615347109,-0.05565609986898213,-0.965312220263736
1970-01-01 00:00:00.000000003,0.0696629675016443,0.01505147631006101,-0.05501478671773037,-0.9650020329170301
1970-01-01 00:00:00.000000003,0.060322185967264665,0.01635000890050007,-0.05472333136552706,-0.9647228583518662
1970-01-01 00:00:00.000000004,0.05969953552381157,0.04332430467763249,-0.055589619477313765,-0.9655896019091657
1970-01-01 00:00:00.000000004,0.058741452415589826,0.043992288626119494,-0.05561032329139678,-0.965610321965062
1970-01-01 00:00:00.000000004,0.05936452259445638,0.03534510660729436,-0.05501149101068517,-0.9650114727678031
1970-01-01 00:00:00.000000004,0.05032265133562249,0.035334906529709276,-0.05469061723821659,-0.964690126006734
1970-01-01 00:00:00.000000004,0.050647585230188905,0.03562176954542768,-0.054710774570597316,-0.964697529563441
1970-01-01 00:00:00.000000004,0.05002491875312068,0.04333884059155676,-0.0556143267732041,-0.9652572028114732
1970-01-01 00:00:00.000000004,0.05999883201726771,0.017017988203881836,-0.06438498652863986,-0.9647558845690635
1970-01-01 00:00:00.000000004,0.06966218866762097,0.03368497870432199,-0.06524217170900709,-0.9656135427621618
1970-01-01 00:00:00.000000004,0.06841569261766303,0.03338358233124893,-0.056246504096115466,-0.9659026244908708
1970-01-01 00:00:00.000000004,0.06905039267810115,0.016372283279420374,-0.05471289984609573,-0.9650567794513405
1970-01-01 00:00:00.000000004,0.059386647347386384,0.03370771022058618,-0.04596214774100847,-0.9655907766878534
1970-01-01 00:00:00.000000004,0.058752739168749256,0.034030064984258715,-0.045970916853266645,-0.9656000188128435
1970-01-01 00:00:00.000000004,0.0596754799865378,0.02599139282782854,-0.05436525882375613,-0.9647223827854856
1970-01-01 00:00:00.000000004,0.050646420658020504,0.03496319323025304,-0.05466541952500266,-0.9646786645321255
1970-01-01 00:00:00.000000004,0.050348301855197564,0.0346286560753424,-0.05498723666497878,-0.9649877278955665
1970-01-01 00:00:00.000000004,0.0596766285637152,0.02468914273770846,-0.05531134849570261,-0.9653113667144543
1970-01-01 00:00:00.000000004,0.06966260788215825,0.015383861816202344,-0.055013508745568686,-0.9650135094212656
1970-01-01 00:00:00.000000004,0.060009687441106775,0.015704265272376724,-0.0550242486620209,-0.9650242486870807
1970-01-01 00:00:00.000000004,0.06906321963533736,0.033359975537705804,-0.05591253012926407,-0.9659125301301936
1970-01-01 00:00:00.000000004,0.06809269920326946,0.03370590836252848,-0.05592323071124799,-0.9659232307112814
1970-01-01 00:00:00.000000004,0.06903953965815063,0.025691236052000726,-0.05502301327300814,-0.9650230132729752
1970-01-01 00:00:00.000000004,0.05033507358067205,0.0349772877863338,-0.05467830491513337,-0.9646783049142037
1970-01-01 00:00:00.000000004,0.05064758620070359,0.035298871917380584,-0.054687881697214204,-0.9646878816721526
1970-01-01 00:00:00.000000004,0.05063631249534385,0.03529926122702595,-0.05468749366557741,-0.9646874929898449
1970-01-01 00:00:00.000000004,0.050324593305402926,0.034666361584659154,-0.054989266901020586,-0.9649892486813055
1970-01-01 00:00:00.000000004,0.05998754768487082,0.025692488551353664,-0.05502272566937326,-0.9650222344127956
1970-01-01 00:00:00.000000004,0.05967624473156959,0.03434215018751029,-0.05531300528643368,-0.9652997595785513
1970-01-01 00:00:00.000000004,0.05937693077107416,0.0343281273366015,-0.0556458562391673,-0.9652887133829189
1970-01-01 00:00:00.000000004,0.06002368141239883,0.025311457798712335,-0.06433094327308755,-0.9647013318622765
1970-01-01 00:00:00.000000004,0.06031093071629202,0.015695028020679028,-0.06467581734214967,-0.965033452106509
1970-01-01 00:00:00.000000004,0.07931624801238157,0.024067236060332235,-0.05630318766425523,-0.9655889377127723
1970-01-01 00:00:00.000000004,0.05998950369408665,0.02560120799808417,-0.06402938720295875,-0.9643870037485672
1970-01-01 00:00:00.000000004,0.05160722451742767,0.02594692514601974,-0.06370872155755467,-0.9640786182404568
1970-01-01 00:00:00.000000004,0.051271031940821714,0.026003612750674983,-0.055068253044760485,-0.9646978469375119
1970-01-01 00:00:00.000000004,0.059677814963969615,0.04333697879538453,-0.055947750977791116,-0.9655768893991725
1970-01-01 00:00:00.000000004,0.059378112845199574,0.0349630809522962,-0.06465275712801186,-0.9650099006125602
1970-01-01 00:00:00.000000004,0.06000037658550071,0.02534511955904873,-0.06499777883610956,-0.9650115144975345
1970-01-01 00:00:00.000000004,0.06997546990914846,0.02466681986206789,-0.06497559872688517,-0.9649893181008223
1970-01-01 00:00:00.000000004,0.06062420660773287,0.015960596268034317,-0.0640418072385456,-0.9643984946734212
1970-01-01 00:00:00.000000004,0.06094875429163755,0.015362534630283933,-0.055059941458406106,-0.9646767828261145
1970-01-01 00:00:00.000000004,0.06061332281625065,0.01601572620328479,-0.055388724684756044,-0.9646867541780106
1970-01-01 00:00:00.000000004,0.060925471983297536,0.03454111499849649,-0.07295658288992932,-0.9643865378400998
1970-01-01 00:00:00.000000004,0.05126069202574522,0.025978537033612636,-0.05505485506582377,-0.9643656092271704
1970-01-01 00:00:00.000000004,0.051279776312518045,0.02597792598791751,-0.05442596280841537,-0.9643863702146156
1970-01-01 00:00:00.000000004,0.05046168183075774,0.03433251574833859,-0.055539089653222865,-0.9651593354592887
1970-01-01 00:00:00.000000004,0.06545513065633085,0.03055090234013545,-0.06557855470567717,-0.9653647840632549
1970-01-01 00:00:00.000000004,0.0690081362412873,0.024612677904144654,-0.056011056931231276,-0.9656190037797696
1970-01-01 00:00:00.000000004,0.06873501006456831,0.024717164570779854,-0.05599421893857102,-0.9656225544915257
1970-01-01 00:00:00.000000004,0.06906358368154943,0.03364975039370137,-0.06493386952338494,-0.9652909826046248
1970-01-01 00:00:00.000000004,0.06002294112723091,0.016337519133630365,-0.06470883511835901,-0.9647225527588729
1970-01-01 00:00:00.000000004,0.06998597636115561,0.024378314959111785,-0.06528962992751988,-0.9653028931401548
1970-01-01 00:00:00.000000004,0.06966377397375206,0.025312526988765342,-0.06467563069831578,-0.9650200197989452
1970-01-01 00:00:00.000000004,0.05968945796461637,0.034030022167396215,-0.0559822904971373,-0.9652675330014989
1970-01-01 00:00:00.000000004,0.06032378582135952,0.02629151398565437,-0.06405277026964634,-0.9644099287868027
1970-01-01 00:00:00.000000004,0.05095931126069678,0.03495276745652353,-0.06433059477204658,-0.9646886322309061
1970-01-01 00:00:00.000000004,0.0600124547570418,0.03433851381180016,-0.05596798210429662,-0.9652778349763405
1970-01-01 00:00:00.000000004,0.059678173114446516,0.02497043006475353,-0.06402159744130141,-0.9650295875276245
1970-01-01 00:00:00.000000004,0.06966492932594309,0.015125445472755919,-0.047352801274624316,-0.965258680733292
1970-01-01 00:00:00.000000004,0.06093552652441696,0.016531017014847414,-0.08138961765834876,-0.9638403729560594
1970-01-01 00:00:00.000000004,0.06126086464952591,0.024709431502500285,-0.05666945792641528,-0.9649339715059245
1970-01-01 00:00:00.000000004,0.06061409946778378,0.025604599740149735,-0.07370478016738755,-0.964395891516426
1970-01-01 00:00:00.000000004,0.06154851959382123,0.026281308599503818,-0.0736930594751116,-0.9640885523196344
1970-01-01 00:00:00.000000004,0.05157224663795663,0.035611195482976685,-0.06438736262408853,-0.9643745580771665
1970-01-01 00:00:00.000000004,0.05065184959487069,0.04429434045543012,-0.055692360360718306,-0.9649511447493007
1970-01-01 00:00:00.000000004,0.05032770417338218,0.034966385927312986,-0.06467597800164057,-0.9646759610402845
1970-01-01 00:00:00.000000004,0.06123485549302457,0.016975086133803784,-0.0733820391317899,-0.9641227967865906
1970-01-01 00:00:00.000000004,0.061246500414163636,0.025312545807988134,-0.06468747243409478,-0.9646879460750627
1970-01-01 00:00:00.000000004,0.05970225581029822,0.033349534205180685,-0.056293833065472,-0.9655658637168102
1970-01-01 00:00:00.000000004,0.06936562798604144,0.015682598951123533,-0.0646882991143921,-0.965032653059569
1970-01-01 00:00:00.000000004,0.06997430436652674,0.015382216604855017,-0.06498866389337768,-0.9650141897618235
1970-01-01 00:00:00.000000004,0.06998714439092242,0.024978061087070035,-0.06466481429969999,-0.9650096588025531
1970-01-01 00:00:00.000000004,0.059689846144102256,0.03400601126586521,-0.05598074367868615,-0.9652660193872713
1970-01-01 00:00:00.000000004,0.06032417353360884,0.02595751096890672,-0.06404199714721495,-0.964399596776143
1970-01-01 00:00:00.000000004,0.05128230320301337,0.02596917867677659,-0.06403078551395137,-0.9644006997864122
1970-01-01 00:00:00.000000004,0.06000002956306451,0.03403033944654717,-0.055969185586983994,-0.9655992713144875
1970-01-01 00:00:00.000000004,0.06871732267273634,0.0340292211608799,-0.05595799055372605,-0.9656003909238691
1970-01-01 00:00:00.000000004,0.05969953604469203,0.02564633029794737,-0.06400886096289693,-0.9647235852292524
1970-01-01 00:00:00.000000004,0.06001048033151805,0.025045597365727208,-0.055657354962476334,-0.9653125097839244
1970-01-01 00:00:00.000000004,0.06902787827920295,0.03369888980675777,-0.05562563179391926,-0.9656000877066522
1970-01-01 00:00:00.000000004,0.059687903204490245,0.026013379206621078,-0.055045751683462645,-0.9647009065058052
1970-01-01 00:00:00.000000004,0.050658843876022756,0.035275816869884895,-0.06399619556170735,-0.9647109198522257
1970-01-01 00:00:00.000000004,0.05968788966958903,0.04334911128184916,-0.05593609348106683,-0.9655784945027108
1970-01-01 00:00:00.000000004,0.05936491029108262,0.026037510998805295,-0.05539100516834639,-0.9650211084622083
1970-01-01 00:00:00.000000004,0.0599996118048829,0.03465360515012523,-0.0646311266000572,-0.9650015145126872
1970-01-01 00:00:00.000000004,0.05999920957144407,0.034629613468273,-0.0646296276194982,-0.9649999979666353
1970-01-01 00:00:00.000000004,0.06000077784661753,0.02534593379345821,-0.055368843826185614,-0.9649984552862542
1970-01-01 00:00:00.000000004,0.060001166006727925,0.024691177489446423,-0.055348577153153555,-0.9649777162278617
1970-01-01 00:00:00.000000004,0.060624221182285463,0.016306129719048025,-0.06405246801152092,-0.9644096115685618
1970-01-01 00:00:00.000000004,0.06093592782415552,0.024978524070252008,-0.06466386001250721,-0.964677596977898
1970-01-01 00:00:00.000000004,0.06062461034672632,0.025311625428470895,-0.06467414707544843,-0.9646879015839578
1970-01-01 00:00:00.000000004,0.060612948965318,0.02562249857956359,-0.0643509749434945,-0.964708609707854
1970-01-01 00:00:00.000000004,0.0603132768924414,0.033984976005739756,-0.055313036612920356,-0.964955420742117
1970-01-01 00:00:00.000000004,0.050649142359840076,0.016650791478399558,-0.05442207570237476,-0.9644088124263108
1970-01-01 00:00:00.000000004,0.06062345739147195,0.024678897012075686,-0.054990504250161366,-0.9649900116672454
1970-01-01 00:00:00.000000004,0.05999922362603798,0.025000489959848167,-0.05500047693979527,-0.9650004404771289
1970-01-01 00:00:00.000000004,0.05969955106791979,0.025032679140718772,-0.055324025887422947,-0.9653235339783471
1970-01-01 00:00:00.000000004,0.06872820572226937,0.03369472290469771,-0.05593534595548643,-0.9659221008731146
1970-01-01 00:00:00.000000004,0.06841649907977171,0.033706820164241265,-0.05594833403255767,-0.9655912087176052
1970-01-01 00:00:00.000000004,0.060021765633733154,0.016994963657388337,-0.06406413079598769,-0.9644349923746394
1970-01-01 00:00:00.000000004,0.06033271090861788,0.03400751561434731,-0.06493288042999368,-0.9653032683685452
1970-01-01 00:00:00.000000005,0.06872783253101455,0.03403986818542624,-0.056291730558394766,-0.9659213433206362
1970-01-01 00:00:00.000000005,0.06841764963178915,0.034041201861361614,-0.05597156817746122,-0.9656007248194222
1970-01-01 00:00:00.000000005,0.0596999242398067,0.025659064807431214,-0.06435412749697181,-0.9647117440676741
1970-01-01 00:00:00.000000005,0.06062229378619023,0.025668959208066708,-0.06467446297198431,-0.964700953738987
1970-01-01 00:00:00.000000005,0.06061140779318944,0.03493007788686646,-0.06432912867011989,-0.9646867628084886
1970-01-01 00:00:00.000000005,0.05066196689236112,0.03463070483115381,-0.055024450027434904,-0.9646540809963817
1970-01-01 00:00:00.000000005,0.0506491258974637,0.016362219151434387,-0.05506775547346131,-0.9647101574966541
1970-01-01 00:00:00.000000005,0.07027515388747002,0.02465779822383475,-0.06429636178975387,-0.9650115854470168
1970-01-01 00:00:00.000000005,0.05998756197248246,0.0250108997391045,-0.05532144600288488,-0.9649900827257911
1970-01-01 00:00:00.000000005,0.06001145085803592,0.025334878572906106,-0.054684296447203615,-0.965022264308401
1970-01-01 00:00:00.000000005,0.05937557603285119,0.034046166437543,-0.04613921336342132,-0.96559570889285
1970-01-01 00:00:00.000000005,0.058908434256414906,0.03450686971127967,-0.050479209894643565,-0.9654666213280105
1970-01-01 00:00:00.000000005,0.05922441637403915,0.03433320488609416,-0.055105564672874564,-0.9653091778443543
1970-01-01 00:00:00.000000005,0.05955282278704039,0.025185363743217053,-0.05467533474302111,-0.9651854789396098
1970-01-01 00:00:00.000000005,0.06360635594639455,0.024155344974775103,-0.042644744594662144,-0.9662150247310839
1970-01-01 00:00:00.000000005,0.07745544095068674,0.03336632312184013,-0.06537539676674158,-0.9662628162535377
1970-01-01 00:00:00.000000005,0.07807305263449424,0.03399198300164913,-0.06523436442061463,-0.9656244104276831
1970-01-01 00:00:00.000000005,0.05971081966307583,0.025334298373593585,-0.05503536213893416,-0.9646791848429824
1970-01-01 00:00:00.000000005,0.05098185691743634,0.016346501057571728,-0.054407985358414325,-0.9644011523606542
1970-01-01 00:00:00.000000005,0.06062192883598307,0.025162379272754568,-0.05483909344633946,-0.9650107798027643
1970-01-01 00:00:00.000000005,0.0593761951488818,0.03834836931531998,-0.05093690768425133,-0.9655792723054686
1970-01-01 00:00:00.000000005,0.059076106794989196,0.02552808351034034,-0.05517292275897811,-0.9653450811754305
1970-01-01 00:00:00.000000005,0.0687266524848729,0.033722724319679986,-0.05591916795236941,-0.9659250805753525
1970-01-01 00:00:00.000000005,0.06841572074555505,0.03400632214340121,-0.05562376293260231,-0.9656112453367003
1970-01-01 00:00:00.000000005,0.059399097719098945,0.025034105890902374,-0.055336298889150606,-0.9649924111768061
1970-01-01 00:00:00.000000005,0.060331931139731336,0.016350961594724128,-0.06401988239068873,-0.9647474317533076
1970-01-01 00:00:00.000000005,0.06934971823247649,0.03370715398960319,-0.055935228836489916,-0.9659229493395414
1970-01-01 00:00:00.000000005,0.06779305331910779,0.04273394348971099,-0.04723954882937748,-0.9661804530491503
1970-01-01 00:00:00.000000005,0.059074924726868115,0.026291239889760197,-0.06335066989953675,-0.9647673633303547
1970-01-01 00:00:00.000000005,0.05969683078443051,0.034074495704956465,-0.046283576286960414,-0.9655933946992701
1970-01-01 00:00:00.000000005,0.058739912714908527,0.034354412362118975,-0.045671621630328514,-0.9656200253318624
1970-01-01 00:00:00.000000005,0.05906523579439293,0.034362551981496584,-0.04598229382266834,-0.965279375351787
1970-01-01 00:00:00.000000005,0.05033507262951678,0.025935682369223244,-0.063349120350763,-0.9644219179354352
1970-01-01 00:00:00.000000005,0.060622276318594515,0.025022865018685204,-0.05532196261678112,-0.9649904158738218
1970-01-01 00:00:00.000000005,0.05998833615733741,0.02500277213927119,-0.055022771298319194,-0.9649982116537492
1970-01-01 00:00:00.000000005,0.06000037171799059,0.025022479804179633,-0.05532236537530381,-0.9649908017148676
1970-01-01 00:00:00.000000005,0.06031052555571504,0.025624392561280202,-0.06366088384716746,-0.9647332246599596
1970-01-01 00:00:00.000000005,0.05967584150953521,0.03405277046977898,-0.046304847378830984,-0.9655896129846467
1970-01-01 00:00:00.000000005,0.0590531595263885,0.034687721264971286,-0.04568268423904051,-0.9652990147832681
1970-01-01 00:00:00.000000005,0.050024518929029066,0.035299404382497054,-0.05434392637719225,-0.9647000854655109
1970-01-01 00:00:00.000000005,0.05032341460737771,0.0349995231386642,-0.055000001868942695,-0.9649999667093135
1970-01-01 00:00:00.000000005,0.05998833957157783,0.03499902910078278,-0.05534481534489646,-0.9649877069465913
1970-01-01 00:00:00.000000005,0.05032535559034392,0.034954464553694164,-0.06432981047203806,-0.9646879188774298
1970-01-01 00:00:00.000000005,0.060623817475635076,0.025657422119170645,-0.06467415912992328,-0.9647001944738003
1970-01-01 00:00:00.000000005,0.06061176884784397,0.025314587502849706,-0.06435383119697002,-0.9646986770762489
1970-01-01 00:00:00.000000005,0.06031327588752791,0.025023564422784004,-0.05569215922325321,-0.9649769626198991
1970-01-01 00:00:00.000000005,0.060313260379637086,0.0253026307591094,-0.06435348898407871,-0.9646983348142327
1970-01-01 00:00:00.000000005,0.06062344432184817,0.02533497773546213,-0.0646645316845871,-0.9646905657020962
1970-01-01 00:00:00.000000005,0.06062305562092037,0.02596814838992844,-0.0643624862082265,-0.9647205588508153
1970-01-01 00:00:00.000000005,0.05968907023365367,0.043002257978064576,-0.05592536675206495,-0.9655672940844514
1970-01-01 00:00:00.000000005,0.05937734759800009,0.02566883199099619,-0.055046401124317565,-0.9650203664561722
1970-01-01 00:00:00.000000005,0.06001088306828639,0.025046500855641515,-0.05533716852770392,-0.9649923051553931
1970-01-01 00:00:00.000000005,0.06000971797524256,0.025324319327406086,-0.06431952090761239,-0.9650342445233624
1970-01-01 00:00:00.000000005,0.06903915053120016,0.03372954338718791,-0.05627047357496606,-0.9659128745725123
1970-01-01 00:00:00.000000005,0.06841646854624064,0.03437516644381638,-0.055981451299322846,-0.9656115546173167
1970-01-01 00:00:00.000000005,0.059387842953394464,0.03498642262267919,-0.06464223947993543,-0.9650126280682284
1970-01-01 00:00:00.000000005,0.05999805611044381,0.03497569850688783,-0.06464156052057507,-0.9650119490864966
1970-01-01 00:00:00.000000005,0.060010898090301,0.034688580163863156,-0.05534875147502887,-0.9649788541666134
1970-01-01 00:00:00.000000005,0.05002453202942833,0.026012370559372507,-0.05537832466326218,-0.9650207087701174
1970-01-01 00:00:00.000000005,0.06935242546692687,0.04263571956154949,-0.06487571981069859,-0.965589988004202
1970-01-01 00:00:00.000000005,0.05967663149089794,0.01635112630695587,-0.05506704152111607,-0.9647098986388452
1970-01-01 00:00:00.000000005,0.060634326385200984,0.01572983474935043,-0.05504925723632994,-0.9646921312215145
1970-01-01 00:00:00.000000005,0.060633923670186836,0.02561110827240545,-0.06400620751289844,-0.9647209479951427
1970-01-01 00:00:00.000000005,0.059377335463907735,0.04266530050406183,-0.05622313371346081,-0.9658782527488708
1970-01-01 00:00:00.000000005,0.06873015199820856,0.025023406841119044,-0.05534700124668951,-0.9653204747205202
1970-01-01 00:00:00.000000005,0.059988715668835985,0.016041482747094535,-0.05507110140620483,-0.9646997661642157
1970-01-01 00:00:00.000000005,0.060947978892652604,0.025303937068598008,-0.0643654269826799,-0.9643659019751427
1970-01-01 00:00:00.000000005,0.051572630942094314,0.026258036050572663,-0.07370220918062603,-0.9640863692191005
1970-01-01 00:00:00.000000005,0.06154891990917469,0.035254044798954706,-0.07400321239212086,-0.964375058438471
1970-01-01 00:00:00.000000005,0.05126129989097134,0.03528716728970967,-0.06469853163813506,-0.96435421485111
1970-01-01 00:00:00.000000005,0.05128578826577719,0.026280980980411595,-0.06407563288030936,-0.9644072335842777
1970-01-01 00:00:00.000000005,0.059989881616771774,0.03337310357978521,-0.05626977173183758,-0.9655673075260147
1970-01-01 00:00:00.000000005,0.06965326924364482,0.015971990856148283,-0.06402902869695815,-0.9647308944357647
1970-01-01 00:00:00.000000005,0.060623756759469814,0.015359743262751961,-0.05502490935950157,-0.9646777485130835
1970-01-01 00:00:00.000000005,0.06063614513709723,0.015658064524884812,-0.05472653672284392,-0.964651328130749
1970-01-01 00:00:00.000000005,0.06026303947743564,0.02458738319495009,-0.05541219787146097,-0.9637287267313197
1970-01-01 00:00:00.000000005,0.0605351307086757,0.024445910517052697,-0.06515817702831009,-0.929779664836597
1970-01-01 00:00:00.000000005,0.02033390414401055,-0.004170695729680952,-0.0934814783880708,-0.029945120351971298
1970-01-01 00:00:00.000000005,-0.011461316779374817,-0.005779402323529098,-0.07756644655468638,0.0025367082282835188
1970-01-01 00:00:00.000000005,-0.002471915981234504,0.0033844595838549703,-0.09555495199900199,0.003693869105087029
1970-01-01 00:00:00.000000005,-0.0025111877673012896,0.003700084029018722,-0.09587698447696257,0.0037380305504701593
1970-01-01 00:00:00.000000005,-0.0028105210940952145,0.002757230440781781,-0.08688420763785881,0.003472376998736628
1970-01-01 00:00:00.000000005,-0.002511272596312862,-0.015231256016658316,-0.08597301563397278,0.00403975452667036
1970-01-01 00:00:00.000000005,-0.0015660014831549614,-0.015242934093985538,-0.08562900568283487,0.004359204017933966
1970-01-01 00:00:00.000000005,-0.01152943447565399,-0.005936136238646681,-0.08561830952026309,0.004050582239851918
1970-01-01 00:00:00.000000005,-0.003122668396239979,0.0028112892595733587,-0.07822131775522013,0.0028505500671158635
1970-01-01 00:00:00.000000005,0.005904823121723876,0.012063622544081621,-0.09613459357372753,0.0031369458692288785
1970-01-01 00:00:00.000000005,-0.0028140523013540477,-0.004936734909417719,-0.09525596307547021,0.004003734062015683
1970-01-01 00:00:00.000000005,-0.0028024219018756903,0.0028390967755358527,-0.07758184759007042,0.0031584356790922818
1970-01-01 00:00:00.000000005,-0.00374727728968684,0.003458333521880245,-0.07758793618343691,0.0031400149464708093
1970-01-01 00:00:00.000000005,-0.0034471884260507783,0.012351854884406061,-0.09547648279354927,0.003437914444796349
1970-01-01 00:00:00.000000005,-0.0025023340275086856,-0.005594487560822514,-0.0859133351603017,0.0040474391451238295
1970-01-01 00:00:00.000000005,-0.011842695790865818,-0.015208432420988797,-0.07598897992897036,0.004037529079173057
1970-01-01 00:00:00.000000005,-0.0031246127723290633,-0.007160379639857438,-0.06791631475587867,0.002838654158568741
1970-01-01 00:00:00.000000005,0.00560516415170486,0.002120693287045088,-0.07750900733754468,0.0028486443443916
1970-01-01 00:00:00.000000006,-0.003437109380425738,-0.005952516544753659,-0.09519849829265556,0.003703128205175555
1970-01-01 00:00:00.000000006,0.007184345458134071,-0.006539290549918729,-0.08655109711867917,0.0034351666408230326
1970-01-01 00:00:00.000000006,-0.0034371103291854495,-0.006516314201878717,-0.0775891098105074,0.0031383851982212502
1970-01-01 00:00:00.000000006,0.006239893271816452,0.0024345512276585774,-0.08651912363655491,0.0031369778396167277
1970-01-01 00:00:00.000000006,-0.003125374626413477,-0.005583878575216706,-0.08626030430035239,0.003726940547553774
1970-01-01 00:00:00.000000006,-0.002789941461358235,0.002768168825702806,-0.08654165088874571,0.0034578585285490343
1970-01-01 00:00:00.000000006,-0.00311334005440515,-0.0058944681810656745,-0.08658317474603966,0.0034163346730129783
1970-01-01 00:00:00.000000006,0.006227054718883782,0.0021335966959097293,-0.08715166084393805,0.0028355840531874804
1970-01-01 00:00:00.000000006,0.0062266509934777205,-0.006227195411851947,-0.08624044242276761,0.003415660380569406
1970-01-01 00:00:00.000000006,-0.003112173993891013,-0.00620537327037524,-0.07727778502525028,0.003449745767723556
1970-01-01 00:00:00.000000006,-0.0031125631764664444,0.002423967413463222,-0.0865179029572484,0.0034693256497084443
1970-01-01 00:00:00.000000006,-0.0021905978195352078,-0.014275277456196308,-0.09463336571053513,0.004294275884326406
1970-01-01 00:00:00.000000006,-0.0025023185196001983,0.00283625764769431,-0.07789025484874067,0.003168839605564277
1970-01-01 00:00:00.000000006,-0.003747277273370959,0.012719480555488855,-0.08653826859391638,0.0031296400774559674
1970-01-01 00:00:00.000000006,-0.003746889542929419,0.012406402573231815,-0.08682631196427341,0.0031481277084753822
1970-01-01 00:00:00.000000006,-0.00312577542399482,-0.005891057727719647,-0.08591660109095553,0.0037253614018889995
1970-01-01 00:00:00.000000006,-0.002503094909856653,-0.01517612897229777,-0.07663308524216275,0.0037254623918901515
1970-01-01 00:00:00.000000006,-0.0031246127705183515,0.002424115972735309,-0.0768881599503845,0.0031506636761994044
1970-01-01 00:00:00.000000006,-0.003735228162124585,0.0024540390020579375,-0.07752045465231161,0.003169235631400829
1970-01-01 00:00:00.000000006,-0.002813666531814076,-0.014611137629961562,-0.0946101903748188,0.003972623658832017
1970-01-01 00:00:00.000000006,0.006850108885905849,0.001832982997124301,-0.07816694745965247,0.002879341165208588
1970-01-01 00:00:00.000000006,-0.003435945744373454,-0.005938781603468895,-0.08593785119158509,0.0037291276460132824
1970-01-01 00:00:00.000000006,-0.0024774453414605105,-0.006240982525658112,-0.08621593094801952,0.0037462090422756508
1970-01-01 00:00:00.000000006,-0.0028148204557467585,-0.006570716817910394,-0.08589525463355129,0.0034155462668205685
1970-01-01 00:00:00.000000006,0.00623872726266937,-0.006794889935644148,-0.06858246253558496,0.002847021784158985
1970-01-01 00:00:00.000000006,-0.00405005976461407,0.0027670253665026167,-0.08617289701625858,0.0031123787164567766
1970-01-01 00:00:00.000000006,0.005936710002280345,0.003097732135582551,-0.08649259959902904,0.0027803608645415355
1970-01-01 00:00:00.000000006,0.00466688923525089,0.01086083493285421,-0.0691381995188983,0.0019464572647913483
1970-01-01 00:00:00.000000006,0.00500269456610357,-0.006516512468417116,-0.07690011093112309,0.003112661764926372
1970-01-01 00:00:00.000000006,-0.003104773564181544,-0.015212712212808475,-0.0855708362541167,0.0036893697555283014
1970-01-01 00:00:00.000000006,0.00622433201280682,0.0017986624598185365,-0.0774870881927994,0.0025257013715667105
1970-01-01 00:00:00.000000006,0.005304712291210375,0.0021429185705132466,-0.06821422500886352,0.002870887219376529
1970-01-01 00:00:00.000000006,-0.01308842029509761,-0.014923988278822294,-0.08528111426937561,0.004004126328738915
1970-01-01 00:00:00.000000006,0.007484031114859187,-0.006895967498409917,-0.08618122566397321,0.0034351582568791237
1970-01-01 00:00:00.000000006,-0.0031374086811337735,-0.006562546650026212,-0.07690739112968034,0.0034497341352181074
1970-01-01 00:00:00.000000006,-0.0031117581742546923,-0.0065621625521735324,-0.07658770533727145,0.0034382928941334517
1970-01-01 00:00:00.000000006,-0.0031133419741898975,-0.006552517402415166,-0.07689732812040405,0.0034474988626292027
1970-01-01 00:00:00.000000006,-0.0031140868671144756,-0.006585582814531171,-0.08586992941513208,0.0034144008953602284
1970-01-01 00:00:00.000000006,0.0062371453807739015,-0.007176271410569918,-0.07750881890880569,0.002823272491453719
1970-01-01 00:00:00.000000006,0.00561409074844644,-0.007184326969558565,-0.07687876282132318,0.0028033746751883076
1970-01-01 00:00:00.000000006,0.0053039373547861535,-0.007142243779973103,-0.06855946427938056,0.00252615672616973
1970-01-01 00:00:00.000000006,0.005614867121205661,0.0020869980530913417,-0.08648351957914431,0.003146110074201246
1970-01-01 00:00:00.000000006,-0.0024793868423034666,-0.014623739959510978,-0.09461049553046587,0.004303884104313452
1970-01-01 00:00:00.000000006,-0.002490659541496575,-0.006828374729349104,-0.07790025751289477,0.0031583629728008855
1970-01-01 00:00:00.000000006,0.0062278151178188565,0.0024245085739631263,-0.08652957101081249,0.0031388024681913516
1970-01-01 00:00:00.000000006,-0.003123819401508511,-0.0055721580259936575,-0.08626042403138992,0.0037270394160182877
1970-01-01 00:00:00.000000006,-0.00281288866706633,0.0030849740142665093,-0.08654412854665601,0.0034490110543625896
1970-01-01 00:00:00.000000006,-0.002812500468304884,0.003230923797790819,-0.08606657934171943,0.003760726438374135
1970-01-01 00:00:00.000000006,-0.012164526105118492,-0.009901987152893369,-0.08130546935874741,0.004038647102760664
1970-01-01 00:00:00.000000006,-0.002501556179061124,0.0025805313810272376,-0.08601598503752032,0.003447853643104304
1970-01-01 00:00:00.000000006,-0.0031370476379621324,-0.006049869389782324,-0.07675233048471278,0.0034271974306431473
1970-01-01 00:00:00.000000006,-0.0034355551387183643,-0.0018746101256807723,-0.07224454327025595,0.0031388717637297787
1970-01-01 00:00:00.000000006,-0.003747679540582866,0.0022718796848942156,-0.07701385412370529,0.0031588238785541897
1970-01-01 00:00:00.000000006,-0.002813665073080354,-0.014929133556094484,-0.0852740132437068,0.004004877783313805
1970-01-01 00:00:00.000000006,-0.0025019439095016836,-0.006872363698514097,-0.07689838145544714,0.003458998271848291
1970-01-01 00:00:00.000000006,-0.003123833471771525,-0.006562210567172203,-0.07691981031675248,0.003450551293203501
1970-01-01 00:00:00.000000006,-0.002811335879829203,-0.006273960557459319,-0.08590313603919077,0.0037392477023246006
1970-01-01 00:00:00.000000006,-0.0025007792877895277,-0.006584688546173625,-0.08621482680334304,0.003759172607616582
1970-01-01 00:00:00.000000006,-0.0021894317136275905,-0.015243183932546766,-0.08562774139438889,0.004027858960006683
1970-01-01 00:00:00.000000006,-0.00250115533543503,-0.006514931048579742,-0.07726784426114909,0.003459365896572307
1970-01-01 00:00:00.000000006,-0.003112898449538794,0.0034025824227630974,-0.0865415168547669,0.0034375570493144075
1970-01-01 00:00:00.000000006,-0.003425799731172057,0.012144580899783637,-0.0955931863809577,0.0031145988715166307
1970-01-01 00:00:00.000000006,0.005644875183532561,-0.00361382928589992,-0.07258944658838669,0.002541681324337884
1970-01-01 00:00:00.000000006,0.005009770935401679,0.0022750799499027664,-0.07732881993649743,0.0025038484545897095
1970-01-01 00:00:00.000000006,0.005302795642575593,0.0028036629792471766,-0.07752601665107113,0.002824901995556611
1970-01-01 00:00:00.000000006,-0.0037379100766696824,0.00309125437940839,-0.08620619575278478,0.0034359393150774583
1970-01-01 00:00:00.000000006,-0.0028027698379252232,-0.00555947670811282,-0.0862609506470121,0.003725777538641337
1970-01-01 00:00:00.000000006,-0.0028136524245666985,0.0030918024225711532,-0.08655054379551673,0.003448982149264104
1970-01-01 00:00:00.000000006,-0.0031242056586068927,0.0030905248106796765,-0.08655134913879418,0.003449123184635983
1970-01-01 00:00:00.000000006,-0.002811334425885505,-0.005594873762190309,-0.0862831241798978,0.00373010260793609
1970-01-01 00:00:00.000000006,-0.0028101683648524252,0.0020784854852933473,-0.08686240184333549,0.0034942491047488386
1970-01-01 00:00:00.000000006,-0.001876557135653151,-0.024262410888686626,-0.09497811834396021,0.004638230466484042
1970-01-01 00:00:00.000000006,-0.0006308229530532696,-0.02427325833470375,-0.09465647229846104,0.004628294635450601
1970-01-01 00:00:00.000000006,-0.002187488368028658,0.001764688532887027,-0.07786638103328189,0.0032059773718860836
1970-01-01 00:00:00.000000006,-0.003109839983951131,-0.006273194757834444,-0.08592885908063894,0.003740050924985124
1970-01-01 00:00:00.000000006,-0.0024891140232913204,-0.015201903915145441,-0.08627377106469969,0.003714440681983333
1970-01-01 00:00:00.000000006,0.006539155824168547,0.0021105965519237326,-0.08717415216323654,0.002838654991580332
1970-01-01 00:00:00.000000006,0.005918041688334912,0.0024203077098575556,-0.0871960404499153,0.0031615409834574357
1970-01-01 00:00:00.000000006,-0.0024871890328767177,-0.014945627486911799,-0.09530227908561816,0.00433961246062878
1970-01-01 00:00:00.000000006,-0.00124145193216001,-0.015589184933414525,-0.09560242993871285,0.004371060376581445
1970-01-01 00:00:00.000000006,-0.00126476019135503,-0.015289132334340604,-0.09529009587869061,0.0043522510880091535
1970-01-01 00:00:00.000000006,-0.0015624912806856675,-0.006271616690844007,-0.08628438738299604,0.004085490402602075
1970-01-01 00:00:00.000000006,-0.011850484433870836,-0.005928007704245122,-0.08627185284799668,0.004072500396451931
1970-01-01 00:00:00.000000006,-0.001876555177771003,-0.005638991091207557,-0.09491003928034616,0.004017620534167785
1970-01-01 00:00:00.000000006,-0.0028237557731346456,0.0024435274533479386,-0.07753092850964234,0.0031715332377860047
1970-01-01 00:00:00.000000006,-0.0034347612916978366,-0.006560152551739003,-0.07659941536333774,0.003439392002713532
1970-01-01 00:00:00.000000006,-0.0028016456201518966,-0.01552422917451372,-0.07660986912468878,0.0037354680112671934
1970-01-01 00:00:00.000000006,-0.0028020007639015807,-0.006596311832120524,-0.08586932767524862,0.0034159676295110976
1970-01-01 00:00:00.000000006,0.005903968411289385,0.0014761054767924522,-0.07780968233749219,0.0025479537550644736
1970-01-01 00:00:00.000000006,0.006230148642585515,-0.015200346346242413,-0.07664360148880009,0.0037272777054698845
1970-01-01 00:00:00.000000006,-0.012215688525890092,-0.005987666838215254,-0.08566976787298912,0.003986334279744747
1970-01-01 00:00:00.000000006,-0.0006187878825217202,0.0030277648745610617,-0.08694570792177649,0.0033981710077687546
1970-01-01 00:00:00.000000006,-0.0028861661751145265,0.00371259235427999,-0.09588907211205884,0.0037395568329288884
1970-01-01 00:00:00.000000006,-0.002498030425088358,0.0033911091659438986,-0.09588035862886365,0.003748743956258702
1970-01-01 00:00:00.000000006,-0.002489583915989501,-0.005880764721532801,-0.08660873071499771,0.0037484101383177
1970-01-01 00:00:00.000000006,-0.002801613038319408,-0.006204038899850607,-0.0865876529285968,0.0034260475257969895
1970-01-01 00:00:00.000000007,0.006239865551476946,0.0024443226360745204,-0.08718529014660796,0.0028274812687083418
1970-01-01 00:00:00.000000007,0.0056043736929181735,0.00213150307643118,-0.08748442802724814,0.0028466997318979275
1970-01-01 00:00:00.000000007,0.006861756200476566,-0.01493383489795624,-0.09493436191461502,0.003993316167011544
1970-01-01 00:00:00.000000007,-0.0024906852413050335,-0.006848855007640688,-0.07724715335374659,0.003469027091025338
1970-01-01 00:00:00.000000007,-0.003111392769317483,-0.006214309589326544,-0.0769678379175277,0.003441356009688251
1970-01-01 00:00:00.000000007,-0.003133937219594171,0.0030763746097456097,-0.08687059190557953,0.003461463684479405
1970-01-01 00:00:00.000000007,-0.00219875719311713,0.0036109760283920783,-0.1042035915571857,0.004352715447189782
1970-01-01 00:00:00.000000007,-0.010926964873283537,-0.014945643991162723,-0.0859920022864382,0.004696231241641518
1970-01-01 00:00:00.000000007,-0.010291876110662524,-0.024603619809690842,-0.0850407261965503,0.00498527205722497
1970-01-01 00:00:00.000000007,-0.010291891153849729,-0.02459493208401834,-0.08535044623394722,0.004663273089905776
1970-01-01 00:00:00.000000007,-0.001885883558318343,-0.006919426399034204,-0.08688120206025236,0.0034632214300032668
1970-01-01 00:00:00.000000007,0.006830259485788977,0.0023773882082802644,-0.0958350404946794,0.0034506744183702615
1970-01-01 00:00:00.000000007,-0.0021867376606701265,-0.014254548020308488,-0.08602834733900246,0.004341531823082699
1970-01-01 00:00:00.000000007,-0.011840001243435599,0.002781712803053511,-0.08689844009872268,0.003802582364527513
1970-01-01 00:00:00.000000007,-0.0018777202991969496,-0.004671072771019459,-0.10426140180028351,0.004296325545386598
1970-01-01 00:00:00.000000007,-0.002511256721187207,0.012074196333118873,-0.0871845345552321,0.0031730813146115676
1970-01-01 00:00:00.000000007,-0.003744942295329543,0.0024809178412111047,-0.07791448711500294,0.0031834140251066085
1970-01-01 00:00:00.000000007,-0.002187889148726737,-0.02327240131316005,-0.09468960424258759,0.00459611067052615
1970-01-01 00:00:00.000000007,-0.0015660005551386756,0.0020444621143819526,-0.09582461202394667,0.003791789490014199
1970-01-01 00:00:00.000000007,-0.0021758405577552006,-0.015257323130969822,-0.08630512193641562,0.004052004027414184
1970-01-01 00:00:00.000000007,-0.0021875029259483536,-0.015865971174242592,-0.08628746478294946,0.0037385347264948642
1970-01-01 00:00:00.000000007,0.007163761829031792,-0.006562540901194085,-0.08689506953083373,0.003449791260334152
1970-01-01 00:00:00.000000007,-0.0028113460555197205,0.003021963443821794,-0.09553481594774245,0.0037504259043459887
1970-01-01 00:00:00.000000007,-0.002487172558729282,-0.0059053913294421,-0.08660590627203411,0.003750762943185324
1970-01-01 00:00:00.000000007,-0.002512033600922106,-0.006227270156700049,-0.0865843942151206,0.003760432743715318
1970-01-01 00:00:00.000000007,-0.001876153929975641,-0.005670322060463443,-0.09461215669522481,0.004341501978124167
1970-01-01 00:00:00.000000007,-0.011839601884063784,-0.006528158067414344,-0.07760056914755162,0.0038033880740341954
1970-01-01 00:00:00.000000007,-0.0021882792818046864,-0.014943166066522927,-0.09495643059546865,0.003996755713998909
1970-01-01 00:00:00.000000007,0.007151322581716922,0.002122876623212385,-0.08716285457818179,0.003169218555856284
1970-01-01 00:00:00.000000007,-0.0031238300774466907,-0.00558243200158477,-0.08628390991028151,0.0037288783992785297
1970-01-01 00:00:00.000000007,-0.0027996875789541697,0.003090478165011694,-0.0865636941684074,0.0034495170556755037
1970-01-01 00:00:00.000000007,-0.003123442830482952,0.003078513099743413,-0.08688266199387394,0.003461252746803636
1970-01-01 00:00:00.000000007,-0.002500760902958501,-0.0059377243527072195,-0.09523527954695701,0.004037207227254492
1970-01-01 00:00:00.000000007,-0.0018773199698972507,-0.014910948168104506,-0.0859837633192313,0.004029464843802963
1970-01-01 00:00:00.000000007,-0.0028105565938752177,0.0017890006065805616,-0.07787945327959059,0.0032052203481224353
1970-01-01 00:00:00.000000007,-0.002487173027050837,-0.014968997400033414,-0.09494443717552793,0.0043285226096893
1970-01-01 00:00:00.000000007,-0.0015656273849920994,-0.015589642785396547,-0.09525806283757862,0.004027177735573975
1970-01-01 00:00:00.000000007,0.007164552275111145,-0.00717296080295502,-0.0782448624363764,0.0031836732535253276
1970-01-01 00:00:00.000000007,-0.0028226061697985937,-0.00597250277488293,-0.09524542682507821,0.0040397962291162754
1970-01-01 00:00:00.000000007,-0.0015419023338997433,-0.005627255993426884,-0.09492430371527646,0.004348183058072103
1970-01-01 00:00:00.000000007,-0.012164520793428824,-0.005873208825601592,-0.07762057326534424,0.0034513465608720473
1970-01-01 00:00:00.000000007,0.006229775937185089,0.011073437315866049,-0.08680835483533657,0.0028609936991545095
1970-01-01 00:00:00.000000007,-0.003123070160178149,-0.014911201689321774,-0.08597222533205208,0.0040282652729916515
1970-01-01 00:00:00.000000007,-0.002177796043676477,-0.01583191087978872,-0.08659775708230504,0.0037461407193855128
1970-01-01 00:00:00.000000007,0.0074622523305382625,-0.005949463020818804,-0.09556628684603047,0.00371846319457062
1970-01-01 00:00:00.000000007,-0.0028222029658682662,0.012039172010071427,-0.0868492250681255,0.0034951282264127463
1970-01-01 00:00:00.000000007,-0.012150560748174714,-0.0052805812529371915,-0.08565047853904383,0.00436231037288854
1970-01-01 00:00:00.000000007,-0.011228982582679502,-0.01456315858932258,-0.08566198823600352,0.004338959091631302
1970-01-01 00:00:00.000000007,-0.002211972366691065,0.0027481566581633475,-0.08655034651611568,0.0034624424180910544
1970-01-01 00:00:00.000000007,-0.0028218283431023826,0.0033898402100761287,-0.08657091584877538,0.0037734380471725944
1970-01-01 00:00:00.000000007,-0.011851277338155658,-0.005303214258893269,-0.09494512467360358,0.0043396415827856695
1970-01-01 00:00:00.000000007,-0.0018773485854563067,-0.006213948473516414,-0.08658477361184304,0.0037595614147184053
1970-01-01 00:00:00.000000007,-0.0025124528341687736,-0.00590235661631628,-0.08627272493642435,0.003739554524345621
1970-01-01 00:00:00.000000007,-0.0028117371929469327,0.0030906027774633632,-0.08653851672712656,0.00344869368710078
1970-01-01 00:00:00.000000007,-0.0031358956653050854,0.0034017784870131063,-0.08621407981680616,0.0034283219065609667
1970-01-01 00:00:00.000000007,-0.003135880158019811,0.003101661125333874,-0.07689739357319593,0.0034602425434889705
1970-01-01 00:00:00.000000007,-0.012475870740554357,-0.005604168905945965,-0.07596278746243093,0.004050985964694196
1970-01-01 00:00:00.000000007,-0.012164149538953757,-0.00657021226906673,-0.07625385859563175,0.0037603878200621692
1970-01-01 00:00:00.000000007,-0.0025124382593749374,-0.015531833201820298,-0.07663166546259023,0.0037392143340201265
1970-01-01 00:00:00.000000007,-0.0025120500828929755,-0.006238056852741168,-0.08624988156696285,0.0037496265258230538
1970-01-01 00:00:00.000000007,-0.002499613278241413,0.0033543229227916862,-0.09586511210042256,0.003750726608186746
1970-01-01 00:00:00.000000007,-0.0025000169412618834,0.003045082979169217,-0.09586783793339243,0.0037602991062718224
1970-01-01 00:00:00.000000007,-0.0021774108902900876,-0.014876966164725603,-0.0863063957806771,0.004037465581649521
1970-01-01 00:00:00.000000007,-0.00250153680919889,-0.006548013490003357,-0.08622969220813281,0.003426427535021014
1970-01-01 00:00:00.000000007,0.0062160792655307565,0.002443866227852147,-0.07753202954569265,0.0028393421571347027
1970-01-01 00:00:00.000000007,-0.003732504036308034,0.0027671557105295986,-0.07690035145705053,0.0034705647761328856
1970-01-01 00:00:00.000000007,-0.012527018154119735,-0.014652815204367148,-0.08569961295548657,0.00394375363763798
1970-01-01 00:00:00.000000007,0.0090332996901465,0.0017044407853699216,-0.0868915913272768,0.0031083904539029395
1970-01-01 00:00:00.000000007,-0.002884638869613058,-0.015257382858115485,-0.08630345214845686,0.004052689350271204
1970-01-01 00:00:00.000000007,-0.001561144466286914,-0.01560770694668872,-0.0952555456732603,0.004360293011217982
1970-01-01 00:00:00.000000007,-0.0009533552756068831,-0.015168164053105584,-0.09461374038019595,0.004657762601989763
1970-01-01 00:00:00.000000007,-0.011071161652283992,-0.011081381246363577,-0.07646410335123235,0.004250638483302997
1970-01-01 00:00:00.000000007,-0.011706292167117906,-0.015101429532403246,-0.07598935003677196,0.00403717651349587
1970-01-01 00:00:00.000000007,-0.002510500665557398,0.002072387983122037,-0.07651874352996531,0.003482731492731563
1970-01-01 00:00:00.000000007,-0.012492962753040567,-0.014911182396014147,-0.07598381274500265,0.00402948631754549
1970-01-01 00:00:00.000000007,-0.0023503721247625825,-0.006383156376779864,-0.07675304428638033,0.003604555379721618
1970-01-01 00:00:00.000000007,-0.0076498357714599365,0.003034107043296237,-0.08588023616692743,0.0037616557552761906
1970-01-01 00:00:00.000000007,-0.007487943394024131,-0.0059182059880611496,-0.08623558475449739,0.00373789747889694
1970-01-01 00:00:00.000000007,0.0023246740421300057,-0.006404831336501033,-0.08605971482005725,0.0035824135593861862
1970-01-01 00:00:00.000000007,-0.0029802298826509394,-0.006549928535158999,-0.07691440382474128,0.0034495801868377725
1970-01-01 00:00:00.000000007,-0.0029615824403178893,-0.006399803608822265,-0.07658575294398837,0.003599686989202137
1970-01-01 00:00:00.000000007,-0.007656422492093711,-0.006248643399063168,-0.08090480015896442,0.0037380940255994557
1970-01-01 00:00:00.000000007,-0.0025137911771123673,-0.005899131367517143,-0.07642941454968624,0.0037432885003486323
1970-01-01 00:00:00.000000007,-0.012470608776588022,0.0034024391055450963,-0.0762590500531201,0.0037610381132584902
1970-01-01 00:00:00.000000007,-0.013098941603836133,0.0030998640024928283,-0.0772300600992969,0.003139617342889649
1970-01-01 00:00:00.000000007,0.006228183668394772,0.0024325522724069023,-0.08681390931725072,0.0031472934554069906
1970-01-01 00:00:00.000000007,-0.0028373750994702173,-0.015264207668019747,-0.09458874648698563,0.003994050932585983
1970-01-01 00:00:00.000000007,0.007473910829158574,-0.015788526801671574,-0.06830461332409167,0.0034697142316848996
1970-01-01 00:00:00.000000007,-0.012475888171313874,0.003348580786655616,-0.0852612164997212,0.004062830086674669
1970-01-01 00:00:00.000000007,-0.012151698683211736,0.0037228155604583438,-0.08622562464929626,0.003749305627615479
1970-01-01 00:00:00.000000007,-0.0028249382943523063,0.0034372989069318283,-0.08656078947006456,0.0034382814201562107
1970-01-01 00:00:00.000000007,-0.0031362547650799844,0.0034378527242922745,-0.08656209324485518,0.003437890514194238
1970-01-01 00:00:00.000000007,-0.0031246238991397457,0.0034374959783694714,-0.08656295681161343,0.0034375337924995807
1970-01-01 00:00:00.000000008,-0.0031246229110318776,0.0034373648407668754,-0.08657491451962396,0.0034383480323777527
1970-01-01 00:00:00.000000008,-0.0031234288157760237,0.003424101349048729,-0.08690698859152068,0.003450609708413298
1970-01-01 00:00:00.000000008,-0.0028113198824756594,0.003046345351239778,-0.09588080368374366,0.0037610878624712942
1970-01-01 00:00:00.000000008,-0.0018652863532889882,-0.014922753571374701,-0.09562468757535685,0.004348785872513326
1970-01-01 00:00:00.000000008,-0.0015539228344671882,-0.015578556240330797,-0.09560362531286563,0.004038266233414505
1970-01-01 00:00:00.000000008,0.007163773477904432,-0.007232329593902957,-0.08720726054835998,0.0031503377533332023
1970-01-01 00:00:00.000000008,0.0065652066397602375,-0.0072546150663145865,-0.08655268176411873,0.0034605808353162628
1970-01-01 00:00:00.000000008,-0.002788384367381354,-0.02521217091933069,-0.08628504080558531,0.0037154510774659315
1970-01-01 00:00:00.000000008,0.016849647922104815,-0.01719449684834185,-0.08686391707941321,0.003136101163536727
1970-01-01 00:00:00.000000008,0.006551963882220471,-0.01655994494579215,-0.08656142129846439,0.0034385793781322557
1970-01-01 00:00:00.000000008,0.006852426888285186,-0.016202412783665035,-0.08657285407474422,0.0034271459504158054
1970-01-01 00:00:00.000000008,0.0074634179081998165,-0.005937476324673388,-0.085937914831138,0.004062085171585071
1970-01-01 00:00:00.000000008,-0.021203283517459683,0.004337380423996764,-0.0853040179594668,0.004695982088894602
1970-01-01 00:00:00.000000008,-0.02089080150598528,0.004682007302566065,-0.08563531054448598,0.004364690758548728
1970-01-01 00:00:00.000000008,-0.011885807890989628,0.012711594864941006,-0.0862145886220004,0.003785446511575096
1970-01-01 00:00:00.000000008,-0.011886225708436053,-0.004958526794069476,-0.08564816309443514,0.004352784209068955
1970-01-01 00:00:00.000000008,-0.011214645056317658,-0.0059465947490070946,-0.08564059137193776,0.004384950689096861
1970-01-01 00:00:00.000000008,-0.01186221665970382,-0.015878628576991766,-0.08692690109575367,0.0037617872486778977
1970-01-01 00:00:00.000000008,0.017740472724237066,-0.01594186318930541,-0.10455122457294543,0.004017818665672521
1970-01-01 00:00:00.000000008,-0.0016115353740495811,-0.014898009280645575,-0.08630249412016434,0.004372984978089676
1970-01-01 00:00:00.000000008,-0.010926230105599245,0.004330328709506145,-0.08498140057386065,0.004687491840379729
1970-01-01 00:00:00.000000008,-0.03058915332807718,0.01433792097966034,-0.07567428483172262,0.0047103312545126695
1970-01-01 00:00:00.000000008,-0.030577017414790554,0.0150013344009042,-0.07601649322306817,0.004699248691044486
1970-01-01 00:00:00.000000008,-0.030889433743905067,0.02291574655493829,-0.09455339348093247,0.0043870221138735815
1970-01-01 00:00:00.000000008,-0.011841736556530686,-0.0062579725301261345,-0.08690692587466585,0.0037685532709856497
1970-01-01 00:00:00.000000008,0.0072632907161603675,-0.035855795842521715,-0.09590839610922358,0.003389125228560929
1970-01-01 00:00:00.000000008,0.03350429907719328,-0.049455992147789306,-0.09022724600420091,0.00013035097032926076
