time,ax,ay,az,speed
1970-01-01 00:00:00.000000000,-0.3,0.16846750643381833,0.9381239614054547,0.6238322257995605
1970-01-01 00:00:00.000000020,-0.03846153846153846,0.09184282812473421,-0.15567796832180547,0.6238322257995605
1970-01-01 00:00:00.000000020,0.02884615384615384,0.06128885293400546,-0.6414291060942079,0.6238322257995605
1970-01-01 00:00:00.000000020,0.02884615384615384,0.0629562010934132,-0.6629078962218071,0.6238322257995605
1970-01-01 00:00:00.000000020,-0.18269230769230768,0.13852857658815093,-0.7570840918945848,0.6238322257995605
1970-01-01 00:00:00.000000020,-0.3365384615384615,0.1773153667866616,-0.5283625849319837,0.6238322257995605
1970-01-01 00:00:00.000000020,-0.4711538461538461,0.14898632665171296,-0.25870570126897324,0.6238322257995605
1970-01-01 00:00:00.000000020,-0.6153846153846153,0.09531545280958856,-0.2066913493302951,0.6238322257995605
1970-01-01 00:00:00.000000020,-0.7019230769230769,0.1745308992071782,-0.07196073064899448,0.6238322257995605
1970-01-01 00:00:00.000000020,-0.625,0.11701882578422265,0.2637516218074443,0.6238322257995605
1970-01-01 00:00:00.000000020,-0.5673076923076922,-0.01502260303316613,0.44325451944999067,0.6238322257995605
1970-01-01 00:00:00.000000020,-0.5673076923076922,-0.02262910767970832,0.4541204033423047,0.6238322257995605
1970-01-01 00:00:00.000000020,-0.5576923076923076,-0.09596330431895848,0.5679963707922349,0.6238322257995605
1970-01-01 00:00:00.000000020,-0.548076923076923,-0.06838010893217063,0.6317816080480362,0.6238322257995605
1970-01-01 00:00:00.000000020,-0.5384615384615384,-0.00029963684964822703,0.4901070465047405,0.6238322257995605
1970-01-01 00:00:00.000000020,-0.5317307692307692,0.06028991399166849,0.35110864757995824,0.6238322257995605
1970-01-01 00:00:00.000000020,-0.5288461538461539,0.12812731462469754,0.239826438154133,0.6238322257995605
1970-01-01 00:00:00.000000020,-0.5,0.14914758087516486,0.12420518258163273,0.6238322257995605
1970-01-01 00:00:00.000000020,-0.5,0.14885736900475352,0.11371349154995064,0.6238322257995605
1970-01-01 00:00:00.000000020,-0.41346153846153844,0.12000138225318005,-0.053940910732965475,0.6238322257995605
1970-01-01 00:00:00.000000020,-0.423076923076923,0.09117995183110794,-0.07011808134001828,0.6238322257995605
1970-01-01 00:00:00.000000020,-0.423076923076923,0.09185731718673454,-0.08924728544752761,0.6238322257995605
1970-01-01 00:00:00.000000020,-0.41346153846153844,0.1389676122107248,-0.08955862574322747,0.6238322257995605
1970-01-01 00:00:00.000000020,-0.41346153846153844,0.1602682125028343,-0.07883560961961397,0.6238322257995605
1970-01-01 00:00:00.000000020,-0.4192307692307692,0.18827412536580115,-0.03900283398634997,0.6238322257995605
1970-01-01 00:00:00.000000020,-0.4038461538461538,0.198133172373797,-0.049240908011835276,0.6238322257995605
1970-01-01 00:00:00.000000020,-0.3557692307692307,0.161321528726717,-0.0405016823332024,0.6238322257995605
1970-01-01 00:00:00.000000020,-0.3557692307692307,0.15754810324756255,-0.044304514984629395,0.6238322257995605
1970-01-01 00:00:00.000000020,-0.2788461538461538,0.09247725895747166,-0.15572022225179136,0.6238322257995605
1970-01-01 00:00:00.000000020,-0.2788461538461538,0.08933788860417233,-0.16014148581373724,0.6238322257995605
1970-01-01 00:00:00.000000020,-0.25961538461538464,0.06964573335518141,-0.16809989471911402,0.6238322257995605
1970-01-01 00:00:00.000000020,-0.2788461538461538,0.041096911985725584,-0.1285556716023405,0.6238322257995605
1970-01-01 00:00:00.000000020,-0.28846153846153844,0.03997089025940944,-0.05290323854407943,0.6238322257995605
1970-01-01 00:00:00.000000020,-0.28846153846153844,0.03811712501832916,-0.049831769087804324,0.6238322257995605
1970-01-01 00:00:00.000000020,-0.2692307692307692,-0.010808514764522225,-0.04255452682663723,0.6238322257995605
1970-01-01 00:00:00.000000020,-0.2115384615384615,-0.07994702366042912,-0.09914045523140093,0.6238322257995605
1970-01-01 00:00:00.000000020,-0.17307692307692304,-0.14776112406706407,-0.13423776442118734,0.6238322257995605
1970-01-01 00:00:00.000000020,-0.1346153846153846,-0.15960332615030098,-0.2752791841406574,0.6238322257995605
1970-01-01 00:00:00.000000021,-0.11538461538461536,-0.1615286819910622,-0.2983002073765621,0.6238322257995605
1970-01-01 00:00:00.000000021,-0.13557692307692304,-0.20167108760837876,-0.2788264150265201,0.6238322257995605
1970-01-01 00:00:00.000000021,-0.16346153846153846,-0.2585906834351638,-0.2300129983394801,0.6238322257995605
1970-01-01 00:00:00.000000021,-0.17307692307692304,-0.28027736514104323,-0.18152454013944266,0.6238322257995605
1970-01-01 00:00:00.000000021,-0.16346153846153846,-0.30889817537300285,-0.17114958542547234,0.6238322257995605
1970-01-01 00:00:00.000000021,-0.16346153846153846,-0.30997336993003405,-0.18951426634831,0.6238322257995605
1970-01-01 00:00:00.000000021,-0.16346153846153846,-0.31038281273791607,-0.1957356059788976,0.6238322257995605
1970-01-01 00:00:00.000000021,-0.2115384615384615,-0.3203625739937007,-0.3453470950819252,0.6238322257995605
1970-01-01 00:00:00.000000021,-0.2788461538461538,-0.33940668509200306,-0.37863596123308235,0.6238322257995605
1970-01-01 00:00:00.000000021,-0.2788461538461538,-0.3436179234903807,-0.3778238582112973,0.6238322257995605
1970-01-01 00:00:00.000000021,-0.41346153846153844,-0.4382772491482745,-0.32260821047194627,0.6238322257995605
1970-01-01 00:00:00.000000021,-0.39423076923076916,-0.48986780351303083,-0.3325978245312523,0.6238322257995605
1970-01-01 00:00:00.000000021,-0.3461538461538461,-0.5381534457035583,-0.40753305187186484,0.6238322257995605
1970-01-01 00:00:00.000000021,-0.3461538461538461,-0.5402752304830424,-0.42079457600909775,0.6238322257995605
1970-01-01 00:00:00.000000021,-0.25961538461538464,-0.5492777773385847,-0.7039205003737753,0.6238322257995605
1970-01-01 00:00:00.000000021,-0.22115384615384615,-0.5402247576587442,-0.8350589340828338,0.6238322257995605
1970-01-01 00:00:00.000000021,-0.22115384615384615,-0.5367906794475082,-0.8426707198627381,0.6238322257995605
1970-01-01 00:00:00.000000021,-0.16346153846153846,-0.45312358742397846,-0.9170505022110977,0.6238322257995605
1970-01-01 00:00:00.000000021,-0.16346153846153846,-0.4475461809999092,-0.9176928398369003,0.6238322257995605
1970-01-01 00:00:00.000000021,-0.16346153846153846,-0.38062329957357155,-0.8606561733852106,0.6238322257995605
1970-01-01 00:00:00.000000021,-0.17307692307692304,-0.329282907486522,-0.8200238415637865,0.6238322257995605
1970-01-01 00:00:00.000000021,-0.18269230769230768,-0.26001520256252264,-0.7799875488370257,0.6238322257995605
1970-01-01 00:00:00.000000021,-0.16346153846153846,-0.19112756170158818,-0.7396399770359083,0.6238322257995605
1970-01-01 00:00:00.000000021,-0.14423076923076922,-0.15042896338035786,-0.6902918311324978,0.6238322257995605
1970-01-01 00:00:00.000000021,-0.10576923076923075,-0.12045444956807415,-0.6482394635415318,0.6238322257995605
1970-01-01 00:00:00.000000021,-0.009615384615384614,-0.10184117495764412,-0.56217368448886,0.6238322257995605
1970-01-01 00:00:00.000000021,0.07692307692307691,-0.12925727428831701,-0.5304500176576877,0.6238322257995605
1970-01-01 00:00:00.000000021,0.15384615384615383,-0.1381052308269155,-0.5099767922687074,0.6238322257995605
1970-01-01 00:00:00.000000021,0.23076923076923073,-0.09958395803840088,-0.4889233735974117,0.6238322257995605
1970-01-01 00:00:00.000000021,0.2788461538461538,-0.05066163620990819,-0.4409542948614091,0.6238322257995605
1970-01-01 00:00:00.000000021,0.3173076923076923,-0.018280219629120246,-0.41684258766063254,0.6238322257995605
1970-01-01 00:00:00.000000021,0.41346153846153844,0.057095706223661495,-0.3137955719756694,0.6238322257995605
1970-01-01 00:00:00.000000021,0.41346153846153844,0.05986428766798063,-0.305637855682441,0.6238322257995605
1970-01-01 00:00:00.000000021,0.4423076923076923,0.05924006081181564,-0.18842653145023744,0.6238322257995605
1970-01-01 00:00:00.000000021,0.46153846153846145,0.03961735425104172,-0.03187849347397034,0.6238322257995605
1970-01-01 00:00:00.000000021,0.46153846153846145,0.010428503966310752,0.07770720765303762,0.6238322257995605
1970-01-01 00:00:00.000000021,0.4711538461538461,-0.008047747160651448,0.12997310010598576,0.6238322257995605
1970-01-01 00:00:00.000000021,0.41346153846153844,0.022282322696100174,0.1815664952085778,0.6238322257995605
1970-01-01 00:00:00.000000021,0.3173076923076923,0.10967045995535621,0.2723222705256151,0.6238322257995605
1970-01-01 00:00:00.000000021,0.25961538461538464,0.18882009609851735,0.4211348089830284,0.6238322257995605
1970-01-01 00:00:00.000000021,0.22115384615384615,0.23847213470461234,0.5983175720161513,0.6238322257995605
1970-01-01 00:00:00.000000021,0.22115384615384615,0.24992754092601557,0.7334396354530581,0.6238322257995605
1970-01-01 00:00:00.000000021,0.22115384615384615,0.25957147029780775,0.9545525852164191,0.6238322257995605
1970-01-01 00:00:00.000000021,0.22115384615384615,0.25850215711479296,0.9644801653902562,0.6238322257995605
1970-01-01 00:00:00.000000021,0.2115384615384615,0.2199867718016023,1.0864118803204992,0.6238322257995605
1970-01-01 00:00:00.000000021,0.2019230769230769,0.18114068152846977,1.1186406032632175,0.6238322257995605
1970-01-01 00:00:00.000000021,0.24038461538461536,0.17081162946708142,1.116884407786374,0.6238322257995605
1970-01-01 00:00:00.000000021,0.28846153846153844,0.18077331408272843,1.0372384069688771,0.6238322257995605
1970-01-01 00:00:00.000000021,0.3365384615384615,0.2100678507665861,0.8885525803733101,0.6238322257995605
1970-01-01 00:00:00.000000021,0.39423076923076916,0.24105865661509662,0.7036812631104948,0.6238322257995605
1970-01-01 00:00:00.000000021,0.46153846153846145,0.2985158778410229,0.6108415236100503,0.6238322257995605
1970-01-01 00:00:00.000000021,0.5,0.31887004509252126,0.5390398743608609,0.6238322257995605
1970-01-01 00:00:00.000000021,0.5384615384615384,0.31097533965705076,0.44323508413319174,0.6238322257995605
1970-01-01 00:00:00.000000021,0.5865384615384615,0.32746412564784994,0.42830739723531575,0.6238322257995605
1970-01-01 00:00:00.000000021,0.6153846153846153,0.28055605283489654,0.3710646412203326,0.6238322257995605
1970-01-01 00:00:00.000000021,0.6634615384615383,0.2475493008943558,0.340437915713666,0.6238322257995605
1970-01-01 00:00:00.000000021,0.673076923076923,0.15327507131271054,0.3207590830486482,0.6238322257995605
1970-01-01 00:00:00.000000021,0.6442307692307692,0.14087762454882866,0.3200573265998345,0.6238322257995605
1970-01-01 00:00:00.000000021,0.6153846153846153,0.15042079150566262,0.32078873514688294,0.6238322257995605
1970-01-01 00:00:00.000000021,0.485576923076923,0.17048374610406195,0.34123852236600605,0.6238322257995605
1970-01-01 00:00:00.000000021,0.45192307692307687,0.07764035330400947,0.2676513687352807,0.6238322257995605
1970-01-01 00:00:00.000000021,0.3461538461538461,-0.07419420689580625,0.2603484334865722,0.6238322257995605
1970-01-01 00:00:00.000000021,0.3461538461538461,-0.08088393949077828,0.26175633540216875,0.6238322257995605
1970-01-01 00:00:00.000000021,0.25961538461538464,-0.10967215935520704,0.30707262237198385,0.6238322257995605
1970-01-01 00:00:00.000000021,0.18269230769230768,-0.13026436309981157,0.2792044686413948,0.6238322257995605
1970-01-01 00:00:00.000000021,0.14423076923076922,-0.15746564433970484,0.2314480309456759,0.6238322257995605
1970-01-01 00:00:00.000000021,0.09615384615384615,-0.12130803407221888,-0.030107633108145158,0.6238322257995605
1970-01-01 00:00:00.000000021,0.09615384615384615,-0.11785127561020528,-0.044354124865594806,0.6238322257995605
1970-01-01 00:00:00.000000021,0.07692307692307691,-0.060676407403323744,-0.1674537382629146,0.6238322257995605
1970-01-01 00:00:00.000000021,0.04807692307692307,-0.020411724279535807,-0.22689680823309916,0.6238322257995605
1970-01-01 00:00:00.000000021,0.0,0.009559851855856826,-0.2087600840307621,0.6238322257995605
1970-01-01 00:00:00.000000021,-0.05769230769230768,0.02852772438767002,-0.1596254605974774,0.6238322257995605
1970-01-01 00:00:00.000000021,-0.08653846153846152,0.010688706611233686,-0.10112735210112757,0.6238322257995605
1970-01-01 00:00:00.000000021,-0.125,0.010067354115639577,-0.07081304613296685,0.6238322257995605
1970-01-01 00:00:00.000000021,-0.15384615384615383,0.011129854511034876,-0.06082489348897709,0.6238322257995605
1970-01-01 00:00:00.000000021,-0.2115384615384615,0.040438717682302075,-0.0714590780694148,0.6238322257995605
1970-01-01 00:00:00.000000021,-0.25,0.08071552291112125,-0.11857021438522249,0.6238322257995605
1970-01-01 00:00:00.000000021,-0.28846153846153844,0.1388804009179715,-0.12993671033159232,0.6238322257995605
1970-01-01 00:00:00.000000021,-0.30769230769230765,0.16905530187410878,-0.13972096456776997,0.6238322257995605
1970-01-01 00:00:00.000000021,-0.2980769230769231,0.17561274968296453,-0.14252933299819706,0.6238322257995605
1970-01-01 00:00:00.000000021,-0.25,0.07248893956593372,-0.20857102638355024,0.6238322257995605
1970-01-01 00:00:00.000000021,-0.24038461538461536,0.031588618597245856,-0.238888379357659,0.6238322257995605
1970-01-01 00:00:00.000000021,-0.24038461538461536,0.030403762559704423,-0.24141521627324317,0.6238322257995605
1970-01-01 00:00:00.000000021,-0.23076923076923073,0.03931297051477356,-0.27932246001990707,0.6238322257995605
1970-01-01 00:00:00.000000021,-0.22115384615384615,0.03104644133918172,-0.3002912042642472,0.6238322257995605
1970-01-01 00:00:00.000000021,-0.2115384615384615,0.0489409456431329,-0.32854005511476797,0.6238322257995605
1970-01-01 00:00:00.000000021,-0.24038461538461536,0.04035909102540638,-0.3202902838344881,0.6238322257995605
1970-01-01 00:00:00.000000021,-0.24038461538461536,0.04075451204283932,-0.31929760841640936,0.6238322257995605
1970-01-01 00:00:00.000000021,-0.2692307692307692,0.06001273413125528,-0.3007451434085639,0.6238322257995605
1970-01-01 00:00:00.000000021,-0.28846153846153844,0.07958930950105328,-0.30082126361481587,0.6238322257995605
1970-01-01 00:00:00.000000021,-0.2980769230769231,0.08889862239718298,-0.3214289741914656,0.6238322257995605
1970-01-01 00:00:00.000000021,-0.25961538461538464,0.07067349522288723,-0.3777610395547557,0.6238322257995605
1970-01-01 00:00:00.000000021,-0.25961538461538464,0.06928574862077196,-0.37811909378693864,0.6238322257995605
1970-01-01 00:00:00.000000021,-0.17307692307692304,0.05004171753795538,-0.33145449269258664,0.6238322257995605
1970-01-01 00:00:00.000000021,-0.15384615384615383,0.03184062490402332,-0.3211522089128998,0.6238322257995605
1970-01-01 00:00:00.000000022,-0.125,0.05965515487067435,-0.3396551479557079,0.6238322257995605
1970-01-01 00:00:00.000000022,-0.09615384615384615,0.0788485566041841,-0.34953678589121273,0.6238322257995605
1970-01-01 00:00:00.000000022,-0.08653846153846152,0.06925587344229614,-0.3478380711070365,0.6238322257995609
1970-01-01 00:00:00.000000022,-0.0673076923076923,0.041060026337811445,-0.2920911339987739,0.6238322257995693
1970-01-01 00:00:00.000000022,-0.0673076923076923,0.039364837678612874,-0.2886225468598608,0.6238322257997979
1970-01-01 00:00:00.000000022,-0.05769230769230768,0.02179059098473607,-0.2507176312174672,0.6238322258059604
1970-01-01 00:00:00.000000022,-0.009615384615384614,0.048981118909261025,-0.23075349601175446,0.6238322259721205
1970-01-01 00:00:00.000000022,-0.009615384615384614,0.05069961956531138,-0.2296267610999035,0.6238322304522799
1970-01-01 00:00:00.000000022,0.009615384615384614,0.0699086093541463,-0.21916905368563944,0.6238323512504236
1970-01-01 00:00:00.000000022,0.009615384615384614,0.08683283299663883,-0.18793768841236083,0.6238356083201418
1970-01-01 00:00:00.000000022,0.0,0.09957788155510218,-0.1801485334481028,0.623923428404394
1970-01-01 00:00:00.000000022,0.0,0.10176996899111967,-0.1760727146864151,0.626291313609483
1970-01-01 00:00:00.000000022,-0.05769230769230768,0.14821128120512886,-0.07381476308510491,0.690136394062632
1970-01-01 00:00:00.000000022,-0.05769230769230768,0.1499346235473595,-0.06692588861141766,0.6925042792677211
1970-01-01 00:00:00.000000022,-0.14423076923076922,0.15002355457357844,0.01681577057682842,0.6925920993519732
1970-01-01 00:00:00.000000022,-0.14423076923076922,0.15070134993925863,0.02095169418578484,0.6925953564216915
1970-01-01 00:00:00.000000022,-0.1923076923076923,0.16891289378640462,0.048879972439362256,0.6925954772198352
1970-01-01 00:00:00.000000022,-0.2115384615384615,0.15994678229366546,0.04880756167699593,0.6925954816999945
1970-01-01 00:00:00.000000022,-0.22115384615384615,0.14965022814256249,0.01892419283952787,0.6925954818661546
1970-01-01 00:00:00.000000022,-0.23076923076923073,0.13060937755552202,-0.03785435500974347,0.6925954818723171
1970-01-01 00:00:00.000000022,-0.23076923076923073,0.1268029658565318,-0.04099177810260138,0.6925954818725457
1970-01-01 00:00:00.000000022,-0.25,0.043070700570836444,-0.06892365376049366,0.6925954818725542
1970-01-01 00:00:00.000000022,-0.25,0.03610594955605202,-0.06994687343072693,0.6925954818725545
1970-01-01 00:00:00.000000022,-0.24038461538461536,-0.06821006255743199,-0.06964192886913359,0.6925954818725545
1970-01-01 00:00:00.000000022,-0.22788461538461535,-0.1277776386067157,-0.06038520603587984,0.6925954818725545
1970-01-01 00:00:00.000000022,-0.23076923076923073,-0.13178617982389204,-0.06075863409962215,0.6925954818725545
1970-01-01 00:00:00.000000022,-0.22115384615384615,-0.18044921663836955,-0.08009791465391843,0.6925954818725545
1970-01-01 00:00:00.000000022,-0.2115384615384615,-0.24034266941208646,-0.1018850615561754,0.6925954818725545
1970-01-01 00:00:00.000000022,-0.1923076923076923,-0.3088028574879649,-0.1707987473628169,0.6925954818725545
1970-01-01 00:00:00.000000022,-0.1923076923076923,-0.3473344827629651,-0.2596811172398805,0.6925954818725545
1970-01-01 00:00:00.000000022,-0.18269230769230768,-0.3192281771120927,-0.34059141811395754,0.6925954818725545
1970-01-01 00:00:00.000000022,-0.18269230769230768,-0.27182629926353874,-0.4362871718369715,0.6925954818725545
1970-01-01 00:00:00.000000022,-0.18269230769230768,-0.27008190300345236,-0.4391622214842739,0.6925954818725545
1970-01-01 00:00:00.000000022,-0.15384615384615383,-0.27038508182967375,-0.4210928082384237,0.6925954818725545
1970-01-01 00:00:00.000000022,-0.14423076923076922,-0.2803153063977378,-0.43034360095316676,0.6925954818725545
1970-01-01 00:00:00.000000022,-0.11538461538461536,-0.2981281909092464,-0.44818441749707943,0.6925954818725545
1970-01-01 00:00:00.000000022,-0.11538461538461536,-0.26914584815191656,-0.4206356714679777,0.6925954818725545
1970-01-01 00:00:00.000000022,-0.1346153846153846,-0.21880970919249967,-0.4089787121383199,0.6925954818725545
1970-01-01 00:00:00.000000022,-0.17307692307692304,-0.13871630004557411,-0.3717895562666593,0.6925954818725545
1970-01-01 00:00:00.000000022,-0.1923076923076923,-0.026530392038001258,-0.37933930706148233,0.6925954818725545
1970-01-01 00:00:00.000000022,-0.2692307692307692,0.1723957150195401,-0.3703717343933642,0.6925954818725545
1970-01-01 00:00:00.000000022,-0.2692307692307692,0.18121469756558337,-0.37069752155935015,0.6925954818725545
1970-01-01 00:00:00.000000022,-0.2692307692307692,0.2204011192512107,-0.3884613477090894,0.6925954818725545
1970-01-01 00:00:00.000000022,-0.2788461538461538,0.269615522217105,-0.36775886658606366,0.6925954818725545
1970-01-01 00:00:00.000000022,-0.2788461538461538,0.30921798061062516,-0.29102805011462946,0.6925954818725545
1970-01-01 00:00:00.000000022,-0.2788461538461538,0.32926995426977407,-0.23999848650893252,0.6925954818725545
1970-01-01 00:00:00.000000022,-0.2692307692307692,0.3310707846732738,-0.1889310856265488,0.6925954818725545
1970-01-01 00:00:00.000000022,-0.2788461538461538,0.35964123190861674,-0.11114082540788499,0.6925954818725545
1970-01-01 00:00:00.000000022,-0.2692307692307692,0.37924247685937745,-0.06187120038634564,0.6925954818725545
1970-01-01 00:00:00.000000022,-0.2692307692307692,0.3799056432945747,-0.05938158502344721,0.6925954818725545
1970-01-01 00:00:00.000000022,-0.23076923076923073,0.3782098920941409,-0.041431595246729014,0.6925954818725545
1970-01-01 00:00:00.000000022,-0.14423076923076922,0.33176144324722956,-0.0592714866382362,0.6925954818725545
1970-01-01 00:00:00.000000022,-0.14423076923076922,0.32934907558105736,-0.058898543985648255,0.6925954818725545
1970-01-01 00:00:00.000000022,-0.04807692307692307,0.3106635974413192,-0.030989200974266832,0.6925954818725545
1970-01-01 00:00:00.000000022,-0.04807692307692307,0.30856805533456033,-0.027809882319556226,0.6925954818725545
1970-01-01 00:00:00.000000022,-0.02884615384615384,0.2706738965918095,0.03012237834624878,0.6925954818725545
1970-01-01 00:00:00.000000022,-0.01923076923076923,0.24962715264429725,0.0911140976682733,0.6925954818725545
1970-01-01 00:00:00.000000022,-0.009615384615384614,0.2192592248042162,0.17995825869713036,0.6925954818725545
1970-01-01 00:00:00.000000022,-0.01923076923076923,0.17037191706953966,0.26775888715424634,0.6925954818725545
1970-01-01 00:00:00.000000022,-0.01923076923076923,0.13078253607335422,0.29953169446752037,0.6925954818725545
1970-01-01 00:00:00.000000022,-0.01923076923076923,0.11075655691102435,0.3195968634688039,0.6925954818725545
1970-01-01 00:00:00.000000022,-0.01923076923076923,0.10964450052430316,0.3295836191901854,0.6925954818725545
1970-01-01 00:00:00.000000022,-0.009615384615384614,0.09964495724516095,0.3291608546662017,0.6925954818725545
1970-01-01 00:00:00.000000022,0.0,0.08076934509504242,0.30775945679726097,0.6925954818725545
1970-01-01 00:00:00.000000022,0.0,0.08112736032098476,0.23034447885984347,0.6925954818725545
1970-01-01 00:00:00.000000022,0.01923076923076923,0.10966938357154606,0.16154147241851252,0.6925954818725545
1970-01-01 00:00:00.000000022,0.02884615384615384,0.12994599611075894,0.13127527643999523,0.6925954818725545
1970-01-01 00:00:00.000000022,0.0,0.14887251141894553,0.13289099146135866,0.6925954818725545
1970-01-01 00:00:00.000000022,0.0,0.1396118122007701,0.20678149301668863,0.6925954818725545
1970-01-01 00:00:00.000000022,-0.01923076923076923,0.12064641800184693,0.2002093199892347,0.6925954818725545
1970-01-01 00:00:00.000000022,-0.01923076923076923,0.117841473849097,0.19887014669264844,0.6925954818725545
1970-01-01 00:00:00.000000022,0.0,0.06107337592377222,0.16928464071227267,0.6925954818725545
1970-01-01 00:00:00.000000022,0.009615384615384614,0.031139676092753022,0.12181515253871342,0.6925954818725545
1970-01-01 00:00:00.000000022,0.009615384615384614,0.029697878580559427,0.11972447783298996,0.6925954818725545
1970-01-01 00:00:00.000000022,0.009615384615384614,0.02070304558235149,0.11074574895201575,0.6925954818725545
1970-01-01 00:00:00.000000022,-0.009615384615384614,0.02928435214293078,0.12041074387143536,0.6925954818725545
1970-01-01 00:00:00.000000022,-0.03846153846153846,0.01997446227677964,0.14034433557673898,0.6925954818725545
1970-01-01 00:00:00.000000022,-0.05769230769230768,0.010026129330119506,0.16888631670051651,0.6925954818725545
1970-01-01 00:00:00.000000022,-0.07692307692307691,0.0007310296364470223,0.1695862153372067,0.6925954818725545
1970-01-01 00:00:00.000000022,-0.10576923076923075,0.009711670853950121,0.15994149740406385,0.6925954818725545
1970-01-01 00:00:00.000000022,-0.1346153846153846,0.011484083420206221,0.1488342145725177,0.6925954818725545
1970-01-01 00:00:00.000000022,-0.17307692307692304,0.050358581491617864,0.10858229605391342,0.6925954818725545
1970-01-01 00:00:00.000000022,-0.2115384615384615,0.09819761685347614,0.03288777888314487,0.6925954818725545
1970-01-01 00:00:00.000000022,-0.2115384615384615,0.10097707355223784,0.029387733790998353,0.6925954818725545
1970-01-01 00:00:00.000000022,-0.22115384615384615,0.12818336905694552,0.010581033473810628,0.6925954818725545
1970-01-01 00:00:00.000000022,-0.2115384615384615,0.10997389098529146,0.006300170001888686,0.6925954818725545
1970-01-01 00:00:00.000000022,-0.16346153846153846,0.09111168754592416,-0.09047644342281616,0.6925954818725545
1970-01-01 00:00:00.000000022,-0.09615384615384615,0.10004167275466136,-0.19916414241792513,0.6925954818725545
1970-01-01 00:00:00.000000022,-0.03846153846153846,0.11001347682993261,-0.2869554018611626,0.6925954818725545
1970-01-01 00:00:00.000000022,-0.01923076923076923,0.12032220165351909,-0.2986317078334646,0.6925954818725545
1970-01-01 00:00:00.000000022,0.009615384615384614,0.13868596781508283,-0.2761007096423817,0.6925954818725545
1970-01-01 00:00:00.000000022,0.03846153846153846,0.1241989293537171,-0.15608745251084075,0.6925954818725545
1970-01-01 00:00:00.000000022,0.0625,0.08968512473527918,-0.06326050815031833,0.6925954818725545
1970-01-01 00:00:00.000000022,0.1394230769230769,0.04729943849882056,-0.05194626754775447,0.6925954818725545
1970-01-01 00:00:00.000000022,0.1923076923076923,0.062399714732876095,-0.08928871563905241,0.6925954818725545
1970-01-01 00:00:00.000000022,0.22115384615384615,0.137492859288834,-0.10884905470666079,0.6925954818725545
1970-01-01 00:00:00.000000022,0.2115384615384615,0.14990748606564233,-0.09963576144078876,0.6925954818725544
1970-01-01 00:00:00.000000023,0.20673076923076922,0.16000926448350944,-0.08131650419463543,0.6925954818725512
1970-01-01 00:00:00.000000023,0.15384615384615383,0.17034265498911255,0.029090148185632277,0.6925954818724658
1970-01-01 00:00:00.000000023,0.15384615384615383,0.18924242022252963,0.11675050520670698,0.6925954818701637
1970-01-01 00:00:00.000000023,0.15384615384615383,0.18920269101918685,0.12317349239545591,0.6925954818080936
1970-01-01 00:00:00.000000023,0.125,0.16923023729551565,0.20893378947060298,0.6925954801345005
1970-01-01 00:00:00.000000023,0.11538461538461536,0.13001371595973493,0.26803882331082446,0.6925954350095553
1970-01-01 00:00:00.000000023,0.1346153846153846,0.09114009361732674,0.2781144399216562,0.6925942183096305
1970-01-01 00:00:00.000000023,0.16346153846153846,0.08076881170808714,0.2410510545738924,0.6925614125366072
1970-01-01 00:00:00.000000023,0.15384615384615383,0.08961782250102593,0.23026403357343836,0.6916768733649
1970-01-01 00:00:00.000000023,0.15384615384615383,0.08891239581961317,0.22607785190894306,0.6678271215018328
1970-01-01 00:00:00.000000023,0.17307692307692304,0.06101686462852971,0.12383796796802327,0.024768360370721665
1970-01-01 00:00:00.000000023,0.17307692307692304,0.058542949150689055,0.11754728322768516,0.000918608507654407
1970-01-01 00:00:00.000000023,0.1923076923076923,0.019642762440074735,0.04993867917947639,3.4069335947346326e-05
1970-01-01 00:00:00.000000023,0.23076923076923073,-0.02818836326867119,-0.0192029453818225,1.2635629239456447e-06
1970-01-01 00:00:00.000000023,0.25,-0.0307285706941968,-0.06841820448868383,4.68629991860591e-08
1970-01-01 00:00:00.000000023,0.25,-0.05148304547464247,-0.07808857581264053,1.7380540779519144e-09
1970-01-01 00:00:00.000000023,0.23076923076923073,-0.10931365712114986,-0.03997334245261062,6.44609186426959e-11
1970-01-01 00:00:00.000000023,0.2115384615384615,-0.14998569679640372,-0.0011916704078460904,2.390725400878598e-12
1970-01-01 00:00:00.000000023,0.2019230769230769,-0.1903001563817504,0.0077982414407661415,8.866718102618536e-14
1970-01-01 00:00:00.000000023,0.18269230769230768,-0.23811852551085674,-0.03825581069146815,3.288486828408258e-15
1970-01-01 00:00:00.000000023,0.18269230769230768,-0.23890003241138116,-0.04070513011040611,1.2196334083769914e-16
1970-01-01 00:00:00.000000023,0.1923076923076923,-0.21218234959643495,-0.06078270228949683,4.52337420961872e-18
1970-01-01 00:00:00.000000023,0.1923076923076923,-0.240023406692362,-0.10042783170600844,1.6776282200626005e-19
1970-01-01 00:00:00.000000023,0.1923076923076923,-0.26844963109733905,-0.15076875377273105,6.221984550306842e-21
1970-01-01 00:00:00.000000023,0.18269230769230768,-0.25811663293579185,-0.22032852015772997,2.307608520248456e-22
1970-01-01 00:00:00.000000023,0.18269230769230768,-0.20069945816904028,-0.29810129048597783,8.558454363986903e-24
1970-01-01 00:00:00.000000023,0.17307692307692304,-0.1607687376282959,-0.32840632296367117,3.1741580280072825e-25
1970-01-01 00:00:00.000000023,0.15384615384615383,-0.14005645779494935,-0.3188694295331424,1.1772311632762594e-26
1970-01-01 00:00:00.000000023,0.125,-0.12075562283533606,-0.28106827443117327,4.366112838618867e-28
1970-01-01 00:00:00.000000023,0.125,-0.12034535875912426,-0.26997398010853524,1.619303150835719e-29
1970-01-01 00:00:00.000000023,0.10576923076923075,-0.12856906366101925,-0.25822918849927845,6.005668637588279e-31
1970-01-01 00:00:00.000000023,0.05769230769230768,-0.10101936008839503,-0.20221410937198236,2.2273813131220616e-32
1970-01-01 00:00:00.000000023,0.05769230769230768,-0.09895365872564647,-0.2015517645442459,8.260907841291851e-34
1970-01-01 00:00:00.000000023,0.04807692307692307,-0.07072942550405972,-0.23968353332265652,3.063804026741303e-35
1970-01-01 00:00:00.000000023,0.05769230769230768,-0.06074082988396585,-0.26990363516748095,1.1363030909697585e-36
1970-01-01 00:00:00.000000023,0.05769230769230768,-0.06927298136301836,-0.29771461619932893,4.2143188770488957e-38
1970-01-01 00:00:00.000000023,0.03846153846153846,-0.05962966691752975,-0.2683910022144,1.563005833443015e-39
1970-01-01 00:00:00.000000023,0.02884615384615384,-0.040728025410284995,-0.1988424435894705,5.796873247255588e-41
1970-01-01 00:00:00.000000023,-0.009615384615384614,-0.040027019160164955,-0.10035497470130351,2.1499433159967614e-42
1970-01-01 00:00:00.000000023,-0.0673076923076923,-0.04000149191416882,-0.010741873345724339,7.973705935673976e-44
1970-01-01 00:00:00.000000023,-0.11538461538461536,-0.04001326252239301,0.06032439436674623,2.957286635211832e-45
1970-01-01 00:00:00.000000023,-0.16346153846153846,-0.04035659619044244,0.1395005212478725,1.0967979397980285e-46
1970-01-01 00:00:00.000000023,-0.2019230769230769,-0.04961483461955277,0.2061896793258109,4.067802242845592e-48
1970-01-01 00:00:00.000000023,-0.18269230769230768,-0.049243938537482275,0.17762082054902184,1.5086657702827834e-49
1970-01-01 00:00:00.000000023,-0.16346153846153846,-0.029971505892468567,0.08957247549777907,5.595336917929276e-51
1970-01-01 00:00:00.000000023,-0.14423076923076922,-0.00998672055916901,-0.009163982108986847,2.0751975581227637e-52
1970-01-01 00:00:00.000000023,-0.14423076923076922,0.010330050794905267,-0.08699999244042414,7.696489002189366e-54
1970-01-01 00:00:00.000000023,-0.18269230769230768,0.03889809202161113,-0.08983581378246486,2.854472468366191e-55
1970-01-01 00:00:00.000000023,-0.18269230769230768,0.03991843378859504,-0.08856697968612678,1.0586662399365194e-56
1970-01-01 00:00:00.000000023,-0.22115384615384615,0.038899620270454946,-0.05147263774295834,3.926379462411928e-58
1970-01-01 00:00:00.000000023,-0.25,0.010371313513688318,-0.05119423937374839,1.4562149147000843e-59
1970-01-01 00:00:00.000000023,-0.25,-0.008874155400870396,-0.08077182534824807,5.400807278296869e-61
1970-01-01 00:00:00.000000023,-0.23076923076923073,2.649066281104807e-05,-0.12964504502894986,2.0030504400727108e-62
1970-01-01 00:00:00.000000023,-0.23076923076923073,0.009589403296768703,-0.16964439043339782,7.428909899448798e-64
1970-01-01 00:00:00.000000023,-0.25,0.008887398349943895,-0.20075349667279105,2.7552327784678706e-65
1970-01-01 00:00:00.000000023,-0.25961538461538464,-0.019629647848283617,-0.2507000197319599,1.021860241447678e-66
1970-01-01 00:00:00.000000023,-0.25,-0.038887890253601586,-0.31814703609012557,3.789873440864639e-68
1970-01-01 00:00:00.000000023,-0.25961538461538464,-0.030343388998959227,-0.33926995470143084,1.4055875857761936e-69
1970-01-01 00:00:00.000000023,-0.25961538461538464,-0.030383612718297575,-0.34214174084850624,5.213040731084175e-71
1970-01-01 00:00:00.000000023,-0.2788461538461538,-0.040014154395075385,-0.3985570482082364,1.9334116165329941e-72
1970-01-01 00:00:00.000000023,-0.24038461538461536,-0.04999855594873772,-0.4188985607738768,7.170633554914317e-74
1970-01-01 00:00:00.000000023,-0.25961538461538464,-0.05994685622084296,-0.41170409268643826,2.65944329387377e-75
1970-01-01 00:00:00.000000023,-0.2980769230769231,-0.06856656201402223,-0.44711194175995683,9.86333854486682e-77
1970-01-01 00:00:00.000000023,-0.2980769230769231,-0.04135031815775675,-0.4103183348323958,3.6581132402694884e-78
1970-01-01 00:00:00.000000023,-0.30769230769230765,-0.04789202824541016,-0.3814830987147325,1.3567203860805553e-79
1970-01-01 00:00:00.000000023,-0.3269230769230769,-0.0017344444683174646,-0.389725330465383,5.031802148013791e-81
1970-01-01 00:00:00.000000023,-0.3269230769230769,0.0010620276008385492,-0.3911008238506079,1.8661938831700376e-82
1970-01-01 00:00:00.000000023,-0.3269230769230769,0.030409189690958315,-0.4199969135010301,6.92133654530909e-84
1970-01-01 00:00:00.000000023,-0.3365384615384615,0.06998609405503592,-0.4488158406772059,2.566984063416646e-85
1970-01-01 00:00:00.000000023,-0.3461538461538461,0.10921534979501127,-0.4480307847835296,9.520425915860108e-87
1970-01-01 00:00:00.000000023,-0.3173076923076923,0.12882835041026813,-0.39801534847809245,3.5309338655862587e-88
1970-01-01 00:00:00.000000023,-0.2692307692307692,0.11915011128222805,-0.298383624124965,1.3095521222820803e-89
1970-01-01 00:00:00.000000023,-0.22115384615384615,0.08822465420988955,-0.158342502895962,4.8568645753685426e-91
1970-01-01 00:00:00.000000023,-0.11538461538461536,0.012915552384789532,0.0231360459339908,1.8013130674296872e-92
1970-01-01 00:00:00.000000023,-0.11538461538461536,0.010495260179428183,0.0330157431137137,6.680706691614376e-94
1970-01-01 00:00:00.000000023,-0.09615384615384615,0.02045647245977143,0.1182890181362791,2.4777393061977127e-95
1970-01-01 00:00:00.000000023,-0.125,0.041829496234400416,0.41078774656582157,9.189435119465804e-97
1970-01-01 00:00:00.000000023,-0.18269230769230768,0.10893992586903987,0.42298013914090304,3.408176058055926e-98
1970-01-01 00:00:00.000000023,-0.24038461538461536,0.149548502229676,0.5096760102385619,1.2640237285206346e-99
1970-01-01 00:00:00.000000023,-0.28846153846153844,0.1788696343322129,0.5882721373002676,4.688008949791732e-101
1970-01-01 00:00:00.000000023,-0.3269230769230769,0.17993162474007193,0.623671696868666,1.738687923133286e-102
1970-01-01 00:00:00.000000023,-0.3461538461538461,0.17928423364972934,0.5008636781537138,6.448442668147727e-104
1970-01-01 00:00:00.000000023,-0.3269230769230769,0.16074268380261997,0.3996476132816071,2.3915972666016246e-105
1970-01-01 00:00:00.000000023,-0.3365384615384615,0.16076822902101012,0.2896218804496763,8.869951676657012e-107
1970-01-01 00:00:00.000000023,-0.3557692307692307,0.17999949976465301,0.17014315885965287,3.2896860957708957e-108
1970-01-01 00:00:00.000000023,-0.3846153846153846,0.19921826462462147,0.054243408760951045,1.2200781924425394e-109
1970-01-01 00:00:00.000000023,-0.3846153846153846,0.19889364510012644,0.04442887768602535,4.5250238239676905e-111
1970-01-01 00:00:00.000000023,-0.375,0.17091015307879184,-0.10466371123826668,1.678240028738116e-112
1970-01-01 00:00:00.000000023,-0.375,0.16568048802725258,-0.1203490811192256,6.224253625231357e-114
1970-01-01 00:00:00.000000023,-0.2980769230769231,0.052463023657027555,-0.39476147898082464,2.3084500743517377e-115
1970-01-01 00:00:00.000000023,-0.24038461538461536,0.0008211507124916556,-0.538210851363039,8.561575518344116e-117
1970-01-01 00:00:00.000000023,-0.1923076923076923,-0.0302919544197528,-0.6369315078212268,3.1753156011785806e-118
1970-01-01 00:00:00.000000023,-0.17307692307692304,-0.06870392004581731,-0.6589398598100841,1.1776604838075631e-119
1970-01-01 00:00:00.000000023,-0.17307692307692304,-0.07471388681731424,-0.6544447070510429,4.367705101839614e-121
1970-01-01 00:00:00.000000023,-0.1923076923076923,-0.1985710240216669,-0.5110672305680715,1.6198936891350345e-122
1970-01-01 00:00:00.000000023,-0.22115384615384615,-0.28670376176769186,-0.3943705182868872,6.007858824979483e-124
1970-01-01 00:00:00.000000023,-0.22115384615384615,-0.29243054370601396,-0.3869367631778827,2.228193609431061e-125
1970-01-01 00:00:00.000000023,-0.2692307692307692,-0.3589209182946852,-0.30292208751594524,8.26392048439383e-127
1970-01-01 00:00:00.000000024,-0.3173076923076923,-0.39843425025048673,-0.2919595997526393,3.0649213552776334e-128
1970-01-01 00:00:00.000000024,-0.3461538461538461,-0.39880383846845724,-0.3299871058053158,1.1367174855780218e-129
1970-01-01 00:00:00.000000024,-0.3846153846153846,-0.3692693883978583,-0.3676922569908885,4.2158557830328987e-131
1970-01-01 00:00:00.000000024,-0.5096153846153846,-0.32146964827371693,-0.3477038329486736,1.5635758408602365e-132
1970-01-01 00:00:00.000000024,-0.5576923076923076,-0.3104111149924995,-0.2703112326232984,5.79898728974789e-134
1970-01-01 00:00:00.000000024,-0.5576923076923076,-0.30963045652377075,-0.20069944788038369,2.1507273716992395e-135
1970-01-01 00:00:00.000000024,-0.6153846153846153,-0.2996112111493102,-0.19857386014706108,7.976613840064846e-137
1970-01-01 00:00:00.000000024,-0.6634615384615383,-0.27987224450760606,-0.16079477609026468,2.9583651182736544e-138
1970-01-01 00:00:00.000000024,-0.7019230769230769,-0.25693939055605297,-0.14288509429008558,1.0971979274036352e-139
1970-01-01 00:00:00.000000024,-0.75,-0.15749130050582377,-0.19710276974204566,4.069285716163834e-141
1970-01-01 00:00:00.000000024,-0.7692307692307692,0.004674276898810739,-0.17888968874514674,1.5092159606024583e-142
1970-01-01 00:00:00.000000024,-0.7692307692307692,0.033696776773713286,-0.13291882637691652,5.597377462805553e-144
1970-01-01 00:00:00.000000024,-0.7788461538461539,0.030138695991447827,-0.13491862343159886,2.075954355042519e-145
1970-01-01 00:00:00.000000024,-0.8076923076923076,0.03004801499537806,-0.00988400627625206,7.69929580925549e-147
1970-01-01 00:00:00.000000024,-0.846153846153846,0.03115770888375973,0.11805045397279335,2.855513456470246e-148
1970-01-01 00:00:00.000000024,-0.9038461538461537,0.06121012486613475,0.19724626354167263,1.0590523214188761e-149
1970-01-01 00:00:00.000000024,-0.9519230769230769,0.12151566250187867,0.20759866165236765,3.927811360725059e-151
1970-01-01 00:00:00.000000024,-0.9519230769230769,0.21971276268458956,0.15791760107225353,1.4567459768910589e-152
1970-01-01 00:00:00.000000024,-0.9615384615384615,0.31072892998203905,0.056176567298477684,5.4027768808035356e-154
1970-01-01 00:00:00.000000024,-0.8846153846153846,0.41996834683046574,-0.14115028401335614,2.0037809258990788e-155
1970-01-01 00:00:00.000000024,-0.7788461538461539,0.5284164344405369,-0.3672342356590929,7.431619123978711e-157
1970-01-01 00:00:00.000000024,-0.6826923076923076,0.5972753830640293,-0.5241740787821527,2.756237575178301e-158
1970-01-01 00:00:00.000000024,-0.6153846153846153,0.598018908288252,-0.535465891459029,1.0222329002724263e-159
1970-01-01 00:00:00.000000024,-0.5961538461538461,0.5492351407187771,-0.4334049906116302,3.791255557249178e-161
1970-01-01 00:00:00.000000024,-0.6009615384615384,0.48132989111873087,-0.16646885505498685,1.406100184854371e-162
1970-01-01 00:00:00.000000024,-0.5721153846153846,0.3216719194869564,0.06374590412698419,5.214941857631034e-164
1970-01-01 00:00:00.000000024,-0.4711538461538461,0.2038119350290911,0.012608266483559862,1.9341167060075994e-165
1970-01-01 00:00:00.000000024,-0.41346153846153844,0.18125032629850296,-0.09832270907086793,7.173248589500116e-167
1970-01-01 00:00:00.000000024,-0.3846153846153846,0.18994687503048913,-0.16732141139699375,2.6604131574345303e-168
1970-01-01 00:00:00.000000024,-0.375,0.1973152995247037,-0.1693553986479628,9.866935573111092e-170
1970-01-01 00:00:00.000000024,-0.375,0.13756621213651038,-0.15527435209800175,3.65944730546314e-171
1970-01-01 00:00:00.000000024,-0.3846153846153846,0.016972428161075546,-0.2730521079980849,1.3572151639416298e-172
1970-01-01 00:00:00.000000024,-0.41346153846153844,-0.05431065178747102,-0.46713256385029045,5.033637179262442e-174
1970-01-01 00:00:00.000000024,-0.4423076923076923,-0.05836002642279305,-0.4895271159597576,1.8668744592322342e-175
1970-01-01 00:00:00.000000024,-0.41346153846153844,-0.02141006162794147,-0.7500995670631658,6.923860664594653e-177
1970-01-01 00:00:00.000000024,-0.41346153846153844,-0.01971163753162665,-0.7631611947457192,2.5679202083270665e-178
1970-01-01 00:00:00.000000024,-0.41346153846153844,-0.010804151725978007,-0.8552526910712532,9.523897888434128e-180
1970-01-01 00:00:00.000000024,-0.375,-0.02200045906977953,-0.82866146417812,3.532221550155254e-181
1970-01-01 00:00:00.000000024,-0.3269230769230769,-0.0832082431580693,-0.7686068417379894,1.3100296985053566e-182
1970-01-01 00:00:00.000000024,-0.22115384615384615,-0.22462210619809125,-0.673723262747593,4.858635809213617e-184
1970-01-01 00:00:00.000000024,-0.22115384615384615,-0.23158862419039458,-0.6719212524470207,1.8019699823222273e-185
1970-01-01 00:00:00.000000024,-0.08653846153846152,-0.27827074694256276,-0.7181505533219665,6.683143056396154e-187
1970-01-01 00:00:00.000000024,-0.08653846153846152,-0.2817215432587991,-0.7181436872460777,2.478642904733428e-188
1970-01-01 00:00:00.000000024,0.0,-0.3282109210450123,-0.6717290023221325,9.192786384103373e-190
1970-01-01 00:00:00.000000024,0.0,-0.329973324956533,-0.6685393754514992,3.409418974486965e-191
1970-01-01 00:00:00.000000024,0.02884615384615384,-0.3310688527813781,-0.6288341348683453,1.264484701144891e-192
1970-01-01 00:00:00.000000024,0.02884615384615384,-0.3588857001406753,-0.5599822659938224,4.68971860423837e-194
1970-01-01 00:00:00.000000024,0.02884615384615384,-0.35884505101685527,-0.49068704696485677,1.7393219994695182e-195
1970-01-01 00:00:00.000000024,0.02884615384615384,-0.32993067731441633,-0.43856800205731006,6.450794329332582e-197
1970-01-01 00:00:00.000000024,0.02884615384615384,-0.2992832364723855,-0.3506490085825149,2.3924694502824105e-198
1970-01-01 00:00:00.000000024,0.01923076923076923,-0.2507167074399932,-0.2789552296705934,8.873186429936646e-200
1970-01-01 00:00:00.000000024,0.009615384615384614,-0.22006786440743056,-0.18114219252350588,3.290885800490287e-201
1970-01-01 00:00:00.000000024,-0.009615384615384614,-0.1911156315606318,-0.11188396846406537,1.2205231387148877e-202
1970-01-01 00:00:00.000000024,-0.02884615384615384,-0.190054187729628,-0.08972495600625892,4.526674039908966e-204
1970-01-01 00:00:00.000000024,-0.009615384615384614,-0.19034743713932423,-0.06068984370492552,1.678852060532081e-205
1970-01-01 00:00:00.000000024,0.0,-0.19932661503212631,-0.04890082402673015,6.2265235276571805e-207
1970-01-01 00:00:00.000000024,0.01923076923076923,-0.19147116872808628,-0.009632405016788458,2.309291935358562e-208
1970-01-01 00:00:00.000000024,0.02884615384615384,-0.22039494062620332,0.03882588857344188,8.564697810944656e-210
1970-01-01 00:00:00.000000024,0.04807692307692307,-0.2591922281794033,0.05793139649971917,3.176473596501371e-211
1970-01-01 00:00:00.000000024,0.07692307692307691,-0.277795220217685,0.02532181691897586,1.1780899609063361e-212
1970-01-01 00:00:00.000000024,0.15384615384615383,-0.24127871769809067,-0.12424233968737097,4.36929794573752e-214
1970-01-01 00:00:00.000000024,0.15384615384615383,-0.23673015763076374,-0.12986498847799177,1.6204844427957812e-215
1970-01-01 00:00:00.000000024,0.17307692307692304,-0.15043553833253026,-0.13211234921840667,6.010049811102788e-217
1970-01-01 00:00:00.000000024,0.18269230769230768,-0.1500293773475538,-0.13716844041898826,2.2290062019736806e-218
1970-01-01 00:00:00.000000024,0.2019230769230769,-0.15035765005142274,-0.07143554209427641,8.266934226166536e-220
1970-01-01 00:00:00.000000024,0.22115384615384615,-0.15962717404086038,-0.04159119612647502,3.066039091288757e-221
1970-01-01 00:00:00.000000024,0.25,-0.1595760490518072,-0.05152675332054919,1.1371320313104676e-222
1970-01-01 00:00:00.000000024,0.2788461538461538,-0.14892615035793363,-0.09963114352835314,4.2173932495059866e-224
1970-01-01 00:00:00.000000024,0.2980769230769231,-0.11143001061240171,-0.13851412194498566,1.5641460561515508e-225
1970-01-01 00:00:00.000000024,0.2980769230769231,-0.10968413617691239,-0.14025014898625898,5.801102103203273e-227
1970-01-01 00:00:00.000000024,0.3173076923076923,-0.10004166616423248,-0.1482399006840067,2.1515117133363694e-228
1970-01-01 00:00:00.000000024,0.3173076923076923,-0.09144085025736416,-0.11222716948192207,7.979522804929665e-230
1970-01-01 00:00:00.000000024,0.3365384615384615,-0.11886129078460007,-0.13189367532788937,2.959443994643874e-231
1970-01-01 00:00:00.000000024,0.36538461538461536,-0.11781400092683766,-0.19890206437109081,1.0975980608793922e-232
1970-01-01 00:00:00.000000024,0.41346153846153844,-0.0621167342400169,-0.23846206269156225,4.0707697304850307e-234
1970-01-01 00:00:00.000000024,0.41346153846153844,-0.059337823553618795,-0.23957362830109016,1.5097663515692125e-235
1970-01-01 00:00:00.000000024,0.43269230769230765,-0.040004501707690654,-0.23002590143787258,5.599418751841364e-237
1970-01-01 00:00:00.000000024,0.45192307692307687,-0.02078372255402888,-0.2211257105214689,2.076711427956026e-238
1970-01-01 00:00:00.000000024,0.5096153846153846,-0.02115600725108912,-0.24036828264178733,7.702103639926793e-240
1970-01-01 00:00:00.000000024,0.5576923076923076,-0.05042847322537731,-0.2688179208067892,2.8565548242088056e-241
1970-01-01 00:00:00.000000024,0.6057692307692307,-0.09041276983409813,-0.2677155791415196,1.0594385437000123e-242
1970-01-01 00:00:00.000000024,0.6538461538461539,-0.14071631229527182,-0.20950271601423898,3.929243781232459e-244
1970-01-01 00:00:00.000000024,0.673076923076923,-0.20892766213824113,-0.13885775324293254,1.4572772327533498e-245
1970-01-01 00:00:00.000000024,0.6826923076923076,-0.2503305654372389,-0.03965662154493919,5.404747201598037e-247
1970-01-01 00:00:00.000000024,0.6826923076923076,-0.29999760466721026,0.06812897152957459,2.0045116781239098e-248
1970-01-01 00:00:00.000000024,0.673076923076923,-0.34960476057743844,0.12913885284345253,7.434329336526798e-250
1970-01-01 00:00:00.000000024,0.6826923076923076,-0.3893309309236279,0.16862005524364312,2.7572427383247384e-251
1970-01-01 00:00:00.000000024,0.6788461538461538,-0.41233037436051473,0.17360263873491105,1.0226056950008915e-252
1970-01-01 00:00:00.000000024,0.673076923076923,-0.41858917681027036,0.16865119059895592,3.792638177673187e-254
1970-01-01 00:00:00.000000024,0.6538461538461539,-0.389577399516786,0.12997950743689862,1.4066129708706236e-255
1970-01-01 00:00:00.000000024,0.6442307692307692,-0.3500006101429517,0.09079551019730688,5.216843677493491e-257
1970-01-01 00:00:00.000000024,0.625,-0.3104390743429097,0.07149926789038695,1.9348220526189774e-258
1970-01-01 00:00:00.000000024,0.6153846153846153,-0.2818543971156096,0.08968472284314041,7.17586457775431e-260
1970-01-01 00:00:00.000000025,0.6057692307692307,-0.29962964777854795,0.09998824887440443,2.661383374691643e-261
1970-01-01 00:00:00.000000025,0.5865384615384615,-0.3081460929051848,0.10999799676577919,9.87053391314374e-263
1970-01-01 00:00:00.000000025,0.5769230769230769,-0.27031486066144156,0.11995766380163358,3.6607818571726497e-264
1970-01-01 00:00:00.000000025,0.548076923076923,-0.24035514495373778,0.12885892587832773,1.3577101222416158e-265
1970-01-01 00:00:00.000000025,0.5192307692307693,-0.21927405308947884,0.10923333491321509,5.035472879722602e-267
1970-01-01 00:00:00.000000025,0.5192307692307693,-0.18004428846219123,0.07044111677847957,1.867555283491473e-268
1970-01-01 00:00:00.000000025,0.5096153846153846,-0.14192173538968433,0.042676818105733406,6.926385704392998e-270
1970-01-01 00:00:00.000000025,0.49038461538461536,-0.1518425670592854,0.08183297207632233,2.568856694637104e-271
1970-01-01 00:00:00.000000025,0.4423076923076923,-0.20782757521102146,0.16681342795496928,9.527371127190481e-273
1970-01-01 00:00:00.000000025,0.4423076923076923,-0.20950196363829468,0.17212958270784787,3.5335097043257044e-274
1970-01-01 00:00:00.000000025,0.43269230769230765,-0.19872544302293504,0.23068530515692293,1.3105074488943336e-275
1970-01-01 00:00:00.000000025,0.38269230769230766,-0.15608499798095116,0.3063736565290711,4.860407689004136e-277
1970-01-01 00:00:00.000000025,0.36538461538461536,-0.14056950246274638,0.34140342112799776,1.8026271367828934e-278
1970-01-01 00:00:00.000000025,0.3365384615384615,-0.13929156851320088,0.4115187139268676,6.685580309687737e-280
1970-01-01 00:00:00.000000025,0.2788461538461538,-0.12030284739367715,0.5196018548974282,2.4795468327994942e-281
1970-01-01 00:00:00.000000025,0.22115384615384615,-0.10888531111608203,0.617731368303691,9.19613887090253e-283
1970-01-01 00:00:00.000000025,0.18269230769230768,-0.06960055274053764,0.6591450893022285,3.4106623441930734e-284
1970-01-01 00:00:00.000000025,0.1346153846153846,-0.020329612878434312,0.679186042856476,1.264945841879717e-285
1970-01-01 00:00:00.000000025,0.07692307692307691,0.020701005022811327,0.6788780678226221,4.691428882173181e-287
1970-01-01 00:00:00.000000025,0.0,0.07925674849433996,0.6505217883543196,1.7399563070449307e-288
1970-01-01 00:00:00.000000025,-0.05769230769230768,0.11923120432436755,0.6352102177440089,6.453146848136911e-290
1970-01-01 00:00:00.000000025,-0.07692307692307691,0.139985768263584,0.5001540907339179,2.3933419520369615e-291
1970-01-01 00:00:00.000000025,-0.05769230769230768,0.16038453879240006,0.36895023207177385,8.876422362887728e-293
1970-01-01 00:00:00.000000025,-0.03846153846153846,0.19039677913121753,0.21150217520397518,3.2920859427260206e-294
1970-01-01 00:00:00.000000025,-0.01923076923076923,0.2303284977504728,0.09160849843555632,1.2209682472532109e-295
1970-01-01 00:00:00.000000025,0.009615384615384614,0.2784726601315479,0.011927282556045585,4.528324857661983e-297
1970-01-01 00:00:00.000000025,0.01923076923076923,0.2884333258013206,-0.019571869422325285,1.6794643155258733e-298
1970-01-01 00:00:00.000000025,0.02884615384615384,0.2592271365041087,-0.0403677569588282,6.228794257886121e-300
1970-01-01 00:00:00.000000025,0.04807692307692307,0.21069935980961435,-0.07035756846603615,2.3101341033808533e-301
1970-01-01 00:00:00.000000025,0.08653846153846152,0.1796555783554791,-0.109286591624148,8.567821242203643e-303
1970-01-01 00:00:00.000000025,0.11538461538461536,0.14000125578832184,-0.13038040538595974,3.1776320141296085e-304
1970-01-01 00:00:00.000000025,0.125,0.10037832792921006,-0.16098435379676448,1.1785195946296774e-305
1970-01-01 00:00:00.000000025,0.17307692307692304,0.0702135983003496,-0.2161971471266807,4.3708913705243395e-307
1970-01-01 00:00:00.000000025,0.22115384615384615,0.04538882618022881,-0.1763386186236137,1.6210754118965124e-308
1970-01-01 00:00:00.000000025,0.2019230769230769,-0.0947152914341718,-0.04494555571088862,6.0122415962495e-310
1970-01-01 00:00:00.000000025,0.2019230769230769,-0.10270169490286712,-0.03719138557037898,2.229819090858e-311
1970-01-01 00:00:00.000000025,0.2115384615384615,-0.17823047094324065,0.0407781453106563,8.269949067e-313
1970-01-01 00:00:00.000000025,0.18269230769230768,-0.20952102056463107,0.13820130895809912,3.067157235e-314
1970-01-01 00:00:00.000000025,0.15384615384615383,-0.22883708430179783,0.1906571965580199,1.13754673e-315
1970-01-01 00:00:00.000000025,0.125,-0.21908025558391028,0.25954299810843884,4.2189313e-317
1970-01-01 00:00:00.000000025,0.0673076923076923,-0.18632981646377986,0.31700375236982864,1.564716e-318
1970-01-01 00:00:00.000000025,-0.04807692307692307,-0.06182478893814587,0.29955831587693305,5.803e-320
1970-01-01 00:00:00.000000025,-0.07692307692307691,0.017060515133841297,0.27107077630736354,2.154e-321
1970-01-01 00:00:00.000000025,-0.07692307692307691,0.022458697551860748,0.26935264442188117,8e-323
1970-01-01 00:00:00.000000025,-0.125,0.08932431876639892,0.2514506230834269,5e-324
1970-01-01 00:00:00.000000025,-0.17307692307692304,0.13929790914090992,0.2698141788306443,0.0
1970-01-01 00:00:00.000000025,-0.2019230769230769,0.1717192280381682,0.28353220534396806,0.0
1970-01-01 00:00:00.000000025,-0.2019230769230769,0.247121247889631,0.13555536545649352,0.0
1970-01-01 00:00:00.000000025,-0.2019230769230769,0.25055446498186923,0.1264626619813568,0.0
1970-01-01 00:00:00.000000025,-0.14423076923076922,0.26784930662083795,0.028936508040139974,0.0
1970-01-01 00:00:00.000000025,-0.02884615384615384,0.23137681378075406,-0.09517694489757741,0.0
1970-01-01 00:00:00.000000025,-0.02884615384615384,0.22932466545952146,-0.09871402027472967,0.0
1970-01-01 00:00:00.000000025,0.0,0.21038915362632488,-0.07010160252012343,0.0
1970-01-01 00:00:00.000000025,0.0,0.20118248245125037,-0.04402924776860283,0.0
1970-01-01 00:00:00.000000025,0.05769230769230768,0.22153787255743512,-0.11868808723215293,0.0
1970-01-01 00:00:00.000000025,0.10576923076923075,0.2803400765994981,-0.1605491074995269,0.0
1970-01-01 00:00:00.000000025,0.14423076923076922,0.34764419562901305,-0.21613781525507328,0.0
1970-01-01 00:00:00.000000025,0.17307692307692304,0.3560532053838553,-0.17517190438745192,0.0
1970-01-01 00:00:00.000000025,0.21634615384615383,0.2657923497350802,-0.013503603206128518,0.0
1970-01-01 00:00:00.000000025,0.30769230769230765,0.07034023746330917,0.060574617821981896,0.0
1970-01-01 00:00:00.000000025,0.39423076923076916,-0.11660593822573238,0.024018284399639288,0.0
1970-01-01 00:00:00.000000025,0.423076923076923,-0.21870056955808298,-0.03708093903172112,0.0
1970-01-01 00:00:00.000000025,0.423076923076923,-0.28830943984250745,-0.025203638256109287,0.0
1970-01-01 00:00:00.000000025,0.4182692307692307,-0.4406543061896198,-0.018417293883229647,0.0
1970-01-01 00:00:00.000000025,0.4471153846153846,-0.609356827277227,-0.09706329659109127,0.0
1970-01-01 00:00:00.000000025,0.41346153846153844,-0.6369800302955063,-0.22729171407623436,0.0
1970-01-01 00:00:00.000000025,0.36538461538461536,-0.5891039907014435,-0.289812983467236,0.0
1970-01-01 00:00:00.000000025,0.2980769230769231,-0.5188277186434685,-0.3476588395391372,0.0
1970-01-01 00:00:00.000000025,0.16346153846153846,-0.4192444126722052,-0.34697568408946844,0.0
1970-01-01 00:00:00.000000025,0.009615384615384614,-0.3007714235060717,-0.2706846308765108,0.0
1970-01-01 00:00:00.000000025,-0.14423076923076922,-0.20158402199173148,-0.21150934957632253,0.0
1970-01-01 00:00:00.000000025,-0.28846153846153844,-0.1419971702706776,-0.1900678076841978,0.0
1970-01-01 00:00:00.000000025,-0.375,-0.13233957531656343,-0.17032145789701725,0.0
1970-01-01 00:00:00.000000025,-0.46153846153846145,-0.18117136327653546,-0.15861155553526815,0.0
1970-01-01 00:00:00.000000025,-0.5288461538461539,-0.25928723314989405,-0.11219054155522268,0.0
1970-01-01 00:00:00.000000025,-0.5769230769230769,-0.3195839317706031,-0.12053306645574403,0.0
1970-01-01 00:00:00.000000025,-0.6057692307692307,-0.3694789246563907,-0.1422022527498662,0.0
1970-01-01 00:00:00.000000025,-0.625,-0.4063470339519449,-0.21892775779064286,0.0
1970-01-01 00:00:00.000000025,-0.5673076923076922,-0.35189099204612073,-0.5188472075974913,0.0
1970-01-01 00:00:00.000000025,-0.5673076923076922,-0.3447097512933162,-0.5399468473416196,0.0
1970-01-01 00:00:00.000000025,-0.423076923076923,-0.2052722928734172,-0.8097176706262359,0.0
1970-01-01 00:00:00.000000025,-0.423076923076923,-0.19764215628894818,-0.8224302595667512,0.0
1970-01-01 00:00:00.000000025,-0.3365384615384615,-0.13106592692818342,-0.8958993376760489,0.0
1970-01-01 00:00:00.000000025,-0.2692307692307692,-0.0911378707720038,-0.8668518576865691,0.0
1970-01-01 00:00:00.000000025,-0.24038461538461536,-0.07965658391591934,-0.7591008198613182,0.0
1970-01-01 00:00:00.000000025,-0.23076923076923073,-0.059589894957818336,-0.6288702785690216,0.0
1970-01-01 00:00:00.000000025,-0.22115384615384615,-0.02927057994517567,-0.47039670150226454,0.0
1970-01-01 00:00:00.000000025,-0.23076923076923073,0.019284236438075274,-0.32184066199212125,0.0
1970-01-01 00:00:00.000000025,-0.23076923076923073,0.04994496377320791,-0.21930117228500873,0.0
1970-01-01 00:00:00.000000025,-0.23076923076923073,0.0792297854385381,-0.09929098970311384,0.0
1970-01-01 00:00:00.000000025,-0.23076923076923073,0.08925924306732097,0.03844445030093513,0.0
1970-01-01 00:00:00.000000025,-0.23076923076923073,0.0807697773791281,0.13729114782836185,0.0
1970-01-01 00:00:00.000000026,-0.23076923076923073,0.09152474616913812,0.1684165410648339,0.0
1970-01-01 00:00:00.000000026,-0.22115384615384615,0.14039836918760115,0.15995546092215282,0.0
1970-01-01 00:00:00.000000026,-0.2115384615384615,0.19923122189609235,0.15038090383329233,0.0
1970-01-01 00:00:00.000000026,-0.18269230769230768,0.23884462200689238,0.15032894257674057,0.0
1970-01-01 00:00:00.000000026,-0.14423076923076922,0.24957357229000235,0.15850054573870306,0.0
1970-01-01 00:00:00.000000026,-0.10576923076923075,0.2496418298231713,0.12918579236824193,0.0
1970-01-01 00:00:00.000000026,-0.07692307692307691,0.24075583293562278,0.0795158482038292,0.0
1970-01-01 00:00:00.000000026,-0.05769230769230768,0.2507656594386438,0.017742109135146542,0.0
1970-01-01 00:00:00.000000026,-0.03846153846153846,0.2799169719077601,-0.10047890155487263,0.0
1970-01-01 00:00:00.000000026,0.0,0.30699258207087876,-0.23067245111670726,0.0
1970-01-01 00:00:00.000000026,0.10576923076923075,0.25888274400596567,-0.3776772785962234,0.0
1970-01-01 00:00:00.000000026,0.14423076923076922,0.18284150609019384,-0.46661407098132485,0.0
1970-01-01 00:00:00.000000026,0.14423076923076922,0.17783792042926821,-0.4709026378995478,0.0
1970-01-01 00:00:00.000000026,0.18269230769230768,0.11878234550004835,-0.497757152306467,0.0
1970-01-01 00:00:00.000000026,0.2115384615384615,0.029285408072037545,-0.4685404743750611,0.0
1970-01-01 00:00:00.000000026,0.25,-0.07807632755503466,-0.40283565582018166,0.0
1970-01-01 00:00:00.000000026,0.25,-0.13734625205797296,-0.4080222327698439,0.0
1970-01-01 00:00:00.000000026,0.24038461538461536,-0.13027247801023475,-0.36376462896560335,0.0
1970-01-01 00:00:00.000000026,0.2019230769230769,-0.1300106542183658,-0.16362274930144663,0.0
1970-01-01 00:00:00.000000026,0.18269230769230768,-0.1300151858856422,-0.05404960217345568,0.0
1970-01-01 00:00:00.000000026,0.18269230769230768,-0.13039936469397378,-0.04571650938185699,0.0
1970-01-01 00:00:00.000000026,0.18269230769230768,-0.14076766085164993,0.0697038488633171,0.0
1970-01-01 00:00:00.000000026,0.17307692307692304,-0.17032747830057376,0.17772042869141805,0.0
1970-01-01 00:00:00.000000026,0.16346153846153846,-0.20807425326384155,0.2287477258049703,0.0
1970-01-01 00:00:00.000000026,0.16346153846153846,-0.19767735982314819,0.24846816804278027,0.0
1970-01-01 00:00:00.000000026,0.1346153846153846,-0.12921446196115885,0.2298928113500968,0.0
1970-01-01 00:00:00.000000026,0.09615384615384615,-0.041113113128140935,0.20863773840983252,0.0
1970-01-01 00:00:00.000000026,0.07692307692307691,0.019160407501353532,0.15332612571538168,0.0
1970-01-01 00:00:00.000000026,0.07692307692307691,0.05844411566468624,0.1811676559054731,0.0
1970-01-01 00:00:00.000000026,0.05769230769230768,0.05883071544517495,0.23820058373239253,0.0
1970-01-01 00:00:00.000000026,0.05769230769230768,0.029985201355037558,0.25024810486912513,0.0
1970-01-01 00:00:00.000000026,0.0673076923076923,0.0007697211408391223,0.2684982477339858,0.0
1970-01-01 00:00:00.000000026,0.05769230769230768,-0.009202730552381182,0.249204583948491,0.0
1970-01-01 00:00:00.000000026,0.04807692307692307,0.0007565539448690063,0.21002551887527068,0.0
1970-01-01 00:00:00.000000026,0.03846153846153846,0.029629687063844355,0.17148442568381772,0.0
1970-01-01 00:00:00.000000026,0.02884615384615384,0.04924499677892862,0.17005397458780758,0.0
1970-01-01 00:00:00.000000026,-0.01923076923076923,0.0499852259672283,0.1699728881869866,0.0
1970-01-01 00:00:00.000000026,-0.01923076923076923,0.05035610433623523,0.16921400646083076,0.0
1970-01-01 00:00:00.000000026,-0.04807692307692307,0.05962959111112292,0.14880528625544395,0.0
1970-01-01 00:00:00.000000026,-0.04807692307692307,0.05964285566408373,0.09852872243615579,0.0
1970-01-01 00:00:00.000000026,-0.05769230769230768,0.05072751181913768,0.011470219520762229,0.0
1970-01-01 00:00:00.000000026,-0.07692307692307691,0.05999996345263344,-0.038832795375575296,0.0
1970-01-01 00:00:00.000000026,-0.09615384615384615,0.06927150140196536,-0.05995569466129516,0.0
1970-01-01 00:00:00.000000026,-0.10576923076923075,0.060330574400431415,-0.07997096047939409,0.0
1970-01-01 00:00:00.000000026,-0.1346153846153846,0.05965400740968284,-0.0992602382823452,0.0
1970-01-01 00:00:00.000000026,-0.14423076923076922,0.05032762566100517,-0.10005547314392611,0.0
1970-01-01 00:00:00.000000026,-0.14423076923076922,0.04919188543745658,-0.1022375366036597,0.0
1970-01-01 00:00:00.000000026,-0.1346153846153846,0.02785328115032243,-0.16035801515488554,0.0
1970-01-01 00:00:00.000000026,-0.08653846153846152,-0.047153294378750966,-0.22742887257824995,0.0
1970-01-01 00:00:00.000000026,-0.08653846153846152,-0.05099222937659825,-0.23022154445786228,0.0
1970-01-01 00:00:00.000000026,-0.05769230769230768,-0.07963689878940176,-0.23855282778403125,0.0
1970-01-01 00:00:00.000000026,-0.03846153846153846,-0.09920403793724951,-0.21070480571098113,0.0
1970-01-01 00:00:00.000000026,-0.03846153846153846,-0.09887212551633474,-0.2004769264124593,0.0
1970-01-01 00:00:00.000000026,-0.03846153846153846,-0.07034335100378858,-0.20217220742541955,0.0
1970-01-01 00:00:00.000000026,-0.01923076923076923,-0.05039835158595685,-0.2581726740738685,0.0
1970-01-01 00:00:00.000000026,0.009615384615384614,-0.04041214181704635,-0.2684899925690305,0.0
1970-01-01 00:00:00.000000026,0.02884615384615384,-0.040729477474294735,-0.2410571252899547,0.0
1970-01-01 00:00:00.000000026,0.03846153846153846,-0.05928374998891145,-0.24005239025974692,0.0
1970-01-01 00:00:00.000000026,0.03846153846153846,-0.05993177222631437,-0.240357411723212,0.0
1970-01-01 00:00:00.000000026,0.04807692307692307,-0.058874100121576664,-0.2495977262669776,0.0
1970-01-01 00:00:00.000000026,0.04807692307692307,-0.029668931056255492,-0.24878119748518304,0.0
1970-01-01 00:00:00.000000026,0.0673076923076923,0.007812961602678307,-0.2174946058329645,0.0
1970-01-01 00:00:00.000000026,0.08653846153846152,-0.009381105671430167,-0.12357316000485855,0.0
1970-01-01 00:00:00.000000026,0.08653846153846152,-0.011102814731292892,-0.1189807142982162,0.0
1970-01-01 00:00:00.000000026,0.11538461538461536,-0.04039489207347792,-0.08890612604697919,0.0
1970-01-01 00:00:00.000000026,0.1346153846153846,-0.07955927125261092,-0.031484688970221886,0.0
1970-01-01 00:00:00.000000026,0.1346153846153846,-0.10770543174701687,-0.011180476149011916,0.0
1970-01-01 00:00:00.000000026,0.14423076923076922,-0.07848738591684457,-0.020388167053099794,0.0
1970-01-01 00:00:00.000000026,0.15384615384615383,-0.011453988007786131,-0.039300034284682483,0.0
1970-01-01 00:00:00.000000026,0.14423076923076922,0.019229709706618858,-0.04071275863332717,0.0
1970-01-01 00:00:00.000000026,0.14423076923076922,0.030656150086495235,-0.059944448815151104,0.0
1970-01-01 00:00:00.000000026,0.15384615384615383,0.05848634262875245,-0.07778735937575279,0.0
1970-01-01 00:00:00.000000026,0.17307692307692304,0.048475100889820814,-0.04031425433017429,0.0
1970-01-01 00:00:00.000000026,0.18269230769230768,0.00034138139640952237,-0.010697507538953146,0.0
1970-01-01 00:00:00.000000026,0.17307692307692304,-0.03925780318676364,0.0014815507784393888,0.0
1970-01-01 00:00:00.000000026,0.17307692307692304,-0.06030206743902782,0.050699378556816665,0.0
1970-01-01 00:00:00.000000026,0.15384615384615383,-0.08889801766698754,0.11740167025561035,0.0
1970-01-01 00:00:00.000000026,0.15384615384615383,-0.08994440956963573,0.11914571834466291,0.0
1970-01-01 00:00:00.000000026,0.17307692307692304,-0.08960104071317751,0.09953272505028828,0.0
1970-01-01 00:00:00.000000026,0.17307692307692304,-0.07928368968615714,0.06823785801312035,0.0
1970-01-01 00:00:00.000000026,0.17307692307692304,-0.051058580813065316,-0.007110558696038954,0.0
1970-01-01 00:00:00.000000026,0.17307692307692304,-0.04929799226660613,-0.01022294280617209,0.0
1970-01-01 00:00:00.000000026,0.15384615384615383,-0.029987210385300115,-0.01890889707060749,0.0
1970-01-01 00:00:00.000000026,0.14423076923076922,-0.010356688136496968,-0.0003172781002300965,0.0
1970-01-01 00:00:00.000000026,0.1346153846153846,0.00035663069988191743,0.010342388364394866,0.0
1970-01-01 00:00:00.000000026,0.125,0.019985717033308748,0.029561763938891476,0.0
1970-01-01 00:00:00.000000026,0.09615384615384615,0.039257729199454215,0.037825237985674935,0.0
1970-01-01 00:00:00.000000026,0.0673076923076923,0.03997297135195491,-0.008280338325668282,0.0
1970-01-01 00:00:00.000000026,0.0673076923076923,0.040012497303328246,-0.011394372778718426,0.0
1970-01-01 00:00:00.000000026,0.0673076923076923,0.040364455837907556,-0.04936772669972923,0.0
1970-01-01 00:00:00.000000026,0.0673076923076923,0.049827810320175726,-0.07153424811397065,0.0
1970-01-01 00:00:00.000000026,0.07692307692307691,0.05498642280683711,-0.13205697237747813,0.0
1970-01-01 00:00:00.000000026,0.0673076923076923,0.059805605464426245,-0.1190040060779386,0.0
1970-01-01 00:00:00.000000026,0.02884615384615384,0.05976492473267152,-0.08105119172686392,0.0
1970-01-01 00:00:00.000000026,0.02884615384615384,0.05384736231770477,-0.06937817054738747,0.0
1970-01-01 00:00:00.000000026,0.03846153846153846,0.019113857845357064,-0.04215941305259764,0.0
1970-01-01 00:00:00.000000026,0.05769230769230768,-0.03777320049306408,-0.06892598187274886,0.0
1970-01-01 00:00:00.000000026,0.05769230769230768,-0.03899027115808735,-0.06884209751162106,0.0
1970-01-01 00:00:00.000000027,0.03846153846153846,-0.014964120775294285,-0.03981065094101976,0.0
1970-01-01 00:00:00.000000027,0.024038461538461536,0.009959010225141628,-0.00604547789591237,0.0
1970-01-01 00:00:00.000000027,0.009615384615384614,0.033857396854118184,0.0015827477513856306,0.0
1970-01-01 00:00:00.000000027,0.01923076923076923,0.02919070483604919,-0.0762203328166757,0.0
1970-01-01 00:00:00.000000027,0.04807692307692307,0.004291633719209962,-0.059531733801629697,0.0
1970-01-01 00:00:00.000000027,0.07692307692307691,-0.03831659441738025,-0.031136479827326022,0.0
1970-01-01 00:00:00.000000027,0.07692307692307691,-0.038839682988476634,-0.031153221536172965,0.0
1970-01-01 00:00:00.000000027,0.09615384615384615,-0.010354846271488838,-0.060000501649344055,0.0
1970-01-01 00:00:00.000000027,0.09615384615384615,0.009258833658278006,-0.08886032299611664,0.0
1970-01-01 00:00:00.000000027,0.09615384615384615,0.010343355044995027,-0.08922821924580496,0.0
1970-01-01 00:00:00.000000027,0.09615384615384615,0.020011752556587725,-0.07030159664061718,0.0
1970-01-01 00:00:00.000000027,0.07692307692307691,0.029973963982873525,-0.05891489005085862,0.0
1970-01-01 00:00:00.000000027,0.07692307692307691,0.0392852749809974,-0.020400434732565722,0.0
1970-01-01 00:00:00.000000027,0.05769230769230768,0.03072846050405634,0.008103152271584209,0.0
1970-01-01 00:00:00.000000027,0.04807692307692307,0.040383158628523874,-0.010814453934660701,0.0
1970-01-01 00:00:00.000000027,0.07692307692307691,0.05961682246608834,-0.05009340850742308,0.0
1970-01-01 00:00:00.000000027,0.09615384615384615,0.06927104795586125,-0.09170757576576237,0.0
1970-01-01 00:00:00.000000027,0.10576923076923075,0.060701472342165406,-0.1760111371681609,0.0
1970-01-01 00:00:00.000000027,0.11538461538461536,0.06966870528260484,-0.16059312777458196,0.0
1970-01-01 00:00:00.000000027,0.11538461538461536,0.07035357028816507,-0.16000331274555174,0.0
1970-01-01 00:00:00.000000027,0.11538461538461536,0.07987769249785176,-0.1594963163553148,0.0
1970-01-01 00:00:00.000000027,0.125,0.08634412715383227,-0.14639722884794787,0.0
1970-01-01 00:00:00.000000027,0.16346153846153846,0.0014137406556196876,-0.043228862539277955,0.0
1970-01-01 00:00:00.000000027,0.18269230769230768,-0.048173129452100505,-0.020782059712557067,0.0
1970-01-01 00:00:00.000000027,0.18269230769230768,-0.05208823586233325,-0.01788674969976288,0.0
1970-01-01 00:00:00.000000027,0.1923076923076923,-0.10820923883089723,0.03783981781895944,0.0
1970-01-01 00:00:00.000000027,0.1923076923076923,-0.11956121257189163,0.039561830811667566,0.0
1970-01-01 00:00:00.000000027,0.1923076923076923,-0.11994350061017708,0.030329614096064734,0.0
1970-01-01 00:00:00.000000027,0.1923076923076923,-0.11891330390288998,0.02933774978208028,0.0
1970-01-01 00:00:00.000000027,0.2115384615384615,-0.09071570476785254,0.01178963002010279,0.0
1970-01-01 00:00:00.000000027,0.2019230769230769,-0.08041072482912873,0.03898226076069511,0.0
1970-01-01 00:00:00.000000027,0.2019230769230769,-0.08037386561862288,0.040731410518665065,0.0
1970-01-01 00:00:00.000000027,0.18269230769230768,-0.08968364687368877,0.06076582324326172,0.0
1970-01-01 00:00:00.000000027,0.18269230769230768,-0.09108459997097382,0.09994581704940153,0.0
1970-01-01 00:00:00.000000027,0.18269230769230768,-0.11960055234260417,0.13777123709057906,0.0
1970-01-01 00:00:00.000000027,0.18269230769230768,-0.1381303132793389,0.1198775843962329,0.0
1970-01-01 00:00:00.000000027,0.18269230769230768,-0.10991790619954511,0.09892354160770947,0.0
1970-01-01 00:00:00.000000027,0.17307692307692304,-0.07965315410837927,0.05105803901192257,0.0
1970-01-01 00:00:00.000000027,0.16346153846153846,-0.04071725472669508,0.02964351171419981,0.0
1970-01-01 00:00:00.000000027,0.1346153846153846,-0.019712723512387776,-0.0006832227285276605,0.0
1970-01-01 00:00:00.000000027,0.14423076923076922,0.008473719892225192,-0.048090525384446664,0.0
1970-01-01 00:00:00.000000027,0.15384615384615383,-0.0014968393975320245,-0.04776096265153224,0.0
1970-01-01 00:00:00.000000027,0.1346153846153846,-0.048888383625589865,0.008544533793076226,0.0
1970-01-01 00:00:00.000000027,0.11538461538461536,-0.06848951849339407,0.02846337506459017,0.0
1970-01-01 00:00:00.000000027,0.10576923076923075,-0.050328615696050044,0.009966592950858263,0.0
1970-01-01 00:00:00.000000027,0.10576923076923075,-0.04038310529995707,-0.009365365391416977,0.0
1970-01-01 00:00:00.000000027,0.10576923076923075,-0.040015227402790815,-0.012831458519116528,0.0
1970-01-01 00:00:00.000000027,0.125,-0.04002803457539493,-0.08708401462472935,0.0
1970-01-01 00:00:00.000000027,0.1346153846153846,-0.040741706132872264,-0.08843693634857604,0.0
1970-01-01 00:00:00.000000027,0.1346153846153846,-0.05999803101215622,-0.050713266786823905,0.0
1970-01-01 00:00:00.000000027,0.125,-0.07920513119534572,-0.03082126689566939,0.0
1970-01-01 00:00:00.000000027,0.125,-0.07854051126217809,-0.03146093939624963,0.0
1970-01-01 00:00:00.000000027,0.10576923076923075,-0.04138867288346245,-0.0686240968030707,0.0
1970-01-01 00:00:00.000000027,0.10576923076923075,-0.038953656591308033,-0.07138967428665913,0.0
1970-01-01 00:00:00.000000027,0.08653846153846152,-0.010360055081854402,-0.10889710893672565,0.0
1970-01-01 00:00:00.000000027,0.0673076923076923,0.009232169381239236,-0.11883226700493295,0.0
1970-01-01 00:00:00.000000027,0.05769230769230768,0.009628628375313706,-0.09957410019646423,0.0
1970-01-01 00:00:00.000000027,0.05769230769230768,0.0007407967522308056,-0.06966843829960148,0.0
1970-01-01 00:00:00.000000027,0.04807692307692307,0.010372883934918082,-0.0314737338927759,0.0
1970-01-01 00:00:00.000000027,0.03846153846153846,0.029327069490557415,-0.030122376805347902,0.0
1970-01-01 00:00:00.000000027,0.03846153846153846,0.031457992310132146,-0.03183043985161744,0.0
1970-01-01 00:00:00.000000027,0.05769230769230768,0.07003872288301057,-0.07929949918832291,0.0
1970-01-01 00:00:00.000000027,0.07692307692307691,0.1095875255311528,-0.10925603823310102,0.0
1970-01-01 00:00:00.000000027,0.10576923076923075,0.138824466458115,-0.12061353310540457,0.0
1970-01-01 00:00:00.000000027,0.15384615384615383,0.13867306883795158,-0.1473093556128226,0.0
1970-01-01 00:00:00.000000027,0.2019230769230769,0.10534839216657739,-0.10673906844080547,0.0
1970-01-01 00:00:00.000000027,0.24038461538461536,-0.04426648034036211,0.015354507711074935,0.0
1970-01-01 00:00:00.000000027,0.24038461538461536,-0.050543361356353886,0.02131077663982883,0.0
1970-01-01 00:00:00.000000027,0.25961538461538464,-0.0704042762811929,0.060036461564303506,0.0
1970-01-01 00:00:00.000000027,0.2980769230769231,-0.10037209823585405,0.09967368559636579,0.0
1970-01-01 00:00:00.000000027,0.3365384615384615,-0.1396423760868665,0.13115304953757284,0.0
1970-01-01 00:00:00.000000027,0.3461538461538461,-0.1699720561095411,0.19145865191810085,0.0
1970-01-01 00:00:00.000000027,0.3269230769230769,-0.19960313887074274,0.2882305522511501,0.0
1970-01-01 00:00:00.000000027,0.30769230769230765,-0.21931269340051243,0.3407662588629515,0.0
1970-01-01 00:00:00.000000027,0.25961538461538464,-0.221839582943093,0.4124584370485385,0.0
1970-01-01 00:00:00.000000027,0.25,-0.2703560460629991,0.5456115414475889,0.0
1970-01-01 00:00:00.000000027,0.22115384615384615,-0.3277736607578821,0.5690531820363598,0.0
1970-01-01 00:00:00.000000027,0.22115384615384615,-0.3295327943998164,0.5688243735341271,0.0
1970-01-01 00:00:00.000000027,0.23076923076923073,-0.3196117880371606,0.5392049033850708,0.0
1970-01-01 00:00:00.000000027,0.24038461538461536,-0.29998548260352026,0.4897080178627843,0.0
1970-01-01 00:00:00.000000027,0.2115384615384615,-0.27999624225788766,0.4329115789101052,0.0
1970-01-01 00:00:00.000000027,0.15384615384615383,-0.2599130583594449,0.4489046127100555,0.0
1970-01-01 00:00:00.000000027,0.0673076923076923,-0.2376563334471239,0.4375129642613926,0.0
1970-01-01 00:00:00.000000027,-0.02884615384615384,-0.15680794471290052,0.36394542234754407,0.0
1970-01-01 00:00:00.000000027,-0.24038461538461536,0.0038418261988100036,0.3890134391222983,0.0
1970-01-01 00:00:00.000000027,-0.24038461538461536,0.010537252080769926,0.3894174339545083,0.0
1970-01-01 00:00:00.000000027,-0.3269230769230769,0.030663979981977993,0.37525727764942485,0.0
1970-01-01 00:00:00.000000027,-0.3365384615384615,0.06739020743263599,0.24252906257996296,0.0
1970-01-01 00:00:00.000000027,-0.375,0.03887162069919342,-0.07697258799042553,0.0
1970-01-01 00:00:00.000000027,-0.39423076923076916,-0.017856448554413665,-0.3207889383214522,0.0
1970-01-01 00:00:00.000000027,-0.39423076923076916,-0.020995731668362223,-0.3343287466887843,0.0
1970-01-01 00:00:00.000000027,-0.39423076923076916,-0.04902830649136637,-0.4560872222757241,0.0
1970-01-01 00:00:00.000000027,-0.3846153846153846,-0.05276854359852956,-0.4800262547557658,0.0
1970-01-01 00:00:00.000000027,-0.375,-0.12572237066893158,-0.5046216561299541,0.0
1970-01-01 00:00:00.000000027,-0.3846153846153846,-0.341735464462623,-0.6447584607529968,0.0
1970-01-01 00:00:00.000000028,-0.3846153846153846,-0.35113516982189075,-0.6538567842009599,0.0
1970-01-01 00:00:00.000000028,-0.3173076923076923,-0.3889141207284273,-0.7593747126729204,0.0
1970-01-01 00:00:00.000000028,-0.25961538461538464,-0.3995460898456464,-0.8492604579678913,0.0
1970-01-01 00:00:00.000000028,-0.2115384615384615,-0.3988303051040243,-0.9206576524601459,0.0
1970-01-01 00:00:00.000000028,-0.18269230769230768,-0.36887214796300777,-1.0084961584560455,0.0
1970-01-01 00:00:00.000000028,-0.1346153846153846,-0.31071768989718646,-1.0587386258530815,0.0
1970-01-01 00:00:00.000000028,-0.10576923076923075,-0.27050547926102614,-1.077446739577154,0.0
1970-01-01 00:00:00.000000028,-0.09615384615384615,-0.24293025015052003,-1.0323233427300744,0.0
1970-01-01 00:00:00.000000028,-0.08653846153846152,-0.28861127480301524,-0.795283514134854,0.0
1970-01-01 00:00:00.000000028,-0.08653846153846152,-0.29957416953089105,-0.6903315389109811,0.0
1970-01-01 00:00:00.000000028,-0.07692307692307691,-0.2998913025310433,-0.5936680364616341,0.0
1970-01-01 00:00:00.000000028,-0.07692307692307691,-0.29749099880727725,-0.5887054455531423,0.0
1970-01-01 00:00:00.000000028,-0.125,-0.23236566526544292,-0.5513789934732078,0.0
1970-01-01 00:00:00.000000028,-0.125,-0.22638196335968094,-0.5485273782234689,0.0
1970-01-01 00:00:00.000000028,-0.125,-0.1299473454459427,-0.5088602185604504,0.0
1970-01-01 00:00:00.000000028,-0.14423076923076922,-0.0321963636807714,-0.44069852290869094,0.0
1970-01-01 00:00:00.000000028,-0.17307692307692304,0.010645526065114467,-0.3899998999742039,0.0
1970-01-01 00:00:00.000000028,-0.2115384615384615,0.06962556743886193,-0.3392987763948156,0.0
1970-01-01 00:00:00.000000028,-0.25,0.11924479478415781,-0.2710670626858154,0.0
1970-01-01 00:00:00.000000028,-0.2980769230769231,0.1499838917333988,-0.22951191612219948,0.0
1970-01-01 00:00:00.000000028,-0.3461538461538461,0.1803202820176094,-0.17575467261357067,0.0
1970-01-01 00:00:00.000000028,-0.4038461538461538,0.218663722742055,-0.015864244444208662,0.0
1970-01-01 00:00:00.000000028,-0.4038461538461538,0.22360023201787568,-0.0025799273800628858,0.0
1970-01-01 00:00:00.000000028,-0.5865384615384615,0.3185425417405881,0.19620620518251086,0.0
1970-01-01 00:00:00.000000028,-1.0384615384615385,0.8770483949780046,0.050147467307855985,0.0
1970-01-01 00:00:00.000000028,-1.1538461538461537,1.3617641226655357,-0.3422245878703993,0.0
1970-01-01 00:00:00.000000028,-0.971153846153846,1.3905829169914619,-0.5402113398086372,0.0
1970-01-01 00:00:00.000000028,-0.75,0.9339746361039356,-0.4934815869628024,0.0
1970-01-01 00:00:00.000000028,-0.49038461538461536,0.45173225781479615,-0.0337915081870266,0.0
1970-01-01 00:00:00.000000028,-0.25,0.012796324895561526,0.3311108659130848,0.0
1970-01-01 00:00:00.000000028,0.08653846153846152,-0.6062314856346351,0.22378488784031583,0.0
1970-01-01 00:00:00.000000028,0.08653846153846152,-0.6310464370307056,0.21108110577544237,0.0
1970-01-01 00:00:00.000000028,0.1923076923076923,-0.6820223141944182,-0.02459503190337231,0.0
1970-01-01 00:00:00.000000028,0.24038461538461536,-0.5335560462185863,-0.37514696716649465,0.0
1970-01-01 00:00:00.000000028,0.3221153846153846,-0.4739909337074114,-0.6043730815919818,0.0
1970-01-01 00:00:00.000000028,0.28846153846153844,-0.5141991638815211,-0.5679262358170142,0.0
1970-01-01 00:00:00.000000028,0.23076923076923073,-0.4093864910936564,-0.4796352854674004,0.0
1970-01-01 00:00:00.000000028,0.16346153846153846,-0.2892360956472021,-0.3822264718027985,0.0
1970-01-01 00:00:00.000000028,0.08653846153846152,-0.14998809138080044,-0.3404794532081586,0.0
1970-01-01 00:00:00.000000028,0.0,-0.010442371634410062,-0.3107187648174825,0.0
1970-01-01 00:00:00.000000028,-0.0673076923076923,0.11804405725172921,-0.2989271968638705,0.0
1970-01-01 00:00:00.000000028,-0.125,0.19763191743109912,-0.2603155505070216,0.0
1970-01-01 00:00:00.000000028,-0.18269230769230768,0.21801771338794657,-0.22959266682571208,0.0
1970-01-01 00:00:00.000000028,-0.1923076923076923,0.1888463440434584,-0.18868645378720456,0.0
1970-01-01 00:00:00.000000028,-0.22115384615384615,0.1308335757854306,-0.11494158542881144,0.0
1970-01-01 00:00:00.000000028,-0.28846153846153844,0.09366020216316717,0.08526364720929577,0.0
1970-01-01 00:00:00.000000028,-0.49038461538461536,0.14799188262008336,0.41706006007979735,0.0
1970-01-01 00:00:00.000000028,-0.49038461538461536,0.15212062857908346,0.42535797494523037,0.0
1970-01-01 00:00:00.000000028,-0.5096153846153846,0.20926508901516988,0.3176052634414223,0.0
1970-01-01 00:00:00.000000028,-0.5,0.248036774830504,0.14998413797317187,0.0
1970-01-01 00:00:00.000000028,-0.4807692307692307,0.23772783140843756,-0.018033538165781886,0.0
1970-01-01 00:00:00.000000028,-0.45192307692307687,0.17061467319730997,-0.13688966844928266,0.0
1970-01-01 00:00:00.000000028,-0.423076923076923,0.11886834491893092,-0.17798750996484972,0.0
1970-01-01 00:00:00.000000028,-0.3557692307692307,0.038830639613824894,-0.16877310060165987,0.0
1970-01-01 00:00:00.000000028,-0.30769230769230765,-0.07044107534565872,-0.12888620627996633,0.0
1970-01-01 00:00:00.000000028,-0.25,-0.1907396739466101,-0.06115446895743061,0.0
1970-01-01 00:00:00.000000028,-0.16346153846153846,-0.32953012121281383,-0.022284455570660264,0.0
1970-01-01 00:00:00.000000028,-0.10576923076923075,-0.45657359879936243,-0.04052583145039658,0.0
1970-01-01 00:00:00.000000028,-0.0673076923076923,-0.4979570463699719,-0.07191299359004732,0.0
1970-01-01 00:00:00.000000028,-0.02884615384615384,-0.48826665318987944,-0.15112499548088104,0.0
1970-01-01 00:00:00.000000028,-0.01923076923076923,-0.4352425897567741,-0.25846188439374057,0.0
1970-01-01 00:00:00.000000028,-0.05769230769230768,-0.263283270243022,-0.32734588315011454,0.0
1970-01-01 00:00:00.000000028,-0.0673076923076923,-0.17340570680482142,-0.32987696065935124,0.0
1970-01-01 00:00:00.000000028,-0.0673076923076923,-0.1686708134871562,-0.3293320546523678,0.0
1970-01-01 00:00:00.000000028,-0.09615384615384615,-0.13070625734839553,-0.312088514954579,0.0
1970-01-01 00:00:00.000000028,-0.01923076923076923,-0.11039813491952284,-1.3470578491212666,0.0
1970-01-01 00:00:00.000000028,0.16346153846153846,-0.10004338547872142,-1.0584734113196175,0.0
1970-01-01 00:00:00.000000028,0.0,-0.34077327300595595,-0.7317242565084043,0.0
1970-01-01 00:00:00.000000028,0.0,-0.3508349856820896,-0.6980815144073007,0.0
1970-01-01 00:00:00.000000028,-0.14423076923076922,-0.3817713404104627,-0.11647663248871587,0.0
1970-01-01 00:00:00.000000028,-0.2115384615384615,-0.20699120540040242,0.5532124372119724,0.0
