time,ax,ay,az,speed
1970-01-01 00:00:00.000000000,-0.24951710314633876,2.0938579009479,2.014233134402505,1.2621318609381256
1970-01-01 00:00:00.000000000,-0.2793417831829391,2.012608105659841,2.451745011844714,1.0795992721639716
1970-01-01 00:00:00.000000000,-0.1734276898997355,1.8370265518140274,2.2733477853513575,1.0950236909369275
1970-01-01 00:00:00.000000000,-0.062191055668070705,1.6156802518032767,1.9572166511261582,1.1321214451187216
1970-01-01 00:00:00.000000000,0.13321036000434788,1.362573485159196,1.6477350333396332,1.165998169054542
1970-01-01 00:00:00.000000000,0.3257702399357825,1.1507450487086093,1.2585704502574608,1.194279924068843
1970-01-01 00:00:00.000000000,0.3446325482910971,0.7335153474445955,1.1096396410832305,1.2230419017769252
1970-01-01 00:00:00.000000000,0.21372095031191662,0.182855434566334,1.730385961260568,1.224047129680222
1970-01-01 00:00:00.000000000,0.1622193509080439,-0.3054097122549915,2.851790214850769,1.1847491049889773
1970-01-01 00:00:00.000000000,0.12837101056120326,-0.6786267966364212,4.01824070852485,1.131979177338192
1970-01-01 00:00:00.000000000,0.05563651027012756,-1.4140497859529881,5.244172926295574,1.0996622976188626
1970-01-01 00:00:00.000000000,-0.05535939233108578,-2.0640068147951802,5.761138910754907,1.113123071171624
1970-01-01 00:00:00.000000000,-0.10010158628872179,-2.4775884830016786,5.643123394602098,1.158715958031499
1970-01-01 00:00:00.000000000,0.0502953872137781,-2.6384064016380506,4.795668568113899,1.2321932237923525
1970-01-01 00:00:00.000000000,0.40542618211892095,-2.434888883692098,3.4144234220067666,1.3025061653969567
1970-01-01 00:00:00.000000000,0.73683647979162,-2.0583589588427964,2.1889983252745786,1.3482173446325518
1970-01-01 00:00:00.000000000,0.9475925723689272,-1.7152772491857076,1.1140571162845514,1.3923974990609593
1970-01-01 00:00:00.000000000,1.143216556977603,-1.4372883890787052,0.20738219450091777,1.4308631136072703
1970-01-01 00:00:00.000000000,1.346182139788179,-1.246789492270113,-0.420018101090545,1.4531359355058775
1970-01-01 00:00:00.000000000,1.4788914040059131,-1.1845397131359707,-0.7563827348672536,1.4628049376311196
1970-01-01 00:00:00.000000000,1.4777368437065452,-1.1769515909129373,-0.9434845688371404,1.4689381555238368
1970-01-01 00:00:00.000000000,1.3542469776506474,-1.1799515537772276,-1.0544989359994237,1.4792365527499
1970-01-01 00:00:00.000000000,1.2552899654064138,-1.040514590464773,-1.136760932539842,1.4791841428322297
1970-01-01 00:00:00.000000000,1.1845539739946502,-1.0027741009873727,-1.2268779547920488,1.4874131950058842
1970-01-01 00:00:00.000000000,1.193859776664991,-0.839861112828072,-1.5444188234792364,1.4930067491941954
1970-01-01 00:00:00.000000000,1.1164024546598932,-0.3740791150088063,-1.9230334487855891,1.490675467100452
1970-01-01 00:00:00.000000000,1.068050690285543,-0.6332917108172827,-1.7505010121392481,1.4997237476117515
1970-01-01 00:00:00.000000000,1.0748357866839706,-0.8308296048956797,-1.6965264068119599,1.5133427940802986
1970-01-01 00:00:00.000000000,1.1689178521530752,-0.9995301454036891,-1.756134495821292,1.5276187720199994
1970-01-01 00:00:00.000000000,1.2792444409232078,-1.2172520566037544,-1.779872715962743,1.5391059183611786
1970-01-01 00:00:00.000000000,1.3285360161370383,-1.4554678740351767,-1.8896213263102801,1.5565581360956122
1970-01-01 00:00:00.000000000,1.2844097281937465,-1.6106818517451802,-2.0202044038139917,1.5751720503224895
1970-01-01 00:00:00.000000000,1.2275905628286738,-1.5409192279406774,-2.1638746815234504,1.5826197212569704
1970-01-01 00:00:00.000000000,1.2040540438986065,-1.4398936147450565,-2.3501683094111585,1.5773137150249947
1970-01-01 00:00:00.000000000,1.0912239711153229,-1.3343867020525013,-2.538848004454565,1.3741818560425179
1970-01-01 00:00:00.000000000,0.9104716834532698,-1.0552905318477177,-2.665471002037316,1.3598353246012151
1970-01-01 00:00:00.000000000,0.7281006408807764,-0.707818768193537,-2.7282301609104964,1.3429929154862255
1970-01-01 00:00:00.000000000,0.5159878138593654,-0.4203641710281597,-2.8612913041964925,1.3374075495299365
1970-01-01 00:00:00.000000000,0.3348825204904164,-0.12762991350950487,-3.0122511163375076,1.3323769755327877
1970-01-01 00:00:00.000000000,0.18248506983630935,0.11307210329432704,-3.0807732398934142,1.3264685045315994
1970-01-01 00:00:00.000000000,0.08609409123083646,0.22247770062166505,-3.1267253626193257,1.3251557626391681
1970-01-01 00:00:00.000000000,0.02192921354712056,0.21039080700617419,-3.0242465573128228,1.3202841978949547
1970-01-01 00:00:00.000000000,-0.04156234178674385,0.14725909784613125,-2.8387466755257966,1.3126847074791514
1970-01-01 00:00:00.000000000,-0.10763439464760158,0.13404412303575397,-2.5034743936873114,1.2916243098919713
1970-01-01 00:00:00.000000000,-0.19658618121139437,0.126614103941164,-2.100380074209654,1.2668356570794854
1970-01-01 00:00:00.000000000,-0.290174941477732,0.06519684905250929,-1.6761274442965228,1.2445807145844148
1970-01-01 00:00:00.000000000,-0.38025934565053443,-0.02643433395011026,-1.3151960762231703,1.2276905999264565
1970-01-01 00:00:00.000000000,-0.4799638691642089,-0.017543655994659166,-1.0727864040182373,1.2154278107941876
1970-01-01 00:00:00.000000000,-0.5257514245774214,0.12288676178003098,-1.0799056925835202,1.2099735488557672
1970-01-01 00:00:00.000000000,-0.511016313801103,0.2818704127136758,-1.1382831070786248,1.2012243146231558
1970-01-01 00:00:00.000000000,-0.5386291069634342,0.4103109825469931,-1.2310415974815632,1.196761664680678
1970-01-01 00:00:00.000000000,-0.6163617578940674,0.5792775636606017,-1.3170885773181196,1.1950741970140522
1970-01-01 00:00:00.000000000,-0.6310891957960542,0.7887924364611896,-1.2717407899357294,1.1798329725241194
1970-01-01 00:00:00.000000000,-0.6219175031853815,0.9143067638535081,-1.0737242078845708,1.1575867218526348
1970-01-01 00:00:00.000000000,-0.6290242387378701,0.9050721353815879,-0.711230875149609,1.133572582948538
1970-01-01 00:00:00.000000000,-0.6485471972793323,0.8789380383559487,-0.27321227424833405,1.1061522823178804
1970-01-01 00:00:00.000000000,-0.6772972286646095,0.869664283537176,0.12790885375275252,1.0769305405958214
1970-01-01 00:00:00.000000000,-0.782699250491452,0.8794941125397802,0.5042478209646485,1.0494509268147116
1970-01-01 00:00:00.000000000,-0.9592002235475261,0.8397914273100529,0.9498969845659035,1.022341273327981
1970-01-01 00:00:00.000000000,-1.1969774094877303,0.6847292016428167,1.5328255391259393,0.9946003475054396
1970-01-01 00:00:00.000000000,-1.5070063532893272,0.4897386384594771,2.028234193248006,0.9746918483857967
1970-01-01 00:00:00.000000000,-1.9417789187327261,0.40727158336582436,2.0985552251727952,0.9921192231670521
1970-01-01 00:00:00.000000000,-2.150475759991199,0.6403793887909726,2.016542162790746,0.9972945711513118
1970-01-01 00:00:00.000000000,-2.110476326118913,0.8702225006120223,2.0853337567989048,0.9730669021933727
1970-01-01 00:00:00.000000000,-2.1713559586133493,0.7329913916895465,2.4148325347356,0.9538571696791387
1970-01-01 00:00:00.000000000,-2.3983450743730637,0.29998566240033997,2.994585268456942,0.9614993841914047
1970-01-01 00:00:00.000000000,-2.3461095043659848,-0.20265046178501023,3.1196977586972414,0.9883363662375994
1970-01-01 00:00:00.000000000,-2.2153472049762413,-0.7957443642241115,3.4630579827401298,1.000368388248706
1970-01-01 00:00:00.000000000,-2.134616812886875,-1.354396505570358,4.060918641981909,1.0006431008265713
1970-01-01 00:00:00.000000000,-1.980651121374121,-1.8364858282160266,4.368220808730831,1.0044529096815604
1970-01-01 00:00:00.000000000,-1.9337150801327447,-2.137069216311278,4.474694833701504,1.0142192181800234
1970-01-01 00:00:00.000000000,-1.9346585176762652,-2.2637505572476293,4.29917215615059,1.0310805537733132
1970-01-01 00:00:00.000000000,-2.009861065446251,-2.292242585073093,3.7949066266660365,1.067891095654478
1970-01-01 00:00:00.000000000,-2.0765524954811587,-2.1112929880162326,2.9288130155420706,1.1184673982606768
1970-01-01 00:00:00.000000000,-2.0533924906812606,-1.7247142323174323,1.7709986520176257,1.1696646340850112
1970-01-01 00:00:00.000000000,-2.0171794330522537,-1.2552058377902917,0.588936035697969,1.2142452864522102
1970-01-01 00:00:00.000000000,-2.0189896772236398,-0.8357647190748312,-0.28964701922683816,1.2460188867237327
1970-01-01 00:00:00.000000000,-1.9947647933008734,-0.5256403943432313,-0.8746043719356775,1.2640479556289494
1970-01-01 00:00:00.000000000,-1.9658054923590345,-0.27380744654620476,-1.2419525413902694,1.266976514557537
1970-01-01 00:00:00.000000000,-2.0300235057745337,-0.09748814491759877,-1.3884417281148873,1.2649725725647165
1970-01-01 00:00:00.000000000,-2.122170188079823,-0.030534283761373744,-1.4181359352441176,1.2661032448108513
1970-01-01 00:00:00.000000000,-2.173063559984391,-0.17680784578869727,-1.2260988526254935,1.2709268258325257
1970-01-01 00:00:00.000000000,-2.080886152767362,-0.31659505448809117,-1.134850587598856,1.276585668366144
1970-01-01 00:00:00.000000000,-1.9048905157638971,-0.3415970736721755,-1.1352054608260322,1.2775298894244156
1970-01-01 00:00:00.000000000,-1.695162885209615,-0.3870214778418357,-1.2461923978851615,1.2872079205653766
1970-01-01 00:00:00.000000000,-1.4230635609086688,-0.3392869880538027,-1.4932934420697603,1.2967619234977803
1970-01-01 00:00:00.000000000,-1.1329048024587156,-0.2456217145870091,-1.7946250529744838,1.3044516165520037
1970-01-01 00:00:00.000000000,-0.8743525480573467,-0.19880630112420816,-2.1178899835701,1.3181068457310168
1970-01-01 00:00:00.000000000,-0.6159202443031379,-0.13057170846809674,-2.3968277961197084,1.326992043137358
1970-01-01 00:00:00.000000000,-0.371762208080532,-0.059949038963066054,-2.5797797231106756,1.3283412251824667
1970-01-01 00:00:00.000000000,-0.1772246025053213,0.006004896634011922,-2.763167487699801,1.3332603946113961
1970-01-01 00:00:00.000000000,0.029945180885242714,0.08573061678803914,-2.9120930760773427,1.3343209156853308
1970-01-01 00:00:00.000000000,0.23560657941251795,0.14532022890917162,-3.0267470941222636,1.3309849188121465
1970-01-01 00:00:00.000000000,0.3658208936851607,0.26269081586445986,-3.1353032131189433,1.3280292620009002
1970-01-01 00:00:00.000000000,0.5016695274164882,0.43288205552667713,-3.1408894039937447,1.3123375289610468
1970-01-01 00:00:00.000000000,0.5818250929270437,0.5600405393416308,-3.03379483872633,1.2909819935866607
1970-01-01 00:00:00.000000000,0.5633319602615909,0.6187646745547654,-2.8410190737597563,1.275710583389627
1970-01-01 00:00:00.000000001,0.5749754525540349,0.6987150994705469,-2.6216107269535716,1.2562953014202483
1970-01-01 00:00:00.000000001,0.5980685982325618,0.7862342358527052,-2.402779329283991,1.2349358973132167
1970-01-01 00:00:00.000000001,0.6050748091107725,0.8576597262125808,-2.1753807060540953,1.2160065013501404
1970-01-01 00:00:00.000000001,0.6286444086097546,0.9272446669742048,-2.02583343908936,1.204888051881246
1970-01-01 00:00:00.000000001,0.7351275453656844,1.004335965485893,-1.9457324659636832,1.1933427004918942
1970-01-01 00:00:00.000000001,0.8536374191475663,1.056431050906178,-1.892338492168815,1.1829516288146213
1970-01-01 00:00:00.000000001,0.9472594486012116,1.1408223471270889,-1.7758868844481457,1.1688533333024902
1970-01-01 00:00:00.000000001,1.058101579773618,1.2179287873143683,-1.5844509221419731,1.1492269537952107
1970-01-01 00:00:00.000000001,1.1688316676803057,1.2073365898038695,-1.290206333942143,1.1253382162646315
1970-01-01 00:00:00.000000001,1.2122994426667058,1.1949340687666623,-0.936345162919288,1.100661934379886
1970-01-01 00:00:00.000000001,1.2322584588414345,1.234485642286252,-0.5625106894883788,1.0721185050359807
1970-01-01 00:00:00.000000001,1.238441667854157,1.2761777478181455,-0.11144397841088288,1.0375192941011047
1970-01-01 00:00:00.000000001,1.1983327179932113,1.2412828490854706,0.32249257267627673,1.010853853629019
1970-01-01 00:00:00.000000001,1.1448864145755722,1.1693823438865638,0.7496666070674166,0.9874400379329143
1970-01-01 00:00:00.000000001,1.0791321303166197,1.0955886586999701,1.1820540409921472,0.9645575110612856
1970-01-01 00:00:00.000000001,1.003450602939957,1.005887385856426,1.5101684445644856,0.950970823219103
1970-01-01 00:00:00.000000001,0.9565630401393049,0.9854074977399246,1.7645307005652477,0.9346735718241983
1970-01-01 00:00:00.000000001,0.8707057531135713,0.9400874818932434,1.972132899469008,0.926170162459518
1970-01-01 00:00:00.000000001,0.8038527622120677,0.9468121934624103,2.032915265182815,0.9227606123210825
1970-01-01 00:00:00.000000001,0.7411240536138965,1.0024387894839446,2.0451763083590633,0.9179455357552617
1970-01-01 00:00:00.000000001,0.6461277600736492,1.1249046577017587,1.9427145956095175,0.9186205058220829
1970-01-01 00:00:00.000000001,0.5692671322779282,1.3462186057397147,1.8843494103741365,0.9120218763706243
1970-01-01 00:00:00.000000001,0.5632868462323328,1.5985165133289794,2.0602383005507363,0.8824710898967512
1970-01-01 00:00:00.000000001,0.5157184942112694,1.7007190725858443,2.3790765229388158,0.8526714869382164
1970-01-01 00:00:00.000000001,0.40370768728504125,1.468206200091492,2.8221355723999313,0.8379489286913375
1970-01-01 00:00:00.000000001,0.23757434951933093,0.9586655872367121,3.3364011892115393,0.8407489627336128
1970-01-01 00:00:00.000000001,0.07768516556088129,0.3647986440262181,3.7097305250380983,0.8622891714960623
1970-01-01 00:00:00.000000001,0.014942004183267965,-0.2144262775509887,3.970998907794967,0.8867167062913901
1970-01-01 00:00:00.000000001,-0.012190260619371118,-0.8568234680248092,4.054724655304003,0.9275286859028362
1970-01-01 00:00:00.000000001,0.025851839505731694,-1.3919113762646729,3.784462768267251,0.9854359135928219
1970-01-01 00:00:00.000000001,0.1793034894353645,-1.6626349172176014,3.1879188618154934,1.04237187266044
1970-01-01 00:00:00.000000001,0.38017653280118513,-1.6226888563601543,2.415889033001516,1.086129298142953
1970-01-01 00:00:00.000000001,0.5541463933321867,-1.371956930022317,1.5690923037096811,1.1121085693369843
1970-01-01 00:00:00.000000001,0.7183608030850299,-1.0652923739568783,0.8044590474453339,0.8466400718945728
1970-01-01 00:00:00.000000001,0.7585318175381308,-0.8338079647759375,0.20843117935177738,0.8572765595261358
1970-01-01 00:00:00.000000001,0.7452758802726093,-0.6804671215755131,-0.15976165152941507,0.86985657440123
1970-01-01 00:00:00.000000001,0.7006514164668225,-0.5954072592008108,-0.32859871208388214,0.8752219935413854
1970-01-01 00:00:00.000000001,0.6319541415744646,-0.5792651070920513,-0.3961398049810781,0.880375006642712
1970-01-01 00:00:00.000000001,0.5746364469627612,-0.6064053546598568,-0.42883074478050653,0.8862224491087733
1970-01-01 00:00:00.000000001,0.5484833349233479,-0.7683310951938033,-0.15694193056232333,0.8759534784966558
1970-01-01 00:00:00.000000001,0.4353519897412879,-1.081606229187256,0.24832660598335762,0.8744234423587228
1970-01-01 00:00:00.000000001,0.3755261053998897,-1.3386398861485904,0.4581574988264981,0.8828506575745906
1970-01-01 00:00:00.000000001,0.412621919106726,-1.4400243428209252,0.49357221633585086,0.8871646518311942
1970-01-01 00:00:00.000000001,0.4518451702141027,-1.516330201519032,0.39397951073883575,0.8992560960372247
1970-01-01 00:00:00.000000001,0.5126482100587769,-1.5277548967907428,0.11701077501491294,0.918860128248284
1970-01-01 00:00:00.000000001,0.6080784032129068,-1.5069059786267482,-0.2585425521319141,0.9390873855429238
1970-01-01 00:00:00.000000001,0.6707263038924272,-1.4410595031388225,-0.6300126595839357,0.9571202900755266
1970-01-01 00:00:00.000000001,0.7064852112444344,-1.3816269489995818,-0.9817255995124796,0.9762080892903813
1970-01-01 00:00:00.000000001,0.7496503756909847,-1.322448571503414,-1.3361589789065103,0.9938916547834853
1970-01-01 00:00:00.000000001,0.7662647523926265,-1.222936126952269,-1.743018476322976,1.0133889301762844
1970-01-01 00:00:00.000000001,0.7755062473575057,-1.08979268772887,-2.118305713334864,1.0276176141273596
1970-01-01 00:00:00.000000001,0.7478871608634984,-0.9463568344533181,-2.446126176444469,1.040370244208546
1970-01-01 00:00:00.000000001,0.7248217130623839,-0.7801995950526783,-2.7454588032077987,1.0469952126335995
1970-01-01 00:00:00.000000001,0.649809245205192,-0.6033553215575764,-2.915584599754554,1.0471513929823142
1970-01-01 00:00:00.000000001,0.5583313268402387,-0.49388000229378237,-2.9588113054569773,1.0455804682692795
1970-01-01 00:00:00.000000001,0.4944158371430458,-0.42731481320026876,-2.9182307204095523,1.0405851631347312
1970-01-01 00:00:00.000000001,0.45084327094932714,-0.36346078507531365,-2.903258976562764,1.033352091078875
1970-01-01 00:00:00.000000001,0.3503028574433338,-0.27210073405103663,-2.8557359970029004,1.026920931449248
1970-01-01 00:00:00.000000001,0.27929273586495185,-0.21782261094733693,-2.6861765191602105,1.0119234670783768
1970-01-01 00:00:00.000000001,0.171455410658917,-0.20486174472908986,-2.5167820035247943,1.0022346821371357
1970-01-01 00:00:00.000000001,0.0797360541726395,-0.17165343801591398,-2.375146517287034,0.9931779950187335
1970-01-01 00:00:00.000000001,0.012635496544741817,-0.0668480860451276,-2.2492409675696017,0.9794781646963912
1970-01-01 00:00:00.000000001,-0.04501404099035369,0.07305919586041441,-2.1480555260293244,0.9620105185189489
1970-01-01 00:00:00.000000001,-0.1602915191913349,0.1945182822684786,-2.093186327229973,0.9528517289796166
1970-01-01 00:00:00.000000001,-0.25498880718468764,0.3025205629120233,-1.9943891716564301,0.9415462871264293
1970-01-01 00:00:00.000000001,-0.3315835565779446,0.37844160964913615,-1.8504166142006608,0.9267767023991672
1970-01-01 00:00:00.000000001,-0.44210698664301284,0.446166122884217,-1.686096186491845,0.9151618885928623
1970-01-01 00:00:00.000000001,-0.5168018784476895,0.4937877602613013,-1.5984363690425587,0.9113123273169172
1970-01-01 00:00:00.000000001,-0.507609764397383,0.5504562944705017,-1.557332887357655,0.9075978249357052
1970-01-01 00:00:00.000000001,-0.43493498090349575,0.6195391354612396,-1.4485446445951295,0.8978098766383303
1970-01-01 00:00:00.000000001,-0.3000174567406641,0.6762285328571407,-1.304244346836677,0.8853709998455966
1970-01-01 00:00:00.000000001,-0.10359430605380951,0.7009130125613744,-1.203770959115328,0.8724628657448097
1970-01-01 00:00:00.000000001,0.06475125282257604,0.6349919732007027,-1.0610023823764472,0.8606695278372093
1970-01-01 00:00:00.000000001,0.16251554363741785,0.615017028142972,-0.7721466007633669,0.8397351358174336
1970-01-01 00:00:00.000000001,0.233964528802914,0.6609413691287607,-0.34648225576523173,0.8056267073749452
1970-01-01 00:00:00.000000001,0.2725772688744928,0.7741456304103104,0.21087138717887188,0.7589056410550792
1970-01-01 00:00:00.000000001,0.27485732393315443,0.9593745945502685,0.758393652195351,0.7061835293849882
1970-01-01 00:00:00.000000001,0.19160920811713744,1.171333352218747,1.3081221518673718,0.6533885677836919
1970-01-01 00:00:00.000000001,0.032649239612353664,1.28318362398344,1.9274621568511279,0.6048394950743227
1970-01-01 00:00:00.000000001,-0.18197679044393295,1.308330144462267,2.5670617322411657,0.5639574340232527
1970-01-01 00:00:00.000000001,-0.40771824921331595,1.1539514411772052,3.245425778339748,0.5372063739051001
1970-01-01 00:00:00.000000001,-0.5444261516695561,0.8755062563886321,3.8365817719985924,0.5207361361532585
1970-01-01 00:00:00.000000001,-0.6440139063542509,0.6782593558041141,4.035823940110536,0.51918516239337
1970-01-01 00:00:00.000000001,-0.8151980181167864,0.4330291839994867,3.876197444662923,0.5457700678170138
1970-01-01 00:00:00.000000001,-1.0367477927168864,0.07765762200731141,3.685636075613537,0.5837096641633962
1970-01-01 00:00:00.000000001,-1.2802318609320973,-0.244455015150982,3.727794971553547,0.6091832249178889
1970-01-01 00:00:00.000000001,-1.4625786776682341,-0.47825897004300566,3.914512217373162,0.6168954553327047
1970-01-01 00:00:00.000000001,-1.6285060522635306,-0.6417854411766604,3.990786632355271,0.6267197895708336
1970-01-01 00:00:00.000000001,-1.7793408703029967,-0.8047116278161737,3.88196317012981,0.652749162662642
1970-01-01 00:00:00.000000001,-1.818501617253085,-0.9429590351260664,3.464688435883549,0.6929510627266743
1970-01-01 00:00:00.000000001,-1.7998844811831185,-1.0232713441590722,2.7965355751544854,0.741814493058226
1970-01-01 00:00:00.000000001,-1.7903435074355412,-1.0268067185158642,1.9503326319405998,0.7975747741707054
1970-01-01 00:00:00.000000001,-1.7817200771350756,-0.9479905173150461,1.1149650256959482,0.8481979336772423
1970-01-01 00:00:00.000000001,-1.7588612964297619,-0.8365386180604653,0.38612169277992414,0.889142051716982
1970-01-01 00:00:00.000000001,-1.728924929148512,-0.6802177121983106,-0.2313448625187893,0.9199459064726934
1970-01-01 00:00:00.000000001,-1.6879488192512058,-0.5874656693739084,-0.6905590388672103,0.9442453506379742
1970-01-01 00:00:00.000000001,-1.6400894746843482,-0.588731952011081,-1.0711257780097747,0.9702759553109644
1970-01-01 00:00:00.000000001,-1.5662339618256225,-0.6115970151949154,-1.5331369476663597,1.0028794481606185
1970-01-01 00:00:00.000000001,-1.4476612711610095,-0.5585198231164656,-1.9577041738467247,1.0263107658331336
1970-01-01 00:00:00.000000001,-1.3130564077176659,-0.4400147287641425,-2.2964522660097457,1.0389086951916613
1970-01-01 00:00:00.000000002,-1.1811620793454618,-0.34916091388950343,-2.573790068790547,1.0499149296398236
1970-01-01 00:00:00.000000002,-1.0317929011402005,-0.2912520779856129,-2.7498017230682397,1.057846259022587
1970-01-01 00:00:00.000000002,-0.8357467154290257,-0.2602769477809068,-2.916488210110718,1.0692762935834432
1970-01-01 00:00:00.000000002,-0.5188566114508902,-0.27679472908996505,-3.0359491669121588,1.0750184364116127
1970-01-01 00:00:00.000000002,-0.16239339241697226,-0.39720657272685933,-2.9881651315962676,1.0751696401236135
1970-01-01 00:00:00.000000002,0.2306339482134449,-0.6509819579402983,-2.597708609592085,1.0543366091931363
1970-01-01 00:00:00.000000002,0.5079277514085834,-0.8475691320698913,-1.9432301677986712,1.0266299533546677
1970-01-01 00:00:00.000000002,0.9120819585101404,-0.6827885670331663,-1.943909880058417,1.0182421579686978
1970-01-01 00:00:00.000000002,1.5195995253685168,-0.10183490396509262,-2.5564493199180696,1.004769571332907
1970-01-01 00:00:00.000000002,2.0250186058891977,0.37016326691071777,-2.7683046507943696,0.9754273606270792
1970-01-01 00:00:00.000000002,2.4561037064428954,0.7672065995096284,-2.766812762574765,0.9307066402255795
1970-01-01 00:00:00.000000002,2.6413213703242144,1.0387879784966956,-2.7412668800768416,0.900998969783233
1970-01-01 00:00:00.000000002,2.6966810246503576,1.2053110524534765,-2.5721507669476313,0.8744817621462557
1970-01-01 00:00:00.000000002,2.684530323352283,1.3440154796519903,-2.3673987856044,0.8523876357427007
1970-01-01 00:00:00.000000002,2.6828901956013875,1.4744036578573763,-2.2063196846640385,0.8342551482859828
1970-01-01 00:00:00.000000002,2.703954030629768,1.5611037513394157,-2.1070122314824067,0.821695822493283
1970-01-01 00:00:00.000000002,2.727352624660276,1.5862164268640528,-2.0221917668037324,0.8153248432620707
1970-01-01 00:00:00.000000002,2.7833937918276592,1.578543453529693,-1.9303617926786794,0.8068526107945447
1970-01-01 00:00:00.000000002,2.7998695101005975,1.5584704520001238,-1.8235630019581572,0.7966832674252977
1970-01-01 00:00:00.000000002,2.7384622246917685,1.5214375567892333,-1.5345604538759798,0.777848401676298
1970-01-01 00:00:00.000000002,2.6144559575049353,1.5122541761666395,-1.1176586578359018,0.750108158364343
1970-01-01 00:00:00.000000002,2.428399211098144,1.5044677883723958,-0.6971807190309948,0.7230884484955454
1970-01-01 00:00:00.000000002,2.1854720443677005,1.4821885543545328,-0.33240831153442657,0.7000663811541628
1970-01-01 00:00:00.000000002,1.850834369265293,1.4706943078262127,-0.0717725637724041,0.6877489569651086
1970-01-01 00:00:00.000000002,1.4934375510996551,1.485266598296077,0.1532579310224259,0.6808382839188966
1970-01-01 00:00:00.000000002,1.2057400326735999,1.5521123732204485,0.38034522843055174,0.6684672215699429
1970-01-01 00:00:00.000000002,0.9621609830545348,1.6562392372679218,0.6005349952143547,0.6552224427536343
1970-01-01 00:00:00.000000002,0.8084940094349267,1.7256934379302913,0.8934460472738441,0.6348591233671881
1970-01-01 00:00:00.000000002,0.6206059033012725,1.582161333601979,1.4171860279312596,0.683625620584531
1970-01-01 00:00:00.000000002,0.4648986842946268,1.2735433074450437,2.151457444991873,0.6616397537464336
1970-01-01 00:00:00.000000002,0.3306330731710904,0.9542234150719013,2.822880434507035,0.6390895614364047
1970-01-01 00:00:00.000000002,0.1623745692218453,0.7127225970167053,3.2885479842185044,0.6237384857663656
1970-01-01 00:00:00.000000002,-0.0723779646886738,0.6466234764550497,3.575251911468397,0.616912709540753
1970-01-01 00:00:00.000000002,-0.21857440665126066,0.7610898981112737,3.7582322562700505,0.605609685885248
1970-01-01 00:00:00.000000002,-0.236836841137746,0.9409253398323925,3.935140575106115,0.580396759853549
1970-01-01 00:00:00.000000002,-0.315213642999496,0.8434347638736117,4.190103758105472,0.572369699880587
1970-01-01 00:00:00.000000002,-0.3745710837257117,0.23684007697951331,4.602687685965894,0.5863383123561141
1970-01-01 00:00:00.000000002,-0.4223066118494499,-0.6556745027421595,5.125541945658411,0.6095692996287
1970-01-01 00:00:00.000000002,-0.5142999679493834,-1.4750478550245423,5.501948642804571,0.6447629568215956
1970-01-01 00:00:00.000000002,-0.5178567886772687,-2.0893374833907576,5.508351509594667,0.6880370172935302
1970-01-01 00:00:00.000000002,-0.4700033652434295,-2.429659116545403,4.980947196232112,0.7473679732938656
1970-01-01 00:00:00.000000002,-0.3577409495013548,-2.505798794293024,4.232882657714485,0.8042845138924024
1970-01-01 00:00:00.000000002,-0.15644433410535905,-2.4041224614264465,3.3796704299987033,0.8488261529502545
1970-01-01 00:00:00.000000002,-0.0003950498944117198,-2.189797165838912,2.483929450632701,0.887458497356164
1970-01-01 00:00:00.000000002,0.0867885617116823,-1.9862326146071076,1.9205931387012827,0.904448060492731
1970-01-01 00:00:00.000000002,0.057805620679029716,-1.8700649611595794,1.6905037616953424,0.9087839865504901
1970-01-01 00:00:00.000000002,-0.061521484116706826,-1.774343095147844,1.454186668626642,0.9216242011336966
1970-01-01 00:00:00.000000002,-0.1417722760330628,-1.6382731887620205,1.2214617102941663,0.931721246338997
1970-01-01 00:00:00.000000002,-0.1819916754472215,-1.5530284410146808,0.9312840697278725,0.948580393640769
1970-01-01 00:00:00.000000002,-0.16635011596295438,-1.5641965770237427,0.6525063139690069,0.9669739067818924
1970-01-01 00:00:00.000000002,-0.16175907266056594,-1.6620511334975219,0.45461441256416846,0.9856694778086885
1970-01-01 00:00:00.000000002,-0.17960081126888436,-1.7535361500084496,0.1797307026644453,1.0114762546631078
1970-01-01 00:00:00.000000002,-0.17042356563871558,-1.7751701111912797,-0.19363063508480305,1.0401705868440723
1970-01-01 00:00:00.000000002,-0.10922581579847054,-1.7342800233848792,-0.7159810211829385,1.0726328021075549
1970-01-01 00:00:00.000000002,-0.013309858818587844,-1.675918162055272,-1.2633845787093148,1.1031138114146763
1970-01-01 00:00:00.000000002,0.07382810931916542,-1.6519178289843526,-1.7818100808454473,1.1327590124212987
1970-01-01 00:00:00.000000002,0.1321434833047855,-1.5613821580981264,-2.231006541693624,1.15358696959398
1970-01-01 00:00:00.000000002,0.14924693655038518,-1.41063966656789,-2.610605771785191,1.1665763229228687
1970-01-01 00:00:00.000000002,0.12226409032456023,-1.248506240611269,-2.97796669788288,1.1790827311566214
1970-01-01 00:00:00.000000002,0.06442531056535072,-1.0851096996800793,-3.330575940796308,1.1903029317717047
1970-01-01 00:00:00.000000002,-0.03316736473864293,-0.8746656086975269,-3.5227936615641813,1.1916128519421774
1970-01-01 00:00:00.000000002,-0.11696889707481559,-0.6331025314114397,-3.6370937176948726,1.1887296576182846
1970-01-01 00:00:00.000000002,-0.1189387854278375,-0.4965784405852772,-3.70621241737145,1.184338585786921
1970-01-01 00:00:00.000000002,-0.11653782805452634,-0.44666980146731616,-3.60279598841051,1.1739841047618378
1970-01-01 00:00:00.000000002,-0.12443626002446304,-0.46669329279064586,-3.4724663634706903,1.1677715322338438
1970-01-01 00:00:00.000000002,-0.10806745115805447,-0.40804904923365365,-3.407795770651739,1.1595737034078657
1970-01-01 00:00:00.000000002,-0.08475734981295979,-0.35196037538331215,-3.3393487829915047,1.1471155041227548
1970-01-01 00:00:00.000000002,-0.14368064216409618,-0.32695936953382326,-3.2366996535369554,1.1381930076980207
1970-01-01 00:00:00.000000002,-0.22333371072893488,-0.24549928606550292,-3.0710985465419167,1.122265402897602
1970-01-01 00:00:00.000000002,-0.3219007186034822,-0.17035945957793278,-2.8017992084380343,1.101861148403549
1970-01-01 00:00:00.000000002,-0.4073162525760646,-0.2083288430474659,-2.431602801793814,1.0815892666989777
1970-01-01 00:00:00.000000002,-0.4963362084821622,-0.2872155245953797,-2.1841726618866795,1.0760792137866213
1970-01-01 00:00:00.000000002,-0.48508018808700976,-0.26261613962679353,-2.0071848877455314,1.0641500701503086
1970-01-01 00:00:00.000000002,-0.4467176253000894,-0.21351840655754376,-1.9199174684721867,1.053600902251719
1970-01-01 00:00:00.000000002,-0.4306578785769314,-0.14202136766314932,-1.9702272912397654,1.0511601436193538
1970-01-01 00:00:00.000000002,-0.4227627617288404,0.040651350913666034,-2.1145095237403426,1.0471592299414947
1970-01-01 00:00:00.000000002,-0.4347349769428414,0.24245275420264853,-2.1186849378789594,1.032710359881052
1970-01-01 00:00:00.000000002,-0.4822065841920432,0.37607487042041216,-1.9694819411289899,1.0142487279189891
1970-01-01 00:00:00.000000002,-0.539920604075319,0.4946046462281383,-1.7242915735241109,0.9927675762208379
1970-01-01 00:00:00.000000002,-0.5653716033691008,0.6010389522015379,-1.4636021695597834,0.970990587715364
1970-01-01 00:00:00.000000002,-0.5446657176051729,0.6473264655812517,-1.1290876022221787,0.9455840776713634
1970-01-01 00:00:00.000000002,-0.5218308133518917,0.6788278409039795,-0.7197108680272958,0.9195581150326981
1970-01-01 00:00:00.000000002,-0.43157182598346855,0.6408364669455522,-0.34329460639546844,0.9000226395403399
1970-01-01 00:00:00.000000002,-0.2511793974611834,0.570414623112294,-0.1025856481639784,0.8854373922523708
1970-01-01 00:00:00.000000002,-0.06955098784778609,0.5623419952590967,0.12546574414077352,0.8664969726558784
1970-01-01 00:00:00.000000002,0.08382882789924484,0.640588094891468,0.26792958597302796,0.845476098674014
1970-01-01 00:00:00.000000002,0.1628249893717535,0.7836504138737667,0.40874692419417236,0.8191979218151978
1970-01-01 00:00:00.000000002,0.11147562443903011,0.9849432752936187,0.4852075628630204,0.7975643691391876
1970-01-01 00:00:00.000000002,-0.015908595666975278,1.3106666861279503,0.4427059401813984,0.7736150952263714
1970-01-01 00:00:00.000000002,-0.27882212137265966,1.7389219441384167,0.5537175160121875,0.7336342791597614
1970-01-01 00:00:00.000000002,-0.7223647742543571,2.2376924930719824,0.8551336796102782,0.6897035127593465
1970-01-01 00:00:00.000000002,-1.128372126925656,2.873513038986726,1.229629503646935,0.6408246187336396
1970-01-01 00:00:00.000000002,-1.3051609122857397,3.5150377172156007,1.5127410765030636,0.5881657339044553
1970-01-01 00:00:00.000000002,-1.3810599762326383,3.7874623106017777,1.86933654670309,0.5523335646634973
1970-01-01 00:00:00.000000003,-1.366564657976942,3.401691556876205,2.6145925723243675,0.537813783063495
1970-01-01 00:00:00.000000003,-1.121914524688259,2.526293901053016,3.9427470820520667,0.4944491372576625
1970-01-01 00:00:00.000000003,-1.0886469173274091,1.1447035603987037,5.676038431925032,0.45649909494642327
1970-01-01 00:00:00.000000003,-1.381281835901462,-0.27574295614652555,6.903845394065263,0.48230762364672664
1970-01-01 00:00:00.000000003,-1.4847964533249856,-1.175011177429137,7.142539406762755,0.5382853256504139
1970-01-01 00:00:00.000000003,-1.3630072444721175,-1.4560452854860668,6.438232137483134,0.6026361010779022
1970-01-01 00:00:00.000000003,-1.2206018734965824,-1.5053616379621435,5.322578198014487,0.6734656793950629
1970-01-01 00:00:00.000000003,-1.1634687102606633,-1.574006103493953,4.136092044905825,0.753376461796127
1970-01-01 00:00:00.000000003,-1.150910393700976,-1.632527726781052,2.9621824440363094,0.8357006019034547
1970-01-01 00:00:00.000000003,-1.1171601054045452,-1.711259331195845,1.8858171324731872,0.9112493612052937
1970-01-01 00:00:00.000000003,-1.0908708747777605,-1.9227238845037484,1.103630463742781,0.9745088648520109
1970-01-01 00:00:00.000000003,-1.1128973889682614,-2.131446555659917,0.4830443833273517,1.0290553677539613
1970-01-01 00:00:00.000000003,-1.1381919575988642,-2.1882697086891882,0.12663129572054638,1.0557758573392777
1970-01-01 00:00:00.000000003,-1.1962266940042556,-2.168493969458828,-0.030657789383261247,1.0679607731053848
1970-01-01 00:00:00.000000003,-1.2230777463518028,-2.117900845969347,-0.21122498833884407,1.0800580204453796
1970-01-01 00:00:00.000000003,-1.193779640455928,-2.068018091896882,-0.47560611594880386,1.0981429419460822
1970-01-01 00:00:00.000000003,-1.0755574077691628,-1.9764973108850719,-0.8880498179174315,1.119618119669795
1970-01-01 00:00:00.000000003,-0.9072405169377457,-1.851916559336364,-1.3062462251580456,1.1347654150116564
1970-01-01 00:00:00.000000003,-0.7782032533851455,-1.6976292160360105,-1.8029776861890743,1.15439504401516
1970-01-01 00:00:00.000000003,-0.6601925893660641,-1.4082885640839489,-2.2983675923949485,1.1674108661592095
1970-01-01 00:00:00.000000003,-0.5152371422573817,-1.077024124738697,-2.7538094189826685,1.1725626149848782
1970-01-01 00:00:00.000000003,-0.3915101625813584,-0.7910964792898075,-3.1742203955660453,1.1797724462131285
1970-01-01 00:00:00.000000003,-0.2594918627609759,-0.5846430290858888,-3.5022034743002846,1.1869576029793114
1970-01-01 00:00:00.000000003,-0.09552291926597906,-0.4835319882694741,-3.6245400927819724,1.1865425351974905
1970-01-01 00:00:00.000000003,0.0864679643903378,-0.4496148615465874,-3.5892732381695867,1.1785230232058392
1970-01-01 00:00:00.000000003,0.25466762520791275,-0.42695618363192817,-3.556724247940359,1.1704185644261929
1970-01-01 00:00:00.000000003,0.3909753394718735,-0.3980744032803731,-3.5121537629849473,1.1606322927460266
1970-01-01 00:00:00.000000003,0.475303533173601,-0.39785628674165835,-3.3482309344567067,1.1475761411225676
1970-01-01 00:00:00.000000003,0.5461120958718895,-0.3467514587454704,-3.1427875873472875,1.128943780771686
1970-01-01 00:00:00.000000003,0.6030963696682877,-0.24427917630849022,-3.036880000842429,1.1117862460001051
1970-01-01 00:00:00.000000003,0.6115060367962409,-0.09859271140644382,-2.9527788452209855,1.0972048346179815
1970-01-01 00:00:00.000000003,0.6379410974215675,0.09475897634227941,-2.925665812116356,1.0829536799027408
1970-01-01 00:00:00.000000003,0.6775055819482401,0.2804097620922648,-2.916873392476415,1.0735955954097791
1970-01-01 00:00:00.000000003,0.7658960506745975,0.38114956666995725,-2.9250708182258136,1.1166987458918622
1970-01-01 00:00:00.000000003,0.8760741538097866,0.41685287511552893,-2.9038143625015693,1.1111538439932342
1970-01-01 00:00:00.000000003,0.953467913868736,0.464185134767614,-2.8876098959981973,1.1024210784475756
1970-01-01 00:00:00.000000003,0.9773162000361293,0.6596714636463614,-2.7681271294134486,1.0753999373313672
1970-01-01 00:00:00.000000003,0.8821350656628021,0.8216775354973291,-2.2520894463516563,1.0357693445163316
1970-01-01 00:00:00.000000003,0.8448611764681389,0.8907912264338033,-1.7981186904289919,1.0082005594656198
1970-01-01 00:00:00.000000003,0.9357748869825379,0.9132822771738783,-1.6135184962726072,0.9969014232176816
1970-01-01 00:00:00.000000003,1.132624438264386,0.948656963751831,-1.3360540024404852,0.9666235371064684
1970-01-01 00:00:00.000000003,1.198695467761486,1.0204669478657766,-0.8899283658802554,0.9246042456009492
1970-01-01 00:00:00.000000003,1.1365652197115266,1.0953268592034262,-0.20063564574707646,0.8667262879022393
1970-01-01 00:00:00.000000003,0.8981413580683204,0.8827677269294605,0.9271754070118636,0.8090739672659342
1970-01-01 00:00:00.000000003,0.6490440404502995,0.7516872977741733,2.246657164949603,0.7432153213639723
1970-01-01 00:00:00.000000003,0.5558069053223611,0.7271693073279795,3.0469480409821554,0.6997786671197739
1970-01-01 00:00:00.000000003,0.5913662152839908,0.7850184690480273,3.4240744105356136,0.681602123040693
1970-01-01 00:00:00.000000003,0.8738168715161272,1.0490503398470508,3.4837820263575434,0.6618586010607084
1970-01-01 00:00:00.000000003,1.2736722295210203,1.379486507358497,3.2281861016540443,0.6563848693382135
1970-01-01 00:00:00.000000003,1.7975336604510985,1.6729174166105178,2.653074776079774,0.6640238920529216
1970-01-01 00:00:00.000000003,2.314204411516438,1.520345143180737,2.8858942545549295,0.6309805813495462
1970-01-01 00:00:00.000000003,2.391291970706864,0.5071153169483046,3.646783964582212,0.6308246352674526
1970-01-01 00:00:00.000000003,2.159250061523792,-0.6999645331968286,4.455539841544766,0.6572105864553573
1970-01-01 00:00:00.000000003,1.879539581730404,-1.4786780504368366,5.080271419952292,0.6689998250566553
1970-01-01 00:00:00.000000003,1.5291282957101384,-1.8296939060468689,5.356437419718002,0.6780925758289977
1970-01-01 00:00:00.000000003,1.1256213967005348,-1.9802502800272288,5.236346045235251,0.709965818331475
1970-01-01 00:00:00.000000003,0.8795344334705497,-1.7579660205735599,4.6540034357484545,0.7477411164393135
1970-01-01 00:00:00.000000003,0.8402968488490948,-1.313845230915756,3.8427337645161885,0.7776903332768687
1970-01-01 00:00:00.000000003,0.8916196624266952,-1.032514494425199,3.0331489259152473,0.8108975649665422
1970-01-01 00:00:00.000000003,0.9272232156409277,-0.9670127901753751,2.3993205635847668,0.8412362124128198
1970-01-01 00:00:00.000000003,0.8328739615363607,-0.997119502800076,2.078217628383309,0.8598504708932022
1970-01-01 00:00:00.000000003,0.6136901789614783,-1.0922649896098742,2.0755041985814127,0.8653342607241862
1970-01-01 00:00:00.000000003,0.28863951195147164,-1.2515652233675105,2.2028657266139695,0.8743035251627133
1970-01-01 00:00:00.000000003,-0.014815090353097402,-1.4216188516609407,2.1802476096477252,0.896897071524767
1970-01-01 00:00:00.000000003,-0.21553381617217626,-1.4279717968985697,1.8679917084539692,0.9237483437890783
1970-01-01 00:00:00.000000003,-0.3751483974084282,-1.3421352526840842,1.2970129305257407,0.9634515859004283
1970-01-01 00:00:00.000000003,-0.42689006736841073,-1.2748488284661126,0.6861886128466619,1.0019346358318761
1970-01-01 00:00:00.000000003,-0.4481908284062172,-1.2554032309803318,0.053459501254756986,1.0398224296846101
1970-01-01 00:00:00.000000003,-0.5398505301614515,-1.2362309899039787,-0.6079746608693509,1.0857373469552292
1970-01-01 00:00:00.000000003,-0.5853555317293744,-1.1504658215980557,-1.2464076698981985,1.125112576139356
1970-01-01 00:00:00.000000003,-0.5922565230133924,-1.0881869242414,-1.8068731573798822,1.1581204410132682
1970-01-01 00:00:00.000000003,-0.6099650149202531,-1.0580564660283565,-2.3666429124671344,1.1943229613140953
1970-01-01 00:00:00.000000003,-0.6022241654890802,-0.9758291978745808,-2.8389770185830905,1.2197669383207463
1970-01-01 00:00:00.000000003,-0.6035265153873377,-0.9186096822341212,-3.165014394925045,1.2377655309010571
1970-01-01 00:00:00.000000003,-0.6081611876204855,-0.8979429605136849,-3.4377223824600924,1.2562506211445994
1970-01-01 00:00:00.000000003,-0.5765017449059929,-0.8628202664219609,-3.690459946283988,1.2716901884203473
1970-01-01 00:00:00.000000003,-0.5108050663371677,-0.8259062302353766,-3.882398164563775,1.2793414320523548
1970-01-01 00:00:00.000000003,-0.4806053310596202,-0.7998171211378211,-3.9974596681426213,1.2850182689923466
1970-01-01 00:00:00.000000003,-0.44332825743442894,-0.776419554389925,-4.0562763891910905,1.2865472800406135
1970-01-01 00:00:00.000000003,-0.40881370752624924,-0.7107724098569199,-4.06926440248361,1.2821556928411895
1970-01-01 00:00:00.000000003,-0.3787915710787651,-0.604559483504345,-4.00398644962387,1.2691914181178654
1970-01-01 00:00:00.000000003,-0.37474541860445865,-0.47265749941177687,-3.8986935920122625,1.2533477048935382
1970-01-01 00:00:00.000000003,-0.37136618537727195,-0.37131954726392163,-3.7248670813574956,1.2347290305612137
1970-01-01 00:00:00.000000003,-0.3718036761710327,-0.3044284332400854,-3.4241757611660906,1.2105369269370154
1970-01-01 00:00:00.000000003,-0.3704920410736271,-0.24176629649885745,-3.12139661640744,1.1839088136614955
1970-01-01 00:00:00.000000003,-0.4218708264562173,-0.19361368586009162,-2.823884995465818,1.162307891496111
1970-01-01 00:00:00.000000003,-0.4628043649750224,-0.16680906979329949,-2.554504109239322,1.1450573718675674
1970-01-01 00:00:00.000000003,-0.46635915641237674,-0.06338719673449844,-2.4008819521713836,1.1287441139564511
1970-01-01 00:00:00.000000003,-0.4574460012030405,0.11195727199289837,-2.362706085356952,1.1152951821914607
1970-01-01 00:00:00.000000003,-0.4296705964869125,0.327327340735013,-2.401088552274044,1.10297856860899
1970-01-01 00:00:00.000000003,-0.40294073061247193,0.5234591214715671,-2.4191066324230883,1.090363327074162
1970-01-01 00:00:00.000000003,-0.3803515473514694,0.6652647398940374,-2.3055947222526156,1.0736860264938415
1970-01-01 00:00:00.000000003,-0.34628687930765367,0.7168692556288193,-2.0537704684361713,1.0549987514246857
1970-01-01 00:00:00.000000004,-0.26818251164201345,0.68100862135902,-1.6554044662490823,1.029742684451366
1970-01-01 00:00:00.000000004,-0.19765161006612716,0.5555265308502265,-1.2569871105035508,1.010875701751465
1970-01-01 00:00:00.000000004,-0.11735532933094892,0.42336986123497067,-0.9280853677089266,0.9967223756798175
1970-01-01 00:00:00.000000004,-0.02566085667678033,0.32571567938974105,-0.6010618607417217,0.9785433617031091
1970-01-01 00:00:00.000000004,0.028337662839794983,0.28766905816013477,-0.3838692964454532,0.9683229293799925
1970-01-01 00:00:00.000000004,0.13815529159679762,0.3579476527959158,-0.3468103814235155,0.9604334566224483
1970-01-01 00:00:00.000000004,0.2731950748556654,0.4854887817076372,-0.3714397876114198,0.9496105770078995
1970-01-01 00:00:00.000000004,0.3750421222273036,0.6268060263348162,-0.3055073110603002,0.9332676588191025
1970-01-01 00:00:00.000000004,0.46176743902375983,0.7196441756459084,-0.09588736470317394,0.9076454206251233
1970-01-01 00:00:00.000000004,0.4699027089156973,0.7204355642394678,0.383397312209374,0.8676665093977356
1970-01-01 00:00:00.000000004,0.3001183511518323,0.6721940995978688,0.8876928351343801,0.8370873370955947
1970-01-01 00:00:00.000000004,0.06950971801475081,0.6309172062071762,1.2864213177231256,0.8134626366912955
1970-01-01 00:00:00.000000004,-0.23292615896157132,0.6514262927220942,1.6345385681162,0.7929186414993233
1970-01-01 00:00:00.000000004,-0.5477834535677711,0.7474050900621609,2.1359324141869127,0.7628120397668556
1970-01-01 00:00:00.000000004,-0.7716057187840237,0.8154748905404503,2.8226003665146155,0.7176291469937323
1970-01-01 00:00:00.000000004,-0.990910444043761,0.7133031936576673,3.5171637208353674,0.6837201313954024
1970-01-01 00:00:00.000000004,-1.1758504780680321,0.4861611916739884,4.183269949497712,0.6629232173432256
1970-01-01 00:00:00.000000004,-1.247890833661474,0.2161750548543005,4.734250988917089,0.6459917733896814
1970-01-01 00:00:00.000000004,-1.3173756955620426,-0.16229098452791396,5.128650477343635,0.6436573534619527
1970-01-01 00:00:00.000000004,-1.4388671333110306,-0.5482517657866297,5.28909177068241,0.6601956046080097
1970-01-01 00:00:00.000000004,-1.567691663103608,-0.7564635717296699,5.0608704510628675,0.6933260541395241
1970-01-01 00:00:00.000000004,-1.6462960468952081,-0.8334121705705648,4.647262908358897,0.7301193207068086
1970-01-01 00:00:00.000000004,-1.6692737295656181,-0.8685985355713632,4.042294572731671,0.7746210662523509
1970-01-01 00:00:00.000000004,-1.659807431925369,-0.8540820924010162,3.259356752851383,0.8269746287655908
1970-01-01 00:00:00.000000004,-1.6112138622025052,-0.7479129092804603,2.4040428042313855,0.8750579235980492
1970-01-01 00:00:00.000000004,-1.5769904832157662,-0.6014256455038425,1.6379397740636596,0.9153890842531447
1970-01-01 00:00:00.000000004,-1.5464115246376775,-0.5122001318253421,1.0487104829853338,0.946485701938537
1970-01-01 00:00:00.000000004,-1.5519956276849294,-0.5213967194148941,0.6338244609058657,0.9739650256566189
1970-01-01 00:00:00.000000004,-1.5713047225710082,-0.548178581834203,0.3318826720156399,0.9955616645365222
1970-01-01 00:00:00.000000004,-1.6058910173148242,-0.5463034271167901,0.06012924650820135,1.016980443025025
1970-01-01 00:00:00.000000004,-1.581280150326109,-0.5048950510789488,-0.2612741170540216,1.0376881595830945
1970-01-01 00:00:00.000000004,-1.5062225857141758,-0.40601940259630537,-0.6846868575482583,1.0581023783408066
1970-01-01 00:00:00.000000004,-1.4258421784783457,-0.2921825159547895,-1.0598247336824453,1.074181321888945
1970-01-01 00:00:00.000000004,-1.3491465820279998,-0.21277195045743183,-1.4104443741521804,1.0925888535900508
1970-01-01 00:00:00.000000004,-1.2360469981308395,-0.14639701096031665,-1.7159102329908682,1.1096398236817335
1970-01-01 00:00:00.000000004,-1.062251783336921,-0.10908034076128893,-2.038264911891398,1.1262123537303672
1970-01-01 00:00:00.000000004,-0.8780303805662796,-0.08183398395064576,-2.3503041824330575,1.1426908958857753
1970-01-01 00:00:00.000000004,-0.6781653465463641,-0.049481984117515365,-2.618992772012478,1.1550560401779812
1970-01-01 00:00:00.000000004,-0.4788453472884092,-0.01183872054042151,-2.8701597952220195,1.1638220188053148
1970-01-01 00:00:00.000000004,-0.3252487252100437,0.007715667695297024,-3.0974425608128633,1.173676568938444
1970-01-01 00:00:00.000000004,-0.19621207812890745,-0.0027216329667339445,-3.233672728005532,1.1802209244562212
1970-01-01 00:00:00.000000004,-0.08800181847803656,0.03192800960680528,-3.348593327932553,1.183075121987207
1970-01-01 00:00:00.000000004,0.011742737037360645,0.14965701683250898,-3.3934680016913883,1.1753454568841444
1970-01-01 00:00:00.000000004,0.08329229424246448,0.24138995441649033,-3.29246420818943,1.161489686633923
1970-01-01 00:00:00.000000004,0.14754496288723312,0.20998648928049396,-3.1609508825554355,1.1546497823033
1970-01-01 00:00:00.000000004,0.2350713072769165,0.18369657247828422,-3.0477583044858942,1.1471647150803868
1970-01-01 00:00:00.000000004,0.3194034676247074,0.18961661992480158,-2.938727686272037,1.1362521403625703
1970-01-01 00:00:00.000000004,0.36059576359755446,0.15570263792680655,-2.8281387524236807,1.1290525103482045
1970-01-01 00:00:00.000000004,0.3730317140440768,0.1642646683716047,-2.7711085648946674,1.1257346665153383
1970-01-01 00:00:00.000000004,0.4169787099212138,0.2535749688596156,-2.7676609389792195,1.117574009522807
1970-01-01 00:00:00.000000004,0.4331261075370021,0.3633825092812166,-2.774613769101119,1.1075455722473626
1970-01-01 00:00:00.000000004,0.38975346618020557,0.4904351007787201,-2.714228507705533,1.0964977234052071
1970-01-01 00:00:00.000000004,0.3623686331152215,0.584033827355011,-2.553887323337506,1.0812205385077502
1970-01-01 00:00:00.000000004,0.3520490441827871,0.6235082567102145,-2.395699203503506,1.0691457984114467
1970-01-01 00:00:00.000000004,0.36072909490318417,0.6457311169167794,-2.2349491581611476,1.0584169949010702
1970-01-01 00:00:00.000000004,0.40845298487045595,0.7142825795877905,-2.0448773873025097,1.0388227066661704
1970-01-01 00:00:00.000000004,0.41547939388400723,0.7933592695288634,-1.823279561431321,1.0209157858645872
1970-01-01 00:00:00.000000004,0.46463171695797745,0.8095273193624181,-1.580561149672263,1.0066720965523352
1970-01-01 00:00:00.000000004,0.5875332597656614,0.77541796821666,-1.3903318647595437,0.9984293992124511
1970-01-01 00:00:00.000000004,0.8013557266870219,0.7845824838420676,-1.3005745374807374,0.986405306742267
1970-01-01 00:00:00.000000004,0.9760738551175131,0.8677864828619699,-1.2657032598775564,0.9716502333753279
1970-01-01 00:00:00.000000004,1.0780735045133463,0.9634172184516768,-1.0556488141927298,0.9435746226159046
1970-01-01 00:00:00.000000004,1.0451707617793162,0.9309684248892729,-0.7003247137701681,0.9190135500138386
1970-01-01 00:00:00.000000004,0.940338240695973,0.8208350889432918,-0.20501362221724787,0.8955550263460472
1970-01-01 00:00:00.000000004,0.8482060673317593,0.7092098723190348,0.3925878096439316,0.8662620202726591
1970-01-01 00:00:00.000000004,0.7808067581498135,0.5434130522676319,1.0204660712003384,0.8367600728164445
1970-01-01 00:00:00.000000004,0.713873285156138,0.4169721859329439,1.6140257597912595,0.8079485560011402
1970-01-01 00:00:00.000000004,0.6636526689849317,0.3960407944053377,1.9894342696471374,0.7867147289015459
1970-01-01 00:00:00.000000004,0.6278386390466045,0.5082331538859044,2.08280341155621,0.7931119784190451
1970-01-01 00:00:00.000000004,1.006302808271033,0.866885022045082,1.7868885039014382,0.7955983131472792
1970-01-01 00:00:00.000000004,1.6767912690049211,1.2080833510745888,1.598607103525974,0.7511223495045541
1970-01-01 00:00:00.000000004,1.8461952480288706,1.0956672052962726,1.9698050396272122,0.7066658350068357
1970-01-01 00:00:00.000000004,1.5072799861588004,0.10329772002719945,3.314495494511129,0.6848806869861006
1970-01-01 00:00:00.000000004,1.06603039104631,-1.129828556096451,4.448373520638688,0.7145718852870431
1970-01-01 00:00:00.000000004,0.9764724722505211,-1.5955515936602096,4.554706703704717,0.7493363199390705
1970-01-01 00:00:00.000000004,1.0636580918108693,-2.0395141304758164,4.189257821642219,0.8057180585250594
1970-01-01 00:00:00.000000004,1.2589254258136577,-2.254847842880815,3.6467365669411085,0.8491923097472349
1970-01-01 00:00:00.000000004,1.384084843593673,-2.214634601891338,3.1493725111825883,0.8768762932689435
1970-01-01 00:00:00.000000004,1.5005653600916373,-2.1098365330126363,2.816771110161534,0.8845764468907099
1970-01-01 00:00:00.000000004,1.500579179218039,-2.00473686828797,2.6496623843407217,0.8805616571458448
1970-01-01 00:00:00.000000004,1.328957524616535,-1.9103662597873587,2.581805918013197,0.8759399102260951
1970-01-01 00:00:00.000000004,1.0362064481839004,-1.8433094837553456,2.5409400642308757,0.8793175443777317
1970-01-01 00:00:00.000000004,0.7513808054982742,-1.7152573316485817,2.4173082861788155,0.8870252211348095
1970-01-01 00:00:00.000000004,0.534367534543512,-1.5203478535693447,2.1746742797841074,0.8963130066528762
1970-01-01 00:00:00.000000004,0.3597073001230442,-1.3570943248338954,1.7759376578818291,0.9181253115863672
1970-01-01 00:00:00.000000004,0.2540108596236982,-1.1935910293661534,1.2032503706049729,0.9483372569624952
1970-01-01 00:00:00.000000004,0.18504012779300724,-0.961920664036907,0.6197651524677867,0.9725823936201093
1970-01-01 00:00:00.000000004,0.10856081740706576,-0.7233070210007536,0.08536862465483214,0.9940062126137942
1970-01-01 00:00:00.000000004,0.04597219915766919,-0.5526653456331808,-0.3001087294370486,1.0079478675063545
1970-01-01 00:00:00.000000004,-0.04997660256484489,-0.5244322290702538,-0.5140792374302767,1.0224702552864036
1970-01-01 00:00:00.000000004,-0.13871249829483825,-0.5394196361146141,-0.7624454780313663,1.0439931915793563
1970-01-01 00:00:00.000000004,-0.16765169326227602,-0.5213963748001106,-1.0534470981923987,1.0615064517841888
1970-01-01 00:00:00.000000004,-0.21810353825731335,-0.45811548024561416,-1.3504591699206265,1.074506973040258
1970-01-01 00:00:00.000000004,-0.3415855745448249,-0.3350107613603273,-1.6462396591933732,1.0905516139776799
1970-01-01 00:00:00.000000004,-0.41428532042182387,-0.2255064618049544,-1.9863430136222084,1.1097141822391219
1970-01-01 00:00:00.000000004,-0.43066358497970136,-0.12528436257899545,-2.3566423638117966,1.1277696144768155
1970-01-01 00:00:00.000000005,-0.4487685638627553,0.01819616616424935,-2.717633315304114,1.1430918658308504
1970-01-01 00:00:00.000000005,-0.4521384520613459,0.15481250939012717,-2.9812254890228487,1.15160138653637
1970-01-01 00:00:00.000000005,-0.46000598202646303,0.2438673660511215,-3.1933291096309238,1.1599303125367726
1970-01-01 00:00:00.000000005,-0.46753561807022515,0.30384034557080425,-3.36442649943142,1.1684099867409385
1970-01-01 00:00:00.000000005,-0.4511745332300392,0.366377331162414,-3.4896310082155266,1.1713536594742373
1970-01-01 00:00:00.000000005,-0.4547760197993887,0.422616206855255,-3.5213421113469074,1.1700663933081241
1970-01-01 00:00:00.000000005,-0.4554572847879401,0.4143507361795749,-3.4665155159008654,1.1681884052990104
1970-01-01 00:00:00.000000005,-0.42971210974208607,0.4288422924598897,-3.410588195509867,1.1626681354355162
1970-01-01 00:00:00.000000005,-0.41332544887392,0.4676741490885366,-3.316082774014437,1.154793203514782
1970-01-01 00:00:00.000000005,-0.37029835488850804,0.44644741075382327,-3.125559025056646,1.142495000490646
1970-01-01 00:00:00.000000005,-0.3439193507536899,0.404920395775681,-3.005496448003984,1.1387452274474368
1970-01-01 00:00:00.000000005,-0.2696682620255394,0.3857637115436101,-2.8734846346968395,1.1306455401479931
1970-01-01 00:00:00.000000005,-0.18426266421373952,0.36441777342224696,-2.7248707312902454,1.1200612772725724
1970-01-01 00:00:00.000000005,-0.11590885350551632,0.32536296344446386,-2.5761783175524013,1.110514702002623
1970-01-01 00:00:00.000000005,-0.07300657794829031,0.28448122980435564,-2.467844852398527,1.105593630228074
1970-01-01 00:00:00.000000005,-0.014280021951403973,0.3288622488669456,-2.332400689614024,1.0914042849529635
1970-01-01 00:00:00.000000005,0.01210279513239023,0.4317177018058566,-2.170055554977444,1.076899238908357
1970-01-01 00:00:00.000000005,0.10914140535032055,0.5276292765232199,-2.0589857181449167,1.0626477054084882
1970-01-01 00:00:00.000000005,0.2356723903164117,0.610818745358527,-1.8760128538978524,1.0387937513620245
1970-01-01 00:00:00.000000005,0.28004121791398484,0.6075735924222011,-1.4502645928319098,1.0055392888351167
1970-01-01 00:00:00.000000005,0.22954712673352295,0.5249592435481774,-0.7998401590564362,0.969717003897166
1970-01-01 00:00:00.000000005,0.2032828296505187,0.4386175662541316,-0.023128118816310148,0.926770362467683
1970-01-01 00:00:00.000000005,0.22534308352141702,0.2648672854599823,0.8725331911626404,0.877893986080621
1970-01-01 00:00:00.000000005,0.2111466171595532,-0.08540610899198647,1.5333190300502109,0.8558209747554378
1970-01-01 00:00:00.000000005,0.1673775717000788,-0.32314001098364853,1.774772837453056,0.8546235127799447
1970-01-01 00:00:00.000000005,0.109644111391764,-0.3880310250032719,1.8868907437456055,0.8480159960701447
1970-01-01 00:00:00.000000005,-0.060231232711884214,-0.4562797734311848,1.8686951343517197,0.8668852349911236
1970-01-01 00:00:00.000000005,0.07771617074470338,-0.09016470472334578,2.6592360366661643,0.7769024648092796
1970-01-01 00:00:00.000000005,-0.07621322890440507,0.7099591125664546,3.368804222300355,0.675266644728765
1970-01-01 00:00:00.000000005,-0.36029819496264165,1.0555056058641434,3.844922827289992,0.6294007679176352
1970-01-01 00:00:00.000000005,-0.49846362381494985,0.8935082925522171,5.2989281613162005,0.5510290990379026
1970-01-01 00:00:00.000000005,-0.562952694567772,0.17195176176108162,7.078870996962796,0.47877733802472555
1970-01-01 00:00:00.000000005,-0.7296063289536718,-1.0374061690236083,8.543993312658593,0.4670225468125989
1970-01-01 00:00:00.000000005,-0.8603539542773373,-2.1566637718058286,8.884202998411608,0.533744942711807
1970-01-01 00:00:00.000000005,-0.861376437337307,-2.664682008981172,8.107321305207412,0.849583530362612
1970-01-01 00:00:00.000000005,-0.76917915117831,-2.6094250888785493,6.693797623995835,0.945319203100693
1970-01-01 00:00:00.000000005,-0.6866839968722884,-2.300039153444441,5.114970779975538,1.0237746348660346
1970-01-01 00:00:00.000000005,-0.698174380074489,-1.957188387713994,3.6948571017509906,1.0910230489040977
1970-01-01 00:00:00.000000005,-0.800746726383107,-1.688834615212605,2.501383666922031,1.1490438293799534
1970-01-01 00:00:00.000000005,-1.0097919141444505,-1.4812533455251056,1.5025947826451012,1.2032366660704163
1970-01-01 00:00:00.000000005,-1.2529096689965513,-1.2526275311713042,0.6210536472896185,1.2507077815297245
1970-01-01 00:00:00.000000005,-1.4915573718797024,-0.9776582116722725,-0.12211452139754993,1.2878886638745055
1970-01-01 00:00:00.000000005,-1.6895100929226359,-0.7086833511477046,-0.7326848921911111,1.3177304201287992
1970-01-01 00:00:00.000000005,-1.8095287406786968,-0.4674445235852318,-1.2210298220319422,1.3401638695481035
1970-01-01 00:00:00.000000005,-1.8497727571601827,-0.28209199612741515,-1.6048935131452093,1.3569042914106275
1970-01-01 00:00:00.000000005,-1.8358583655665475,-0.1820546370780795,-1.8941102981118492,1.3732201775302075
1970-01-01 00:00:00.000000005,-1.7419439348015238,-0.07419109424726072,-2.226892425141246,1.3892160568529826
1970-01-01 00:00:00.000000005,-1.5925065122440902,0.08438068988949042,-2.5764995832143427,1.4010823992022923
1970-01-01 00:00:00.000000005,-1.4156100546193644,0.21923860657910335,-2.971827436330341,1.4167610511390702
1970-01-01 00:00:00.000000005,-1.2144224869475795,0.31288069484625053,-3.435022190604904,1.4392684328670748
1970-01-01 00:00:00.000000005,-0.9803447297517005,0.38495634378908195,-3.867355520482633,1.4598862700058781
1970-01-01 00:00:00.000000005,-0.7232185578740656,0.45685894582982023,-4.1076585040554106,1.463562659876996
1970-01-01 00:00:00.000000005,-0.5429939292709651,0.5001242216204919,-4.239535061009026,1.4661780188919469
1970-01-01 00:00:00.000000005,-0.37037751911534744,0.5337461151603591,-4.3725370659514695,1.4704783716569991
1970-01-01 00:00:00.000000005,-0.18270371200932062,0.535883051969606,-4.44410355542014,1.4715836243220695
1970-01-01 00:00:00.000000005,-0.0039687074660802735,0.5338212382028081,-4.519533980208533,1.4709878794371711
1970-01-01 00:00:00.000000005,0.12121030258882032,0.48803722376140835,-4.472567065955025,1.4658194089513177
1970-01-01 00:00:00.000000005,0.18564457041761098,0.3834718544111242,-4.249488749521248,1.4564076575188294
1970-01-01 00:00:00.000000005,0.23979877249197268,0.34229051114323,-4.0370415053144,1.4437584540759063
1970-01-01 00:00:00.000000005,0.28096331069423397,0.4083300109048985,-3.9506738295187316,1.4350121111939433
1970-01-01 00:00:00.000000005,0.3673339256206516,0.44599320357375194,-3.86777847140671,1.4249254126597424
1970-01-01 00:00:00.000000005,0.4416910599951416,0.3976567174189517,-3.7151746666298635,1.4121277066661881
1970-01-01 00:00:00.000000005,0.4159139111842478,0.38407843267688635,-3.5985972616607103,1.4058463774807897
1970-01-01 00:00:00.000000005,0.40452014038967493,0.45710850670563696,-3.4623038563606263,1.3903554713783242
1970-01-01 00:00:00.000000005,0.3546507623101476,0.5833239592073437,-3.258134149244165,1.3692075047805747
1970-01-01 00:00:00.000000005,0.2955804695433516,0.707965654442772,-3.0919909106816945,1.3535578644618524
1970-01-01 00:00:00.000000005,0.297427299161387,0.8287258955997446,-2.9286432543093492,1.333815464756208
1970-01-01 00:00:00.000000005,0.2848231329022105,0.9546786071588729,-2.694331875262164,1.3064882085788463
1970-01-01 00:00:00.000000005,0.19993698010665548,1.1672981897934083,-2.3486156856654943,1.2710513031907509
1970-01-01 00:00:00.000000005,0.12083741758283745,1.4162226242348015,-1.8644415307345301,1.2257305287576024
1970-01-01 00:00:00.000000005,0.07694910969444288,1.5651659124919541,-1.2468523962211058,1.178109665424742
1970-01-01 00:00:00.000000005,0.07497487645926557,1.5403738831743932,-0.6034562971089805,1.1403307520513375
1970-01-01 00:00:00.000000005,0.13325192690799084,1.4234031143013683,-0.14799344463661707,1.1192782652606124
1970-01-01 00:00:00.000000005,0.25425775688853997,1.2965790830893853,0.26270217204722124,1.0952347343265623
1970-01-01 00:00:00.000000005,0.3084308633575537,1.0941028692718155,0.7508228300712699,1.0719137459307881
1970-01-01 00:00:00.000000005,0.2809659243312124,0.8533447532889791,1.118660605916466,1.0655662160586854
1970-01-01 00:00:00.000000005,0.30325968149246146,0.6914339059257499,1.4482419660684442,1.0535859682633553
1970-01-01 00:00:00.000000005,0.3195312614620469,0.6053171926728336,1.7738189638980055,1.0311848572328983
1970-01-01 00:00:00.000000005,0.20744839895044004,0.5063267423948126,2.299066505331601,1.0025850673933754
1970-01-01 00:00:00.000000005,0.04426486018944603,0.39496209675482274,2.8804339248229773,0.9780526513705112
1970-01-01 00:00:00.000000005,-0.047008489116860785,0.3606434522654314,3.175643047168848,0.9678135461050936
1970-01-01 00:00:00.000000005,-0.021622078166454006,0.5448926336895614,3.0644098680136356,0.9653780569591826
1970-01-01 00:00:00.000000005,0.06699077779985835,0.8563956363304581,2.8183613681769866,0.9623154149850071
1970-01-01 00:00:00.000000005,0.21281349618458484,1.1567486359772374,2.6103061615092855,0.9560806805948425
1970-01-01 00:00:00.000000005,0.4020316633734127,1.364724728137146,2.3988121856559705,0.9507535983724982
1970-01-01 00:00:00.000000005,0.5378972757935319,1.3192336158594593,2.286037443335719,0.9526645118110091
1970-01-01 00:00:00.000000005,0.5420854097448736,0.8409881675421246,2.410604051882361,0.9675769322131718
1970-01-01 00:00:00.000000005,0.38564195433522896,0.08764170151528167,3.000466751225556,0.9820908958966226
1970-01-01 00:00:00.000000005,0.262356669110862,-0.653040111504728,3.923620346332217,0.980482816334763
1970-01-01 00:00:00.000000005,0.3029763432802452,-1.3499011600201976,4.80710615186703,0.9707521414793208
1970-01-01 00:00:00.000000005,0.3899980972827975,-2.1538082825688085,5.508728680549268,0.9802913742931594
1970-01-01 00:00:00.000000005,0.5492787037231861,-2.8849880152053924,5.596502677095361,1.025032862782641
1970-01-01 00:00:00.000000005,0.8251352972227877,-3.2218608855204733,5.115850843481898,1.0745866075090245
1970-01-01 00:00:00.000000005,1.1125748654137644,-3.0943624929262223,4.292363497837093,1.1096823850966826
1970-01-01 00:00:00.000000005,1.2743254445370342,-2.6946115454535793,3.4092784761535007,1.1281361123498246
1970-01-01 00:00:00.000000005,1.2102438680697833,-2.232285478961032,2.6860191136669487,1.1378398479225866
1970-01-01 00:00:00.000000005,0.9683692798804517,-1.8872829804243967,2.3030509989240113,1.1433366318444114
1970-01-01 00:00:00.000000005,0.7013353424390857,-1.6662153885823803,2.0544974611966564,1.1503722600063413
1970-01-01 00:00:00.000000005,0.44770563831182314,-1.465300235007609,1.8036127296780506,1.1619301088336522
1970-01-01 00:00:00.000000005,0.27502341467710795,-1.3005971139379182,1.489340082795917,1.1780179654020104
1970-01-01 00:00:00.000000006,0.16654469853898046,-1.2041771371309735,1.1052142099968572,1.2011831054203135
1970-01-01 00:00:00.000000006,0.11001696758842924,-1.1033110854398882,0.7103180902777334,1.222783828319468
1970-01-01 00:00:00.000000006,0.06713817616397225,-1.0039838828777428,0.15461251437019297,1.255201990288109
1970-01-01 00:00:00.000000006,0.06251061804145494,-0.8717744931064437,-0.4033009431297886,1.2851326128267282
1970-01-01 00:00:00.000000006,0.09274686632066256,-0.7785810673208426,-0.7883916151990891,1.3087083639234696
1970-01-01 00:00:00.000000006,0.20280915279190692,-0.7145761930861813,-1.4479345357754951,1.345314788791604
1970-01-01 00:00:00.000000006,0.30112095023857477,-0.6337031341731877,-2.174567838906393,1.381047389497231
1970-01-01 00:00:00.000000006,0.2972863453099672,-0.5437321009350902,-2.6637207860423544,1.4046245005029248
1970-01-01 00:00:00.000000006,0.2283099837134374,-0.2779724823033881,-3.2268022754662455,1.4228886770671385
1970-01-01 00:00:00.000000006,0.11116673302013208,-0.029965510544000623,-3.528381240833848,1.429912635236749
1970-01-01 00:00:00.000000006,0.01915233738231198,0.10714415473605773,-3.6512507699269032,1.4329763756603273
1970-01-01 00:00:00.000000006,-0.02355114669653574,0.235218294576679,-3.743028941033375,1.4327935579657944
1970-01-01 00:00:00.000000006,-0.04034598639068998,0.3167873812959807,-3.837493055512543,1.4354707160923528
1970-01-01 00:00:00.000000006,-0.022271624694116726,0.3189573408682144,-3.868367217351874,1.4358155611956456
1970-01-01 00:00:00.000000006,-0.03152222644274805,0.2900269629927674,-3.863455672141108,1.436499021251539
1970-01-01 00:00:00.000000006,-0.05757171992572219,0.23353917617477044,-3.7231674142198288,1.431409973048628
1970-01-01 00:00:00.000000006,-0.08773581033605546,0.12113835599069805,-3.556456949529638,1.4271612575406145
1970-01-01 00:00:00.000000006,-0.13956860255425838,-0.0027140385662991484,-3.341080697220779,1.4220169506220817
1970-01-01 00:00:00.000000006,-0.1866430423439593,-0.1101462663189644,-3.068450744469624,1.411550984431897
1970-01-01 00:00:00.000000006,-0.2455995844934148,-0.11696643391865001,-2.9028206853319656,1.4041117913807766
1970-01-01 00:00:00.000000006,-0.2546912172780691,-0.017266142355271547,-2.77702645236416,1.390132134192903
1970-01-01 00:00:00.000000006,-0.2544964326401715,0.04106271086392832,-2.686611407962749,1.3797213965797868
1970-01-01 00:00:00.000000006,-0.2684181953630171,0.031073575611147652,-2.60636732270025,1.377443257605648
1970-01-01 00:00:00.000000006,-0.23134698412285043,-0.0002929430901902341,-2.4835230786712352,1.373013229260021
1970-01-01 00:00:00.000000006,-0.14702233922658908,0.02102179201884013,-2.3887509703579837,1.363902207694558
1970-01-01 00:00:00.000000006,-0.05924462730888384,0.10093657850486805,-2.229697870088341,1.3453850736135835
1970-01-01 00:00:00.000000006,-0.002910821737343257,0.21016679343871833,-2.057190556201109,1.327379189912839
1970-01-01 00:00:00.000000006,0.08912196548631278,0.27575843672396566,-1.862255554958176,1.3060280906310189
1970-01-01 00:00:00.000000006,0.13030479777843662,0.22140227637638477,-1.4876181494016034,1.2814539796072266
1970-01-01 00:00:00.000000006,0.11384588191404893,0.05904993152611557,-0.9464875727974235,1.2601597090663137
1970-01-01 00:00:00.000000006,0.0982046625951345,-0.1429906587923921,-0.33348284974994424,1.336905075776646
1970-01-01 00:00:00.000000006,0.08159631527815121,-0.3243643869417061,0.28788396152791035,1.308749862990026
1970-01-01 00:00:00.000000006,0.00013519218953941814,-0.4581756790824219,0.7630219205547818,1.2830525286132217
1970-01-01 00:00:00.000000006,-0.17136362375542813,-0.49474713976336726,1.1153397019715068,1.2623394121951972
1970-01-01 00:00:00.000000006,-0.39754756742516895,-0.32717309491262603,1.1739740322917454,1.249974794380882
1970-01-01 00:00:00.000000006,-0.6356227797111769,0.029391942747875155,1.2002775355309745,1.2323375958219043
1970-01-01 00:00:00.000000006,-0.7837098103517146,0.41257592106578345,1.5253397990050837,1.1919998588789769
1970-01-01 00:00:00.000000006,-0.8554732914619603,0.6717818940002769,2.0455210055780957,1.1403217559902084
1970-01-01 00:00:00.000000006,-0.962594096221145,0.5961021009058239,2.824294235567569,1.0942936309286602
1970-01-01 00:00:00.000000006,-1.099139993443694,0.2032731164135319,3.7407216407027764,1.0629437591479833
1970-01-01 00:00:00.000000006,-1.2124614300486631,-0.2939800606283881,4.488937960519422,1.045974957286841
1970-01-01 00:00:00.000000006,-1.3670353931942463,-0.9063612811620722,5.1949767655395105,1.0397927539225396
1970-01-01 00:00:00.000000006,-1.5913650408120539,-1.51358148231507,5.439627757479993,1.0696616411621425
1970-01-01 00:00:00.000000006,-1.7663960260858338,-1.8030392576045424,5.082272170160558,1.1254102353034312
1970-01-01 00:00:00.000000006,-1.7064248244961018,-1.703076899456412,4.49712241040628,1.1588554796896118
1970-01-01 00:00:00.000000006,-1.6057503313693289,-1.5453434386215346,3.9747264999059673,1.1754204995209383
1970-01-01 00:00:00.000000006,-1.6432230467828823,-1.5263982702365873,3.5652907601432484,1.1993348745720294
1970-01-01 00:00:00.000000006,-1.7277468324299932,-1.5282174564301543,3.177316425297925,1.2228527093679793
1970-01-01 00:00:00.000000006,-1.8854750315704936,-1.4373918597721878,2.7703339165061642,1.242808666076746
1970-01-01 00:00:00.000000006,-2.1156121062666595,-1.2334118408378818,2.419650236949446,1.257971385393042
1970-01-01 00:00:00.000000006,-2.319091981776626,-0.9384493316700178,1.9865009923095107,1.2757364448238973
1970-01-01 00:00:00.000000006,-2.419638598385685,-0.6202001824315707,1.4503964872284327,1.298471750781174
1970-01-01 00:00:00.000000006,-2.388116222964933,-0.3900905638305573,0.8410691930099548,1.3269050505275264
1970-01-01 00:00:00.000000006,-2.2784431268930994,-0.20918234895047647,0.2115344160833848,1.3580664996129648
1970-01-01 00:00:00.000000006,-2.1059422966810746,-0.08195155483760477,-0.45375865576387325,1.3938109361251299
1970-01-01 00:00:00.000000006,-1.8741367527753972,0.026962442242736674,-1.1825460478003742,1.4323400437810454
1970-01-01 00:00:00.000000006,-1.6151597000012543,0.1237112478762937,-1.9112108823614409,1.470183192555793
1970-01-01 00:00:00.000000006,-1.3498594871507217,0.17756191743390687,-2.5558271089418167,1.5039660163499977
1970-01-01 00:00:00.000000006,-1.105316668862601,0.19018308340893356,-3.076398498497864,1.5336610035718006
1970-01-01 00:00:00.000000006,-0.8566633285002738,0.2300822151742482,-3.4842314699335764,1.5546211547634359
1970-01-01 00:00:00.000000006,-0.592803351137384,0.26813550017967647,-3.751752415824785,1.5642481430327735
1970-01-01 00:00:00.000000006,-0.35302093765684894,0.2642224016032383,-3.8084376454094566,1.561764013155543
1970-01-01 00:00:00.000000006,-0.17318427093834465,0.19486486598471964,-3.747068487353578,1.5594149291518176
1970-01-01 00:00:00.000000006,0.007929321869381861,0.1359701257701673,-3.7235703673511766,1.5583194138374283
1970-01-01 00:00:00.000000006,0.18797363550141735,0.13221425985660845,-3.6334457010812944,1.5481341686135193
1970-01-01 00:00:00.000000006,0.3333518115336552,0.10137627113675413,-3.461902181065283,1.535903713614003
1970-01-01 00:00:00.000000006,0.4646346150503628,0.08430959770736315,-3.3585486508097113,1.527669829944095
1970-01-01 00:00:00.000000006,0.5924097468118672,0.1061306586980295,-3.287763599060949,1.5193686807204383
1970-01-01 00:00:00.000000006,0.719961545821706,0.16932575741769387,-3.27296095355764,1.510431313893911
1970-01-01 00:00:00.000000006,0.8197902136208403,0.32019786814901535,-3.2276490704259566,1.4938490650924319
1970-01-01 00:00:00.000000006,0.879908905284264,0.49715287116607426,-3.1024277593828464,1.4716688262699902
1970-01-01 00:00:00.000000006,0.91377685873407,0.6835521879611075,-2.9572778982847567,1.4488709729313338
1970-01-01 00:00:00.000000006,0.9409106083472517,0.8622964124906707,-2.840535285598726,1.428426845690783
1970-01-01 00:00:00.000000006,0.9677995735573552,1.0033374660314616,-2.5822882961363947,1.4005795715721672
1970-01-01 00:00:00.000000006,0.9710610901916467,1.086488856720252,-2.2725750237224616,1.372934467227109
1970-01-01 00:00:00.000000006,0.9401364641361626,1.136840015463156,-1.972258994322254,1.350668587715504
1970-01-01 00:00:00.000000006,0.9277589334317802,1.2085162389008104,-1.6280931448625249,1.3224812733152846
1970-01-01 00:00:00.000000006,0.8892869444282081,1.3118728331639296,-1.4174815186606777,1.3021393842103375
1970-01-01 00:00:00.000000006,0.8540103005749093,1.5314639182756087,-1.3244941972254163,1.2817349562220908
1970-01-01 00:00:00.000000006,0.8159892303516796,1.864463732572978,-1.2670510341300512,1.2585544001895335
1970-01-01 00:00:00.000000006,0.8191669163958515,2.216943809755957,-1.2279967757248964,1.234159991564269
1970-01-01 00:00:00.000000006,0.8581446765734472,2.5072728788304324,-1.1246081624495345,1.2050583141462303
1970-01-01 00:00:00.000000006,0.8485154216287002,2.724010659269571,-0.8918368698086268,1.174040425095789
1970-01-01 00:00:00.000000006,0.8022973658940579,2.82408506552844,-0.6719171783029984,1.1541425016283853
1970-01-01 00:00:00.000000006,0.7681862469561355,2.8061726674196423,-0.4700403869510468,1.1447328703997868
1970-01-01 00:00:00.000000006,0.7863990725240612,2.6978553503430027,-0.26389487383415255,1.1359625888148992
1970-01-01 00:00:00.000000006,0.7691325018079289,2.5049241320832962,0.06388113367070453,1.1222985619521415
1970-01-01 00:00:00.000000006,0.6512146877843314,2.246056451373587,0.5496457184109003,1.104098013468579
1970-01-01 00:00:00.000000006,0.4314396845951708,1.9039751325548187,1.291928340974847,1.0807620733585808
1970-01-01 00:00:00.000000006,0.2020000684570044,1.5118348384302134,2.182982198733659,1.0540798721447042
1970-01-01 00:00:00.000000006,0.019556714568072286,1.1910111754955683,2.9240366952686,1.031879339091028
1970-01-01 00:00:00.000000006,-0.11843313172901909,0.9881607491985722,3.358702422766841,1.0263953266692645
1970-01-01 00:00:00.000000006,-0.09453347489005909,0.9572069687169982,3.4788066352871265,1.025711590938075
1970-01-01 00:00:00.000000006,0.057989949941274876,1.0707023427226563,3.533351666547822,1.0091317593289557
1970-01-01 00:00:00.000000006,0.13763979796467318,1.100243354832436,3.5701754315417196,0.9963721750893311
1970-01-01 00:00:00.000000006,0.0645007043230375,0.868769566073774,3.5942863133993583,1.0028574905116878
1970-01-01 00:00:00.000000007,-0.172819628172734,0.4187253387015622,3.7877454397830035,1.0200096723761847
1970-01-01 00:00:00.000000007,-0.47471752734144385,-0.1960204224775589,4.292005559395548,1.0316078564071416
1970-01-01 00:00:00.000000007,-0.7943526486994918,-0.8804347184889594,4.927246691003409,1.0412836718311476
1970-01-01 00:00:00.000000007,-1.1052944260461137,-1.4687400403050754,5.350632034115735,1.067067413560971
1970-01-01 00:00:00.000000007,-1.222127611297547,-1.8129245182101306,5.2524400816592465,1.1091975399608578
1970-01-01 00:00:00.000000007,-1.1147317049938028,-1.8300387985582844,4.615433323494079,1.158488512300321
1970-01-01 00:00:00.000000007,-0.8541731250992946,-1.6796698963365726,3.532712799207988,1.2154846327827569
1970-01-01 00:00:00.000000007,-0.5955700423442334,-1.5403611124767507,2.4984995451740004,1.2673230569944032
1970-01-01 00:00:00.000000007,-0.404792224183428,-1.4727988108545165,1.6140562501711597,1.3165584298551747
1970-01-01 00:00:00.000000007,-0.24431422732205405,-1.5274294226123306,1.0287965674302093,1.3545711011861248
1970-01-01 00:00:00.000000007,-0.12665532611989452,-1.7616000207298554,0.6696466493930328,1.390096075226655
1970-01-01 00:00:00.000000007,-0.04025256504477548,-2.1772373689262716,0.6601967343491703,1.4135958922089618
1970-01-01 00:00:00.000000007,-0.023006587715106292,-2.7485933660901876,0.9308807522238444,1.4292477827124983
1970-01-01 00:00:00.000000007,-0.10355616504155929,-3.3782078453973905,1.1301592458060294,1.4597091052478057
1970-01-01 00:00:00.000000007,-0.1720605232508004,-3.8191844379939908,0.9772529061843036,1.5037712747315155
1970-01-01 00:00:00.000000007,-0.16439985533515233,-3.9553876267280623,0.5400535748824533,1.5535388603233282
1970-01-01 00:00:00.000000007,0.10284687726720082,-3.7155045505454245,-0.13502945123984206,1.5795940812244367
1970-01-01 00:00:00.000000007,0.3909357289301104,-3.238836170829329,-1.061449691189192,1.5969395940134148
1970-01-01 00:00:00.000000007,0.5206445599294669,-2.788179677102007,-1.8292198261239325,1.6097065359901574
1970-01-01 00:00:00.000000007,0.5239351238648011,-2.4119748570193513,-2.4474453602515007,1.6222163257342492
1970-01-01 00:00:00.000000007,0.46111336789028357,-2.023505390280961,-2.940168828526943,1.6288095250820962
1970-01-01 00:00:00.000000007,0.37333321797948943,-1.5792948417570662,-3.2937371711663825,1.6260558843998194
1970-01-01 00:00:00.000000007,0.3222465226625989,-1.1557714521073663,-3.529050907912857,1.6134224328734612
1970-01-01 00:00:00.000000007,0.24193183703291507,-0.8364518487315062,-3.70055482607041,1.6034715137018454
1970-01-01 00:00:00.000000007,0.12803880564960915,-0.634178805328765,-3.8416797376737173,1.6015972894987927
1970-01-01 00:00:00.000000007,0.026749540083573387,-0.4541743004655335,-3.9425964964403177,1.5988960915531176
1970-01-01 00:00:00.000000007,-0.05197591717228861,-0.23563000237504242,-3.9655283613491883,1.5885336814089612
1970-01-01 00:00:00.000000007,-0.10768838343497292,-0.001280054826328647,-3.9701135511534513,1.5751082094310584
1970-01-01 00:00:00.000000007,-0.14893846348312403,0.19818051549682733,-3.980425526361339,1.5635391607701938
1970-01-01 00:00:00.000000007,-0.18217020734306819,0.38593624701400064,-3.967593386829378,1.5512705992454126
1970-01-01 00:00:00.000000007,-0.19723647771462915,0.5516776314736658,-3.8150164404394404,1.5273856905562286
1970-01-01 00:00:00.000000007,-0.2736295598554316,0.6874448681461307,-3.359765439664341,1.4932673052518384
1970-01-01 00:00:00.000000007,-0.27699031466852236,0.7961269910749922,-2.861857247894629,1.4546639279544453
1970-01-01 00:00:00.000000007,-0.2577010902282534,0.6978297188512805,-2.270534425518018,1.424543771598719
1970-01-01 00:00:00.000000007,-0.17826391632220395,0.5614331794806398,-1.8014144795207974,1.401214860889935
1970-01-01 00:00:00.000000007,-0.0929933755207906,0.5545808422927155,-1.5239418063767878,1.379011381704159
1970-01-01 00:00:00.000000007,-0.06163492911676858,0.5573702800749014,-1.1998935750002464,1.3542523568824871
1970-01-01 00:00:00.000000007,-0.08925226701165524,0.6441325046365136,-0.9734689337230008,1.3375572331377839
1970-01-01 00:00:00.000000007,-0.04022963690193619,0.7715548479956931,-0.8964201326360428,1.3241796348303139
1970-01-01 00:00:00.000000007,0.029490888855839878,0.9591052211030481,-0.9586178175943296,1.3135889312444091
1970-01-01 00:00:00.000000007,0.08240081532708267,1.1529628478144536,-0.9575842163830264,1.2984374289044907
1970-01-01 00:00:00.000000007,0.11485972391630589,1.3198859617959666,-0.7471617328386612,1.2702551351934777
1970-01-01 00:00:00.000000007,0.08648501219602267,1.3492190310842769,-0.3505216598531143,1.2407513258349583
1970-01-01 00:00:00.000000007,0.01734595780184095,1.220858786150727,0.1449078254757859,1.2189007651295105
1970-01-01 00:00:00.000000007,-0.018355741878236048,1.0142052984179806,0.6632700511320234,1.196845630202397
1970-01-01 00:00:00.000000007,-0.08951794371213193,0.8592701974517236,1.2099694814058335,1.169556370760103
1970-01-01 00:00:00.000000007,-0.21505168639625155,0.8214943317720527,1.6413102458189541,1.1436198734217293
1970-01-01 00:00:00.000000007,-0.3834818310233987,0.8614405614871623,1.8957709567994487,1.1255832068280034
1970-01-01 00:00:00.000000007,-0.578545142061716,0.9297399212651161,2.0368446806499803,1.1165049979260502
1970-01-01 00:00:00.000000007,-0.7332446718353751,0.9494420647023014,2.306940172781293,1.1049956833145045
1970-01-01 00:00:00.000000007,-0.7778335504812318,0.9422637409907338,2.737607899738659,1.0824855609671409
1970-01-01 00:00:00.000000007,-0.7332215357295621,0.8028420695077529,3.1696362476227806,1.0603167843664312
1970-01-01 00:00:00.000000007,-0.7371131321500539,0.36090810000309526,3.7190067503611246,1.049542775319053
1970-01-01 00:00:00.000000007,-0.8168546569500842,-0.41064109812450417,4.391228283427106,1.0520596146554624
1970-01-01 00:00:00.000000007,-1.0124869171681776,-1.353561779004093,4.938812872531377,1.0777619848470001
1970-01-01 00:00:00.000000007,-1.2794471778609178,-2.1898343508099605,5.15241185909587,1.1202457544972488
1970-01-01 00:00:00.000000007,-1.6119340347875823,-2.6389911617822195,4.8092818541396305,1.17888711176924
1970-01-01 00:00:00.000000007,-1.919780379728111,-2.664822928398456,4.096302291585629,1.2348495462915747
1970-01-01 00:00:00.000000007,-2.17757327779887,-2.3306226707209126,3.2714852529275715,1.2696950664663316
1970-01-01 00:00:00.000000007,-2.4777558758130165,-1.8996900717523293,2.596098646772684,1.2862555517211671
1970-01-01 00:00:00.000000007,-2.884352669680413,-1.4953775177834467,2.038809958743425,1.3018757729216444
1970-01-01 00:00:00.000000007,-3.3226822858301865,-1.1424530745602683,1.5348200731402262,1.3244793451115804
1970-01-01 00:00:00.000000007,-3.6443763813473726,-0.8465028911822173,1.1556846202042466,1.3404583433605055
1970-01-01 00:00:00.000000007,-3.8691525557308166,-0.6004447284198783,0.7813449313141685,1.3576153786697027
1970-01-01 00:00:00.000000007,-3.9987535690504634,-0.42717564218839105,0.3789576592443969,1.3805252087954496
1970-01-01 00:00:00.000000007,-4.012816212844008,-0.3232078153433558,0.060601663607870414,1.4036942482386656
1970-01-01 00:00:00.000000007,-3.8499358661564385,-0.27146079536179885,-0.2147381651114764,1.424233264476848
1970-01-01 00:00:00.000000007,-3.5220509685060724,-0.2368559854343035,-0.5891544476268269,1.4470207607350432
1970-01-01 00:00:00.000000007,-3.0736392076218273,-0.18284484721015676,-1.0016259566586072,1.46317243363147
1970-01-01 00:00:00.000000007,-2.6364993523856173,-0.15337354006884635,-1.4081650329844868,1.4822554905936494
1970-01-01 00:00:00.000000007,-2.1753335614315024,-0.13582546125026804,-1.9464146605241495,1.5071802799033573
1970-01-01 00:00:00.000000007,-1.7454012296168717,-0.0762694547598744,-2.4573863422390474,1.5262957198334186
1970-01-01 00:00:00.000000007,-1.392765642166208,0.039806249082939116,-2.9397605135808043,1.5430994160561815
1970-01-01 00:00:00.000000007,-1.0723147362987167,0.19261178116454514,-3.3745739232774046,1.5560013089566422
1970-01-01 00:00:00.000000007,-0.758202240775213,0.3747496283969258,-3.709697628871963,1.5600129059181904
1970-01-01 00:00:00.000000007,-0.4641695833856998,0.5412006972120442,-3.9216895446059374,1.5569588566020194
1970-01-01 00:00:00.000000007,-0.19342156233195792,0.6785760093439297,-3.9850132624726857,1.5458222294599089
1970-01-01 00:00:00.000000007,0.03560933854124976,0.759058803503559,-3.9449612937271237,1.5359877813528298
1970-01-01 00:00:00.000000007,0.30852262254417306,0.7847976390132245,-3.8101557143985687,1.5216730149354898
1970-01-01 00:00:00.000000007,0.5994556560393525,0.7564910838081877,-3.6032293610795367,1.5022364499680008
1970-01-01 00:00:00.000000007,0.8286595960010968,0.7110712983855262,-3.4064273601712762,1.4863600028861055
1970-01-01 00:00:00.000000007,1.0217983958118007,0.6538937263203585,-3.158849609825611,1.4679825757840703
1970-01-01 00:00:00.000000007,1.1601753879298091,0.6201878531424666,-2.956383564241892,1.4523372782700141
1970-01-01 00:00:00.000000007,1.257019690369991,0.6563850908915856,-2.8482998423401287,1.4373699139795542
1970-01-01 00:00:00.000000007,1.280534382714841,0.7881187209322118,-2.7618030589397247,1.419598713287712
1970-01-01 00:00:00.000000007,1.249043179336919,0.9988900989089746,-2.594313024401599,1.3949042635274198
1970-01-01 00:00:00.000000007,1.2154223649519924,1.1753855895363503,-2.291176959977201,1.363327235986774
1970-01-01 00:00:00.000000007,1.1653155329173845,1.2835661866026657,-1.9704195269526301,1.3390156702535918
1970-01-01 00:00:00.000000007,1.1839893008307647,1.383300428297636,-1.7577512881817914,1.3195340345301052
1970-01-01 00:00:00.000000007,1.2340658476094706,1.4551172621168245,-1.5992933692723905,1.3050143408505015
1970-01-01 00:00:00.000000007,1.3159047220849853,1.4079050674024973,-1.42013026362689,1.2959317810871978
1970-01-01 00:00:00.000000007,1.4188733972001781,1.287988902188792,-1.2645544042154369,1.2918522870499538
1970-01-01 00:00:00.000000007,1.5264536426208806,1.1932209118558577,-1.1474130300289689,1.2865447835303794
1970-01-01 00:00:00.000000007,1.5934138413149108,1.1367127090006781,-1.00786041548536,1.2796330534595415
1970-01-01 00:00:00.000000007,1.6527812728636653,1.1309881971196991,-0.9318522221185104,1.2735528199423556
1970-01-01 00:00:00.000000008,1.7071139292947108,1.180171069962989,-0.8719471249826679,1.2635347358237181
1970-01-01 00:00:00.000000008,1.7225654465008255,1.265944566658332,-0.8284062776362174,1.251238116183284
1970-01-01 00:00:00.000000008,1.672092100782986,1.335442526891867,-0.6599120741152418,1.2320438923128003
1970-01-01 00:00:00.000000008,1.5298234962038015,1.3650458637029959,-0.4151775191944945,1.215028374651038
1970-01-01 00:00:00.000000008,1.3656648760045837,1.268253572243562,-0.0524231649815676,1.1982191965277134
1970-01-01 00:00:00.000000008,1.1628423866759732,1.046786877139662,0.41873835495866424,1.1829154159716189
1970-01-01 00:00:00.000000008,0.9148999558292781,0.800688336413993,0.9140549747521718,1.17323245470048
1970-01-01 00:00:00.000000008,0.7247436804954126,0.6160888649220718,1.3050366222339198,1.16569071393319
1970-01-01 00:00:00.000000008,0.5991818488022927,0.5608551300838837,1.5490779391655258,1.1546001292053827
1970-01-01 00:00:00.000000008,0.4615810736248182,0.5303302165064768,1.7733983043988932,1.1388825378835712
1970-01-01 00:00:00.000000008,0.21767898848137635,0.40855137012134246,2.233166934134811,1.1227582422891684
1970-01-01 00:00:00.000000008,0.025060944295320686,0.29647086672694856,2.8180230071981627,1.0985432879890276
1970-01-01 00:00:00.000000008,-0.09270057208176058,0.2540960400665361,3.2613882687758586,1.0728837360827423
1970-01-01 00:00:00.000000008,-0.2390692990237654,0.1251109871768754,3.5504490218572617,1.0573455524602886
1970-01-01 00:00:00.000000008,-0.5407706186155705,-0.16609932439695013,3.8107353832640682,1.0624854363467968
1970-01-01 00:00:00.000000008,-0.8587600121811898,-0.5579999782569001,4.3911990939102035,1.0585931906486912
1970-01-01 00:00:00.000000008,-1.097326789236106,-1.0170284475246407,5.384511793326175,1.0294415462904933
1970-01-01 00:00:00.000000008,-1.3231437453045034,-1.4939176287712195,6.148469802033608,1.0212182294396273
1970-01-01 00:00:00.000000008,-1.4224353500672702,-1.9342366000018805,6.258683790877699,1.0550007719837928
1970-01-01 00:00:00.000000008,-1.31413051548255,-2.193673473765413,5.622789649178408,1.1276389057449163
1970-01-01 00:00:00.000000008,-0.8840815005493882,-2.101558985319074,4.250024943284481,1.2116770835819621
1970-01-01 00:00:00.000000008,-0.3058137341609078,-1.7388187337103975,2.687484215641796,1.2742819412151374
1970-01-01 00:00:00.000000008,0.11673838248035913,-1.3439881232592483,1.3146075806464486,1.3235332249370453
1970-01-01 00:00:00.000000008,0.3654466816310065,-1.0278909520045871,0.3278901040970096,1.3591239684776724
1970-01-01 00:00:00.000000008,0.5189089488094558,-0.7795010657929713,-0.3320082549555832,1.3794196331396096
1970-01-01 00:00:00.000000008,0.5807449914554087,-0.6441831236344971,-0.6676582871266191,1.386700021170831
1970-01-01 00:00:00.000000008,0.5368444363936183,-0.6637250790661245,-0.74504730419081,1.3882383258530522
1970-01-01 00:00:00.000000008,0.3762753072369749,-0.8602148687533114,-0.532439783627697,1.3889531133670343
1970-01-01 00:00:00.000000008,0.19282194983749631,-1.156823399068027,-0.22557387555174924,1.3957879073700337
1970-01-01 00:00:00.000000008,0.09990404069849412,-1.3906246502262003,-0.07466260041230541,1.407751835589003
1970-01-01 00:00:00.000000008,0.11090856362990095,-1.462598252264481,-0.11287243080559736,1.41799475241585
1970-01-01 00:00:00.000000008,0.18326000194774789,-1.426659550127792,-0.30002442055183914,1.4280142845338433
1970-01-01 00:00:00.000000008,0.2787600789267781,-1.3840592154675209,-0.5646365383756702,1.4385805098242064
1970-01-01 00:00:00.000000008,0.36776129680549235,-1.3445802564865839,-0.8468031045825817,1.3890576858363068
1970-01-01 00:00:00.000000008,0.44828702171332224,-1.2898736930173536,-1.1693132687011354,1.4011256772341087
1970-01-01 00:00:00.000000008,0.4881359594503113,-1.2168887732396798,-1.4595344686058052,1.411870934052017
1970-01-01 00:00:00.000000008,0.46821172216219503,-1.0706870882881883,-1.7426812874897804,1.4202402911613055
1970-01-01 00:00:00.000000008,0.4233319315003799,-0.9003848652674626,-2.0515825483443173,1.431309325402308
1970-01-01 00:00:00.000000008,0.40429752128724944,-0.7295511641466702,-2.389894408020149,1.4406792573127585
1970-01-01 00:00:00.000000008,0.34434713534704514,-0.5223275579045491,-2.700397459411637,1.4476142836553931
1970-01-01 00:00:00.000000008,0.26906485913972705,-0.27560305305753047,-2.923147149875357,1.4480109004266721
1970-01-01 00:00:00.000000008,0.2019737855115335,-0.0723180505520751,-3.1279387631262905,1.4507315047865803
1970-01-01 00:00:00.000000008,0.1692729722345322,0.09613958306638971,-3.258075559619607,1.4502782765510192
1970-01-01 00:00:00.000000008,0.16687291180247354,0.2035960932572611,-3.3045920466904506,1.447705914828721
1970-01-01 00:00:00.000000008,0.18952789909504147,0.2557548380992307,-3.36110979780301,1.4479959798691548
1970-01-01 00:00:00.000000008,0.22511412028501912,0.2921779256355461,-3.3549791037771923,1.4439935846772054
1970-01-01 00:00:00.000000008,0.24930888446795613,0.3229820846886884,-3.283393073553042,1.4351783898686428
1970-01-01 00:00:00.000000008,0.24149448973878895,0.3380571538093473,-3.136915089304584,1.4209563874515991
1970-01-01 00:00:00.000000008,0.15736483023593983,0.3244798136763061,-2.8933955921581145,1.4059774696622938
1970-01-01 00:00:00.000000008,0.05176327249642047,0.316209140189667,-2.591454574225779,1.3891612709942027
1970-01-01 00:00:00.000000008,-0.03496562046226055,0.27656284253234475,-2.262482040850284,1.370187371093957
1970-01-01 00:00:00.000000008,-0.15260218337243556,0.19767052755248346,-1.9488776093630515,1.3579953207366044
1970-01-01 00:00:00.000000008,-0.24029469869105802,0.16060519204813817,-1.7571496212886804,1.351164732282918
1970-01-01 00:00:00.000000008,-0.28749661403736215,0.15858293420389283,-1.7242488889746683,1.3487803801839509
1970-01-01 00:00:00.000000008,-0.35551706079079404,0.19848283741879374,-1.720221575065527,1.3486689914707244
1970-01-01 00:00:00.000000008,-0.38298072730150007,0.2713904777605843,-1.6507968361375107,1.3416338440077828
1970-01-01 00:00:00.000000008,-0.3755407885791578,0.3817795032482882,-1.5985735595159596,1.333578890695848
1970-01-01 00:00:00.000000008,-0.30980024363299485,0.4897146314662219,-1.5576307492703687,1.3234693791282641
1970-01-01 00:00:00.000000008,-0.22967954078775363,0.5503153814149009,-1.4976568357087998,1.3153088336676089
1970-01-01 00:00:00.000000008,-0.11512252355068882,0.5181397192539138,-1.2297647623494075,1.294622835240126
1970-01-01 00:00:00.000000008,-0.07184828482152773,0.36702566623085897,-0.7784231199351105,1.2724909984309971
1970-01-01 00:00:00.000000008,-0.06659691642563625,0.13343976296056775,-0.29577298191727047,1.2599352692032362
1970-01-01 00:00:00.000000008,0.036780356857706545,0.019690383327519642,0.07639505779185017,1.235018372504545
1970-01-01 00:00:00.000000008,0.01004650983082929,0.31657908475841057,0.026818040173169078,1.2093539391205204
1970-01-01 00:00:00.000000008,-0.21325970076391348,0.9655736005134392,-0.16467927775241023,1.1855813319385193
1970-01-01 00:00:00.000000008,-0.3570884987030545,1.3823817534773024,0.15531508488461707,1.1352303004175412
1970-01-01 00:00:00.000000008,-0.5861776389312238,1.507312783655983,1.0067656099193054,1.0696304724424202
1970-01-01 00:00:00.000000008,-0.9371218950623432,1.3934539876387766,1.8557469653412362,1.0285976907576235
1970-01-01 00:00:00.000000008,-1.2547024132147984,0.9778057814273509,2.4602633531305105,1.0197827296748652
1970-01-01 00:00:00.000000008,-1.5990362437912473,0.33378193486538077,2.8978433931484116,1.0374304872546651
1970-01-01 00:00:00.000000008,-1.949354585515301,-0.36990308624045176,3.627298715698215,1.0420455328477614
1970-01-01 00:00:00.000000008,-2.2990098194783277,-1.3279347982431495,4.7824523958177325,1.046444017574364
1970-01-01 00:00:00.000000008,-2.432367171664025,-2.2016454646015147,5.4066069731036395,1.0750485962082483
1970-01-01 00:00:00.000000008,-2.3571089369593494,-2.689022804850772,5.3734058191275045,1.1127526740204983
1970-01-01 00:00:00.000000008,-2.203749043086405,-2.90362427332063,4.673696136387718,1.1730342482190428
1970-01-01 00:00:00.000000008,-1.9898341874496284,-2.7413297971223836,3.533892641024757,1.2320894584027215
1970-01-01 00:00:00.000000008,-1.8072044131257168,-2.390786064144527,2.4628993561199093,1.2702899663187495
1970-01-01 00:00:00.000000008,-1.7700411123702877,-2.026155234067204,1.4981286749254026,1.304892985741248
1970-01-01 00:00:00.000000008,-1.8127319031210771,-1.6640686214158606,0.8879115011200898,1.3185719357741927
1970-01-01 00:00:00.000000008,-1.9238515789560773,-1.3468954522438532,0.7822839472342007,1.308766024904264
1970-01-01 00:00:00.000000008,-2.005218655164454,-1.1257165862657816,0.8101470771057236,1.2999173923684493
1970-01-01 00:00:00.000000008,-1.9707295321351448,-0.9846901919654543,0.6544493195871379,1.3071804068358075
1970-01-01 00:00:00.000000008,-1.7959091303541561,-0.8331061113560704,0.23779703719241238,1.3271807304688916
1970-01-01 00:00:00.000000008,-1.507653274458824,-0.6405852271239111,-0.36533972786747154,1.350703556173931
1970-01-01 00:00:00.000000008,-1.198197442696478,-0.43242059777823766,-1.0716952664028556,1.3775043622636582
1970-01-01 00:00:00.000000008,-0.9058812769203413,-0.1821304979601206,-1.717792050081231,1.3999692926983538
1970-01-01 00:00:00.000000008,-0.5893143431311558,0.05140579667688212,-2.2721814419684745,1.4135898372389382
1970-01-01 00:00:00.000000008,-0.3227870350357177,0.2678217074265356,-2.683372183876913,1.4201056647687407
1970-01-01 00:00:00.000000008,-0.09298104202120724,0.4602507820600584,-2.898397044487671,1.4151482425627084
1970-01-01 00:00:00.000000008,0.07963669354806616,0.5688213719125232,-2.913476053572734,1.4041835009669952
1970-01-01 00:00:00.000000008,0.20862106188429738,0.5894063531169262,-2.8239763084373184,1.3947010299101572
1970-01-01 00:00:00.000000008,0.3372862148163343,0.5232280259676978,-2.6558064105116324,1.3862368231556164
1970-01-01 00:00:00.000000008,0.4754258247638746,0.4266484564467648,-2.493898666940908,1.3780059565524647
1970-01-01 00:00:00.000000008,0.582270792256695,0.33980400108744757,-2.3359338939003993,1.3688623595785485
1970-01-01 00:00:00.000000008,0.6331054735900088,0.32392892482985935,-2.2504471164543216,1.3625617568090018
1970-01-01 00:00:00.000000008,0.6702540337612142,0.38553925166296715,-2.1968759680220926,1.3549820094338278
1970-01-01 00:00:00.000000009,0.7235046493441254,0.5012243259617077,-2.1496105642507124,1.3429606066209399
1970-01-01 00:00:00.000000009,0.7643794556852159,0.6215945788603737,-2.1185322371899082,1.3344460517139067
1970-01-01 00:00:00.000000009,0.8523361041525381,0.7153998198720453,-2.1171893232731525,1.3260679590833333
1970-01-01 00:00:00.000000009,0.9291500089211474,0.8359756334492199,-2.153804415420833,1.3165785721255916
1970-01-01 00:00:00.000000009,0.9540072429670692,0.9835238107021197,-2.1579483656440965,1.3045496685779983
1970-01-01 00:00:00.000000009,0.9332469506475274,1.1521735084648315,-2.177795204012959,1.2946833852623045
1970-01-01 00:00:00.000000009,0.9047562893637734,1.3062439786798006,-2.2114390818743166,1.2883994471608295
1970-01-01 00:00:00.000000009,0.9077143202956118,1.4458218910172096,-2.2016520314661876,1.276924316032632
1970-01-01 00:00:00.000000009,0.8800397553660797,1.5976484304849965,-2.1164644160126156,1.260673090245495
1970-01-01 00:00:00.000000009,0.8319872678010629,1.7147221384604843,-1.9188507944916586,1.240700179803645
1970-01-01 00:00:00.000000009,0.7807558188667989,1.7307004691242949,-1.6616558740859604,1.2244975784542427
1970-01-01 00:00:00.000000009,0.746898166338035,1.7059405644769718,-1.5041077692477365,1.2178991278675435
1970-01-01 00:00:00.000000009,0.754044064931144,1.6760615639166572,-1.3528871034403067,1.210560318957204
1970-01-01 00:00:00.000000009,0.7750877887794291,1.5814040391291506,-1.2401616457841487,1.2063265146584752
1970-01-01 00:00:00.000000009,0.7357954055896176,1.4199240496485102,-1.2334007756535603,1.2137467867248917
1970-01-01 00:00:00.000000009,0.6234295264139998,1.2227274305891682,-1.3454771676534463,1.2364335089472682
1970-01-01 00:00:00.000000009,0.5244531362778161,0.9826242947614595,-1.4555750324870675,1.2642803261789017
1970-01-01 00:00:00.000000009,0.4940944951212223,0.7384883854076587,-1.524688852059963,1.284909808145622
1970-01-01 00:00:00.000000009,0.4552947223516758,0.6144748845705553,-1.5531111998067109,1.2916119199032565
1970-01-01 00:00:00.000000009,0.33813357874627703,0.5884036426059258,-1.4232433981126322,1.2800968266760226
1970-01-01 00:00:00.000000009,0.07985031447265767,0.5586396912557903,-1.088244323768018,1.2626332786408265
1970-01-01 00:00:00.000000009,-0.20497753447153338,0.4632763534847597,-0.4909450114395176,1.2348246816357733
1970-01-01 00:00:00.000000009,-0.4737126324867961,0.3630718411005569,0.24597900316885338,1.1962977666180161
1970-01-01 00:00:00.000000009,-0.7765740595573576,0.2424242112803109,0.78513895204857,1.1733905249258203
1970-01-01 00:00:00.000000009,-1.0756720814415177,0.14881464180231002,1.1692054804769327,1.1570938375386897
1970-01-01 00:00:00.000000009,-1.4090782189009383,0.3922101491580886,1.4000480526046655,1.1401967732199767
1970-01-01 00:00:00.000000009,-1.5328156446741246,0.942807796157038,1.88404035053992,1.0855821029167039
1970-01-01 00:00:00.000000009,-1.4279884319971974,1.4479676420208776,2.6034087069120515,1.0103019532949904
1970-01-01 00:00:00.000000009,-1.193004680065533,1.4528240055518606,3.458500203230714,0.9484907560183864
1970-01-01 00:00:00.000000009,-0.9874083011391505,0.8913018019764779,4.389118074414513,0.9173844061237979
1970-01-01 00:00:00.000000009,-0.8491195582566513,0.007328228478435561,5.192691386626317,0.9213064428144413
1970-01-01 00:00:00.000000009,-0.6761584423541804,-0.9191654625062944,5.837823535048536,0.9375783732437326
1970-01-01 00:00:00.000000009,-0.4880631277907765,-1.7150968785357896,6.288242897296566,0.9584231252039176
1970-01-01 00:00:00.000000009,-0.2851699989139009,-2.292067081450624,6.291117868468325,0.9916438365967256
1970-01-01 00:00:00.000000009,-0.01781954776363609,-2.53164771816714,5.711006153812144,0.9104417181967608
1970-01-01 00:00:00.000000009,0.3762775660327595,-2.32510641157872,4.643363181943054,0.9581388960246419
1970-01-01 00:00:00.000000009,0.8231426918794047,-1.8501572893752887,3.555867863733327,0.9859180233768258
1970-01-01 00:00:00.000000009,1.1474519004269683,-1.4106397340433896,2.5835698063673704,1.0106898464855893
1970-01-01 00:00:00.000000009,1.3644531566425622,-1.1345227744364812,1.803109663545354,1.0358420309189893
1970-01-01 00:00:00.000000009,1.4925934851615767,-1.0058466872191199,1.316019597879665,1.0532149206748682
1970-01-01 00:00:00.000000009,1.532153393504759,-0.98894269828533,1.0138145614000695,1.0658973533221523
1970-01-01 00:00:00.000000009,1.4557288101895718,-0.9736351970561616,0.7789445293508072,1.0785260322771493
1970-01-01 00:00:00.000000009,1.3206985121008399,-0.9009411321523164,0.6659542211504147,1.0831134520648353
1970-01-01 00:00:00.000000009,1.1808141061877233,-0.8205308012263584,0.7330640115404163,1.0773231871286941
1970-01-01 00:00:00.000000009,1.0637666918299742,-0.8128025896795238,0.8173620017206316,1.075741955514953
1970-01-01 00:00:00.000000009,0.9940267484335107,-0.8888578451835937,0.8219913098538005,1.0845323305374752
1970-01-01 00:00:00.000000009,0.9842009296300142,-0.9223092046995773,0.6404533899099734,1.1012224384001386
1970-01-01 00:00:00.000000009,1.0224749145191578,-0.920469318477581,0.31327158094286156,1.1220363133189102
1970-01-01 00:00:00.000000009,1.0594394412612822,-0.8599634674661745,-0.1117217777237846,1.1446983917646316
1970-01-01 00:00:00.000000009,1.077522928868137,-0.7942270077269962,-0.5754422841029072,1.1696790035335596
1970-01-01 00:00:00.000000009,1.0742879067428388,-0.7064986308769216,-1.0475527827689157,1.1948432577525405
1970-01-01 00:00:00.000000009,1.0703569384063842,-0.5426829623033061,-1.4699297870112378,1.2101834632568766
1970-01-01 00:00:00.000000009,1.0266208693389829,-0.33845161418589326,-1.783061729408045,1.2181414311348615
1970-01-01 00:00:00.000000009,0.9780150694564138,-0.1804178442394696,-2.007644130529623,1.2252693976860005
1970-01-01 00:00:00.000000009,0.9683459391386202,-0.04689072928632421,-2.187390343898285,1.2306132012059086
1970-01-01 00:00:00.000000009,1.0079320723079561,0.007670307718065393,-2.2085930005147154,1.225130632908164
1970-01-01 00:00:00.000000009,0.9828542885554653,0.0006594437132573794,-2.1979502639598842,1.2251257371789444
1970-01-01 00:00:00.000000009,0.9602749101435745,-0.001223658807703712,-2.147422457749748,1.2224473834010015
1970-01-01 00:00:00.000000009,0.947610064159999,0.013406319264369502,-1.9853515444976886,1.208599609258988
1970-01-01 00:00:00.000000009,0.8775077583127592,0.020767323866028354,-1.799496198767515,1.1978565553372855
1970-01-01 00:00:00.000000009,0.8226516580074906,-0.022205385180704737,-1.6705626325243323,1.1945520183738787
1970-01-01 00:00:00.000000009,0.8026537474959209,-0.11374356382108178,-1.5491257194654766,1.1921585445066827
1970-01-01 00:00:00.000000009,0.7699039684662058,-0.23528919951542174,-1.3422501545704522,1.1878517656049081
1970-01-01 00:00:00.000000009,0.7506398362214387,-0.31397917156082333,-1.2665428024022407,1.1854662221855858
1970-01-01 00:00:00.000000009,0.6688729597750731,-0.2518311162523957,-1.3640881939156315,1.1905949936055937
1970-01-01 00:00:00.000000009,0.6371715877875803,-0.15204778696369975,-1.2304252530296496,1.1745532292808807
1970-01-01 00:00:00.000000009,0.5661316237300015,-0.09519024484657401,-1.0991247509639865,1.161152527724378
1970-01-01 00:00:00.000000009,0.44593814818600863,-0.06517772607765841,-1.0930319251818523,1.1600175609187304
1970-01-01 00:00:00.000000009,0.3223180646113885,-0.04837763618882041,-1.0465065058846497,1.1560937839679946
1970-01-01 00:00:00.000000009,0.16132475146229924,-0.02429587797914036,-0.9459211606623443,1.1517786230837344
1970-01-01 00:00:00.000000009,0.03198464685349792,-0.04068646552958986,-0.6764402282802727,1.1393950868364746
1970-01-01 00:00:00.000000009,-0.051018838754913996,-0.19865963581570276,-0.1923859474009461,1.1180092208304218
1970-01-01 00:00:00.000000009,-0.17286701043671376,-0.3909657010816451,0.16417764886745728,1.1095533198228997
1970-01-01 00:00:00.000000009,-0.28782677191130357,-0.21161605057100305,0.020980709639992684,1.116270101030837
1970-01-01 00:00:00.000000009,-0.22211471969756774,-0.14264453431399632,0.3323246414337854,1.0903039818564
1970-01-01 00:00:00.000000009,-0.18356240470138613,-0.26439656104184833,0.5771744239372513,1.077868667782264
1970-01-01 00:00:00.000000009,-0.2154006748324903,-0.3129534842417487,0.6844939344461966,1.0758006216642344
1970-01-01 00:00:00.000000009,-0.20231960374446517,-0.2254911816688716,0.8640181379265557,1.059145892793832
1970-01-01 00:00:00.000000009,-0.18338060560999142,-0.12241838082134696,0.7968858295672496,1.0545699675909928
1970-01-01 00:00:00.000000009,-0.19791109096706538,-0.06811334637151388,0.6635910145250952,1.0564764301241731
1970-01-01 00:00:00.000000009,-0.2787099666630393,-0.010086457073686925,0.5766270767461404,1.0573906037227854
1970-01-01 00:00:00.000000009,-0.40776961670764644,-0.01904594061839497,0.5905151116203723,1.058786368215931
1970-01-01 00:00:00.000000009,-0.5417578018018482,-0.10852304651525539,0.7629118301116766,1.0560136750403946
1970-01-01 00:00:00.000000009,-0.6660808629110689,-0.19539903924343438,0.9737815774449569,1.0498015777500591
1970-01-01 00:00:00.000000009,-0.7952618514390426,-0.29096220287705304,1.1554795710825938,1.0454591782168983
1970-01-01 00:00:00.000000009,-0.9334345445569902,-0.434307761864732,1.4504395183573209,1.0344103545037406
1970-01-01 00:00:00.000000009,-1.1397240920763378,-0.6797691502806037,2.011965641755128,1.0197400543994533
1970-01-01 00:00:00.000000009,-1.28795829033309,-1.0471623610556642,2.744929743687082,1.0014094927626498
1970-01-01 00:00:00.000000009,-1.383290750473948,-1.4904225214910758,3.204329514527297,1.0020497707485938
1970-01-01 00:00:00.000000009,-1.4835153306788804,-1.8470692775498052,3.119143590203524,1.0316522029282018
1970-01-01 00:00:00.000000009,-1.6051103108861955,-2.0321687707094673,2.6108266226120476,1.0813803537823254
1970-01-01 00:00:00.000000009,-1.671629217649283,-1.945009098277651,1.949653653649924,1.122637226348009
1970-01-01 00:00:00.000000009,-1.6899949857239318,-1.6974803364101743,1.315418572312845,1.1459627478161356
1970-01-01 00:00:00.000000009,-1.7703461421294455,-1.4228839089541547,0.7807238746397901,1.1629744843558174
1970-01-01 00:00:00.000000009,-1.8866958589992522,-1.1761723607061796,0.30833888760731415,1.1791026182620228
1970-01-01 00:00:00.000000009,-2.0166026090764,-0.9457128009794515,-0.06751688010905951,1.1913946816773082
1970-01-01 00:00:00.000000009,-2.1370693427619276,-0.7769656172773747,-0.3001870020902909,1.2002028793122013
1970-01-01 00:00:00.000000009,-2.2072678241251924,-0.6697958709370445,-0.4249691817561643,1.2071874981500141
1970-01-01 00:00:00.000000009,-2.195824916398833,-0.6039070436676982,-0.7203650509710108,1.2280168689185786
1970-01-01 00:00:00.000000010,-2.061089185087968,-0.46236199944422696,-1.226554885814549,1.2531417151234654
1970-01-01 00:00:00.000000010,-1.8533009560499918,-0.34764223412644396,-1.6143921588217913,1.2695755904402808
1970-01-01 00:00:00.000000010,-1.5993393986152533,-0.3172920479943995,-2.0053471283984603,1.2626269445647527
1970-01-01 00:00:00.000000010,-1.8121492825599963,-0.28075088015310923,-1.3414881263673806,1.140385538202595
1970-01-01 00:00:00.000000010,-3.6737306141776527,0.8071122507354405,1.355261683354182,0.9784179976055661
1970-01-01 00:00:00.000000010,-4.42935125801176,2.781120045892221,2.141891972812537,0.8657802368551156
1970-01-01 00:00:00.000000010,-4.151857523890491,4.235679751474765,0.1783723457045453,0.9807406044281806
1970-01-01 00:00:00.000000010,-2.100932732651672,3.0931092991035203,-4.064962583612631,1.255633581708209
1970-01-01 00:00:00.000000010,-0.8527215323032038,0.4347623623134954,-5.150871065252412,1.4583985835119182
1970-01-01 00:00:00.000000010,-0.04145500142373343,-0.8566254816915799,-4.760656143254968,1.4995696518863055
1970-01-01 00:00:00.000000010,0.5690346577577559,-1.4663729998663435,-4.539567434511749,1.5078008293636205
1970-01-01 00:00:00.000000010,1.0165668083861377,-1.5758794445175253,-4.648098518379935,1.5011602549390162
1970-01-01 00:00:00.000000010,1.1855196339642082,-1.5018937584842098,-4.628614318123788,1.4845457414376801
1970-01-01 00:00:00.000000010,1.2099882465454366,-1.4904097654766222,-4.089645801882967,1.446958476783056
1970-01-01 00:00:00.000000010,1.220258226382962,-1.5627686703846961,-3.3654210937164164,1.3902758145300944
1970-01-01 00:00:00.000000010,0.9404541419496134,-1.8285204180279058,-2.400899811577975,1.3468538762370912
1970-01-01 00:00:00.000000010,0.6295431075765018,-2.0992850446250806,-1.2508762471452228,1.3133178594403276
1970-01-01 00:00:00.000000010,0.7168129216820711,-1.8097687282323869,-1.0803518027261196,1.2856768310939155
1970-01-01 00:00:00.000000010,0.8891523073658302,-1.27799918543517,-1.4321509942457729,1.2669694561348934
1970-01-01 00:00:00.000000010,0.9874027974088788,-0.7476720362931684,-1.889187799685719,1.2515771705975294
1970-01-01 00:00:00.000000010,0.902882357437387,-0.32031999990260024,-2.23709380269087,1.2449813884014458
1970-01-01 00:00:00.000000010,0.7705252071860402,-0.15641353163348715,-2.267790443524236,1.2380161895103325
1970-01-01 00:00:00.000000010,0.6305803725464685,-0.23256520501009836,-2.0729680232720518,1.2322773213942555
1970-01-01 00:00:00.000000010,0.4967510609428796,-0.3221511487566014,-1.6516503299385816,1.2147087868424125
1970-01-01 00:00:00.000000010,0.4045351412397421,-0.2212749790732136,-1.2773500527247272,1.1896421995210722
1970-01-01 00:00:00.000000010,0.4031794881914457,0.23002565976611428,-1.4545021476427786,1.1684709900380796
1970-01-01 00:00:00.000000010,0.3543443789700621,0.8267036468308061,-1.5994720795577844,1.1343518294048567
1970-01-01 00:00:00.000000010,0.20460610376060662,1.3409156738841657,-1.481301131198898,1.0895127169368315
1970-01-01 00:00:00.000000010,-0.06280771275175856,1.7628272350185945,-1.260850775835576,1.0478406586917532
1970-01-01 00:00:00.000000010,-0.39581793767188117,2.1767249360062397,-0.8903645519733012,1.004031775954125
1970-01-01 00:00:00.000000010,-0.6793779363052102,2.532683351067087,-0.5050548135262996,0.9654960498121483
1970-01-01 00:00:00.000000010,-0.8074696529379755,2.645640310121259,-0.05620064592060306,0.8848177801151996
1970-01-01 00:00:00.000000010,-0.62871046880242,2.2287986617201545,0.5668310131832587,0.8797993956326432
1970-01-01 00:00:00.000000010,-0.1768739736478427,1.1840979647485845,1.2628124102942497,0.8979620532130065
1970-01-01 00:00:00.000000010,0.35321578953035926,0.40284422111299,1.690101899382687,0.9021956185609182
1970-01-01 00:00:00.000000010,0.6841649640757048,0.2330657930973133,1.9103086608335345,0.8777111785481517
1970-01-01 00:00:00.000000010,0.6831689951937616,0.31610120408020126,2.064400954688513,0.8481969566260809
1970-01-01 00:00:00.000000010,0.3948425399590039,0.4795863580894327,2.2564367567776684,0.8275480341985983
1970-01-01 00:00:00.000000010,0.06541888983405314,0.5826268107374684,2.559287824711482,0.8215180559602344
1970-01-01 00:00:00.000000010,0.06402872828474027,0.5783092937843015,2.9213062723945087,0.8064329815110098
1970-01-01 00:00:00.000000010,0.2339474851381499,0.2387568814549067,3.523014289956386,0.7852269476742066
1970-01-01 00:00:00.000000010,0.37895944406164583,-0.38776271797222933,4.444190332957579,0.7648271250433953
1970-01-01 00:00:00.000000010,0.5423468191013145,-0.9367282702225499,4.991746696380828,0.7627491678011269
1970-01-01 00:00:00.000000010,0.7098330268554074,-1.3213278918629126,4.9155431554985745,0.7879948345819218
1970-01-01 00:00:00.000000010,0.8334896308061717,-1.5479941097557504,4.419049202400818,0.8302638090520735
1970-01-01 00:00:00.000000010,0.8948905766691936,-1.6058809666181864,3.7674174142475567,0.873781857569307
1970-01-01 00:00:00.000000010,0.9058151935539207,-1.5315608332575432,3.0804521379609136,0.917099243818106
1970-01-01 00:00:00.000000010,0.978911349005074,-1.3071999187260597,2.3438519233065356,0.9529810809500834
1970-01-01 00:00:00.000000010,1.1125104910450727,-1.2188098147374518,1.7475769489242206,0.9834388422639739
1970-01-01 00:00:00.000000010,1.2250203913598612,-1.3178951146197257,1.373495662212869,1.008659367563806
1970-01-01 00:00:00.000000010,1.2530456143898074,-1.46528110025116,1.2358831105672334,1.02546300452391
1970-01-01 00:00:00.000000010,1.2522486573665672,-1.5215195597699083,1.2185233554940946,1.0280385297945853
1970-01-01 00:00:00.000000010,1.1936176966258036,-1.4420759988351621,1.0879185024745355,1.0312700574522824
1970-01-01 00:00:00.000000010,1.105053158073435,-1.3122155437377854,0.7575930763600311,1.0445916292798636
1970-01-01 00:00:00.000000010,0.9919969490763303,-1.2248291887642504,0.38000905256707607,1.0616401692459538
1970-01-01 00:00:00.000000010,0.7981706988471997,-1.173405675516513,0.08741822033148147,1.0804815605625073
1970-01-01 00:00:00.000000010,0.5998967782410264,-1.0978129688119647,-0.1604060222474531,1.0966947901325177
1970-01-01 00:00:00.000000010,0.4273193539871234,-1.0079787207140554,-0.4588150593202357,1.1158652775291034
1970-01-01 00:00:00.000000010,0.3087115612171573,-0.893421363091148,-0.7534094520225276,1.1318805733508053
1970-01-01 00:00:00.000000010,0.23100326205465016,-0.7890446307204192,-1.0578866932614883,1.1462853977903118
1970-01-01 00:00:00.000000010,0.1471170504149611,-0.6918522398489141,-1.3405998395263918,1.1627783363200261
1970-01-01 00:00:00.000000010,0.12502282513603113,-0.5921967621692895,-1.589539890920121,1.1735205087025171
1970-01-01 00:00:00.000000010,0.10791795255114826,-0.5114586961238463,-1.790975572718844,1.1842987840671304
1970-01-01 00:00:00.000000010,0.14064482607123396,-0.45064097854594026,-2.000253517860072,1.1951154585597363
1970-01-01 00:00:00.000000010,0.20345506601895608,-0.4095642921598935,-2.2195859770464295,1.2061237723235951
1970-01-01 00:00:00.000000010,0.26892279649168155,-0.3842660383607843,-2.4552389909830845,1.219577008408907
1970-01-01 00:00:00.000000010,0.34973706548557293,-0.3336999089185667,-2.6899479448341816,1.2303960322007241
1970-01-01 00:00:00.000000010,0.4337038935115909,-0.27012798854576414,-2.8178520056449923,1.232641117726598
1970-01-01 00:00:00.000000010,0.5052392715114062,-0.16073532412319674,-2.8430357498867345,1.2259563469324644
1970-01-01 00:00:00.000000010,0.5770441383292975,-0.10145222398264876,-2.725839702498933,1.2124755310689967
1970-01-01 00:00:00.000000010,0.6412487225472756,-0.028382514593392666,-2.45454400876951,1.1869969435665715
1970-01-01 00:00:00.000000010,0.6692202834663027,0.028966974185252632,-2.10300589005367,1.156306332273757
1970-01-01 00:00:00.000000010,0.6231292846859475,0.03785927986114991,-1.8492465604136434,1.1366642329119787
1970-01-01 00:00:00.000000010,0.5182433670119863,-0.03947617077450989,-1.6093609939550015,1.1269399463305234
1970-01-01 00:00:00.000000010,0.4024691224584518,-0.14683483000272804,-1.3966192156012074,1.1236171216035005
1970-01-01 00:00:00.000000010,0.3286462198152387,-0.1441332047414841,-1.318426792719942,1.117675114342811
1970-01-01 00:00:00.000000010,0.21681854971558967,-0.06272038531736739,-1.2688628751372535,1.111674021173515
1970-01-01 00:00:00.000000010,0.11507991012206914,0.04174904783337412,-1.349804589325091,1.1146114468240536
1970-01-01 00:00:00.000000010,0.08016455102275373,0.19374611141779893,-1.4220596020408731,1.112658220496411
1970-01-01 00:00:00.000000010,0.09425243185104372,0.2506324904092816,-1.4845681358163938,1.1144187793622824
1970-01-01 00:00:00.000000010,0.15222799610332804,0.3254471401388867,-1.409164054495682,1.1047865756124449
1970-01-01 00:00:00.000000010,0.2247728056273385,0.29482662294432727,-1.3044750059633554,1.0992268345985463
1970-01-01 00:00:00.000000010,0.3164056076567229,0.27184131212022516,-1.1746914737526424,1.0873293341317234
1970-01-01 00:00:00.000000010,0.33590160577417083,0.23747626606855415,-0.9696073235911946,1.0772743915459397
1970-01-01 00:00:00.000000010,0.3947526116339953,0.32441970867145226,-0.8203044262688967,1.0595028173705041
1970-01-01 00:00:00.000000010,0.4194525309057665,0.4163440965855107,-0.7841239571441763,1.049811648803664
1970-01-01 00:00:00.000000010,0.4395929775724223,0.5389273792845042,-0.7289859364766867,1.0334899232967447
1970-01-01 00:00:00.000000010,0.36876972763586957,0.6739173584131679,-0.6092741134093292,1.0196602373466401
1970-01-01 00:00:00.000000010,0.3454069190656396,0.7795203666481221,-0.34873605679813324,0.9960372966607561
1970-01-01 00:00:00.000000010,0.33282081243072,0.8299755084361176,0.15024354720973881,0.956211482664938
1970-01-01 00:00:00.000000010,0.24342894636374038,0.8394387462785993,0.8649322166126542,0.9073148632652767
1970-01-01 00:00:00.000000010,0.09691090593054641,0.7813738792115023,1.649429539457279,0.8638148064440745
1970-01-01 00:00:00.000000010,-0.005839112133010804,0.7947762516417898,2.2067856079437735,0.8288269127558179
1970-01-01 00:00:00.000000010,-0.09352106294782436,0.8514218045500339,2.3576187644576283,0.8143704702172867
1970-01-01 00:00:00.000000010,-0.22088577498288225,0.9745383784439487,2.229846939647086,0.8161234331669279
1970-01-01 00:00:00.000000010,-0.3585259944632921,1.1939760023227284,1.831110194899799,0.8298455569969413
1970-01-01 00:00:00.000000010,-0.5040306733150851,1.4006323709986706,1.3479470093764712,0.8535470353006072
1970-01-01 00:00:00.000000010,-0.5692318230935874,1.6397504163195333,1.0801114599431392,0.858598540618804
1970-01-01 00:00:00.000000011,-0.6233346566711382,1.553433358192393,0.745866897652032,0.8854397927919802
1970-01-01 00:00:00.000000011,-0.6865660173348429,1.0219393794017217,1.0272839011883041,0.8932867321124254
1970-01-01 00:00:00.000000011,-0.9415357442476329,0.30483927629205176,2.0067078250701047,0.8752331077026237
1970-01-01 00:00:00.000000011,-1.3097527549438677,-0.30343679196345097,3.1416695032572957,0.8518710462323638
1970-01-01 00:00:00.000000011,-1.549145429301675,-0.4504142348616132,4.115587187320408,0.7985253078358702
1970-01-01 00:00:00.000000011,-1.890146815181017,-0.6561782928112451,4.68075381088261,0.785903264646195
1970-01-01 00:00:00.000000011,-2.1286689834755133,-0.736528248960918,4.294637128591164,0.8267560025135892
1970-01-01 00:00:00.000000011,-2.2336381848102485,-0.7409311481542054,3.26360194205822,0.9016838270213952
1970-01-01 00:00:00.000000011,-2.2245317036566985,-0.6857712993555405,2.1554567588278557,0.9775705217322199
1970-01-01 00:00:00.000000011,-2.0846251617713283,-0.5994543486258289,1.1091701321134158,1.0441815883892602
1970-01-01 00:00:00.000000011,-1.830552788693297,-0.5022774431276341,0.2893554786485926,1.0885727780131496
1970-01-01 00:00:00.000000011,-1.5632523355277708,-0.5752982104953228,-0.15983380327644425,1.1100435661119072
1970-01-01 00:00:00.000000011,-1.4879699159815625,-0.6594108378542457,-0.48350476472075,1.1299886522213305
1970-01-01 00:00:00.000000011,-1.515762983388786,-0.6260243627733606,-0.5420247953878569,1.1284418354811232
1970-01-01 00:00:00.000000011,-1.6303041435677026,-0.5845968610586875,-0.49251461478358194,1.1226127445579577
1970-01-01 00:00:00.000000011,-1.7861273023209139,-0.5940015751285745,-0.4417804930862247,1.1222133210875178
1970-01-01 00:00:00.000000011,-1.9484367503752007,-0.6271974904545318,-0.3593105215862013,1.1294168445844603
1970-01-01 00:00:00.000000011,-1.9521862881938343,-0.697227101073378,-0.3665000236708026,1.141166791584475
1970-01-01 00:00:00.000000011,-1.824261149650122,-0.8484512582628766,-0.43670713726167665,1.1575912512813042
1970-01-01 00:00:00.000000011,-1.613276358793559,-1.0298187135225136,-0.4934545238926934,1.1709568943336808
1970-01-01 00:00:00.000000011,-1.3778429946863835,-1.113895545187223,-0.543806546183277,1.1770251002069891
1970-01-01 00:00:00.000000011,-1.1303645814270002,-1.0922224790641708,-0.7361836955874292,1.1878810815445033
1970-01-01 00:00:00.000000011,-0.7947669518322312,-0.9646485811103533,-0.9216904262422746,1.1832486527507586
1970-01-01 00:00:00.000000011,-0.5367019240365367,-0.7755248443528087,-1.2216934463914064,1.188618652109699
1970-01-01 00:00:00.000000011,-0.2615580019622692,-0.7674069339806999,-2.1069173438909368,1.2425919794670366
1970-01-01 00:00:00.000000011,0.09554930796158145,-0.6876822549544684,-2.658294720492264,1.2441666544931163
1970-01-01 00:00:00.000000011,-0.04349863726933434,-0.30867249138331004,-2.425698650993448,1.2172708930749898
1970-01-01 00:00:00.000000011,0.014748125072334528,0.059486033649405134,-2.6296078102865263,1.2041302473970883
1970-01-01 00:00:00.000000011,0.0465381702779846,0.20055431437637666,-2.78795331228363,1.2060264439266914
1970-01-01 00:00:00.000000011,0.10396819388444613,0.09383767216401938,-2.9067744037202536,1.2229626990959792
1970-01-01 00:00:00.000000011,0.2558850781851786,0.10011804060383672,-2.9279003816115576,1.2070433810375867
1970-01-01 00:00:00.000000011,0.15596932373483252,0.2250045400232244,-3.030880783908137,1.1088854476237087
