time,ax,ay,az,speed
1970-01-01 00:00:00.000000000,-0.21276851281542475,1.404152206697758,0.961585892087619,0.8120732059357281
1970-01-01 00:00:00.000000000,0.3110407519865388,1.0001881823568968,0.6793061372398065,0.7125455053038281
1970-01-01 00:00:00.000000000,0.40358779846900583,0.691409375503642,0.720160471952272,0.7213292767380006
1970-01-01 00:00:00.000000000,0.34329401123681547,0.43886064907927846,0.786022298309355,0.7385338403652195
1970-01-01 00:00:00.000000000,0.26299850565458216,0.23365041500434264,0.8282638477679192,0.7490998593957188
1970-01-01 00:00:00.000000000,0.07009731983116427,0.1707197789047334,0.8781208142911293,0.7423747670911106
1970-01-01 00:00:00.000000000,-0.3594780626145876,0.32513776961510527,1.3303522922841506,0.6985661871610588
1970-01-01 00:00:00.000000000,-0.8360070109045232,0.3907666450667822,2.574157721744594,0.6058721115263287
1970-01-01 00:00:00.000000000,-1.1579093453319564,0.3583156075082459,4.054660155139963,0.49692796527520794
1970-01-01 00:00:00.000000000,-1.3199751766413517,0.20369894479273798,5.071610654171447,0.43532031894653456
1970-01-01 00:00:00.000000000,-1.3066506628667138,-0.12008400541290526,5.367187600180341,0.4492739198776951
1970-01-01 00:00:00.000000000,-1.0932825612739092,-0.5465177478228067,4.741903893816172,0.5487180417747515
1970-01-01 00:00:00.000000000,-0.6431459927154858,-0.7854802877284903,3.514632430930655,0.6707212870201906
1970-01-01 00:00:00.000000000,-0.07639521773650962,-0.6802550525424125,2.384366709615498,0.7461448569795558
1970-01-01 00:00:00.000000000,0.5214697567826521,-0.49622074315468884,1.698454116449857,0.764568420095101
1970-01-01 00:00:00.000000000,0.9545542053683204,-0.5310042151330039,1.1605952320317194,0.7880964639944839
1970-01-01 00:00:00.000000000,1.138979507054763,-0.733898609276066,0.7446116045669439,0.8252237448215973
1970-01-01 00:00:00.000000000,1.1321823500763748,-1.030365980921714,0.9478103456748106,0.8260300814928971
1970-01-01 00:00:00.000000000,0.9439503685432531,-1.4071702381523392,1.0250803661107892,0.860594273849688
1970-01-01 00:00:00.000000000,0.7916084291705565,-1.5469742756405724,0.7706157128673836,0.9054646669047974
1970-01-01 00:00:00.000000000,0.7157835294184717,-1.4489431113083904,0.19373597414332122,0.9533370063198283
1970-01-01 00:00:00.000000000,0.673821008066952,-1.3573768075299295,-0.44763148884167264,1.005940606791833
1970-01-01 00:00:00.000000000,0.6685441375624802,-1.316602661146542,-0.896158142015315,1.0448805888180752
1970-01-01 00:00:00.000000000,0.6890584117622223,-1.2706270834429119,-1.3283703855880482,1.0802964321852047
1970-01-01 00:00:00.000000000,0.7216945280123921,-1.1935811488686356,-1.9230948259185832,1.1240637040310906
1970-01-01 00:00:00.000000000,0.735269509853389,-0.9039347275133385,-2.5430607057167705,1.1507459660563637
1970-01-01 00:00:00.000000000,0.704975806984264,-0.5846158749140818,-2.861503609356753,1.1533111794734092
1970-01-01 00:00:00.000000000,0.6911107333522963,-0.42260826319337574,-3.0094511149420837,1.1509346926044315
1970-01-01 00:00:00.000000000,0.6444822486111788,-0.2995912448247092,-3.1174605075971025,1.152334688233861
1970-01-01 00:00:00.000000000,0.622860292731352,-0.18124013784469023,-3.176867380950458,1.1514102798442973
1970-01-01 00:00:00.000000000,0.6710916287971909,-0.09428171457876294,-3.1583480156620776,1.139546810870601
1970-01-01 00:00:00.000000000,0.7025367102484587,-0.06135021865301951,-3.045513104796681,1.1235627316961236
1970-01-01 00:00:00.000000000,0.6993982766006986,-0.1029599877446806,-2.86129161254025,1.1100543271380265
1970-01-01 00:00:00.000000000,0.6851634327268943,-0.17340966572313266,-2.6642006490598273,1.0972570666660384
1970-01-01 00:00:00.000000000,0.6402043796317387,-0.21511778714152402,-2.4581427124367012,1.0840628533886227
1970-01-01 00:00:00.000000000,0.6010405538620816,-0.19471230180614268,-2.2655943014392212,1.0666914410239328
1970-01-01 00:00:00.000000000,0.5715573952115411,-0.16626491716505498,-2.0870539819629883,1.0466486796220698
1970-01-01 00:00:00.000000000,0.49457365233839434,-0.15526868856300424,-1.945691438474112,1.0361878627645322
1970-01-01 00:00:00.000000000,0.43851825007278156,-0.13683478632165946,-1.8074599691236237,1.0237716836399526
1970-01-01 00:00:00.000000000,0.3812409587939633,-0.09026897075546184,-1.6567261564973854,1.008842347785774
1970-01-01 00:00:00.000000000,0.33875679729600255,0.026914933446981704,-1.5968038987830058,0.996507245003958
1970-01-01 00:00:00.000000000,0.34028167317994135,0.1962447531708786,-1.5777065312968495,0.9803190275732522
1970-01-01 00:00:00.000000000,0.35877743148924035,0.3042344279814906,-1.4687314204171955,0.9588407061938145
1970-01-01 00:00:00.000000000,0.35199777260961534,0.343859432477485,-1.2522671898193087,0.9383478507130848
1970-01-01 00:00:00.000000000,0.3872518319514402,0.3195863321210453,-1.0028666214937003,0.9203605271751427
1970-01-01 00:00:00.000000000,0.4879642525138584,0.31895474468953705,-0.7911483806118209,0.899562773819775
1970-01-01 00:00:00.000000000,0.6213009011297406,0.34004404693571016,-0.5602873825862273,0.8698798193032611
1970-01-01 00:00:00.000000000,0.7117397587925185,0.4024066912042379,-0.29643878058677997,0.831557696903058
1970-01-01 00:00:00.000000000,0.7003100317255396,0.5246859982506911,0.056189689415162336,0.786120560656527
1970-01-01 00:00:00.000000000,0.6346206428719946,0.6578735704087916,0.45731870364055016,0.7416489305728267
1970-01-01 00:00:00.000000000,0.5954384272057385,0.7490684754023343,0.8025833814954005,0.7037618183307398
1970-01-01 00:00:00.000000000,0.567893535914869,0.7660128471421326,1.1614701784231063,0.6631509269502553
1970-01-01 00:00:00.000000000,0.3983820272340284,0.6654437285096592,1.5392767670029082,0.6376717213058548
1970-01-01 00:00:00.000000000,0.12074573611315287,0.575809519185136,1.7738442272218937,0.6330204257795136
1970-01-01 00:00:00.000000000,-0.15824616812188214,0.6045479495853375,1.8276520280846191,0.6312076157426045
1970-01-01 00:00:00.000000000,-0.4945314336336904,0.7572242455886735,1.8329996570324167,0.624017506145677
1970-01-01 00:00:00.000000000,-0.9016059033744384,1.0313975697845899,1.8542296002664447,0.6123491195717967
1970-01-01 00:00:00.000000000,-1.280881289107123,1.322775993820942,1.9634654053870542,0.5958677584235335
1970-01-01 00:00:00.000000000,-1.537286534890982,1.3324042420079432,2.3081863238113898,0.5791235173962976
1970-01-01 00:00:00.000000000,-1.6780844203275878,0.9751878911054441,2.9306146882323465,0.5677097428936521
1970-01-01 00:00:00.000000000,-1.6829135365757373,0.3595607567773804,3.6803021974003722,0.5651246605759228
1970-01-01 00:00:00.000000000,-1.5172385617100579,-0.351333380593949,4.353258719099772,0.560563351083637
1970-01-01 00:00:00.000000000,-1.4130869093808556,-1.0376050480047112,4.665640203102444,0.582235984396568
1970-01-01 00:00:00.000000000,-1.4788449245948847,-1.6196709789124535,4.413358701286941,0.6583333451496427
1970-01-01 00:00:00.000000000,-1.554328853894316,-1.8308104991552776,3.607745615121325,0.7596583990253687
1970-01-01 00:00:00.000000000,-1.4774651043383482,-1.5368536807119408,2.521131724556866,0.8319954270085376
1970-01-01 00:00:00.000000000,-1.3441515706596934,-0.9505623090209243,1.4264875189602648,0.8720878821566143
1970-01-01 00:00:00.000000000,-1.2505508106268621,-0.3958964644773746,0.47646348574589864,0.9010027705008924
1970-01-01 00:00:00.000000000,-1.2296355097816751,0.03177063569878347,-0.2915605362540068,0.9295929698397064
1970-01-01 00:00:00.000000000,-1.229393952487056,0.2998925240122902,-0.8024090689363369,0.9483894917441498
1970-01-01 00:00:00.000000000,-1.287444079368692,0.3963996335010297,-1.042412204159112,0.9621886090255514
1970-01-01 00:00:00.000000000,-1.3658354515597086,0.39039031645294836,-1.1052277074222505,0.9723888687883993
1970-01-01 00:00:00.000000000,-1.4184387625563235,0.37362464811687957,-1.0692501588533447,0.9759897665547669
1970-01-01 00:00:00.000000000,-1.4030192096247065,0.32849581365665387,-0.8835059506641932,0.964548640049396
1970-01-01 00:00:00.000000000,-1.366408377764358,0.17887814872993002,-0.6022946809627148,0.9541325238013183
1970-01-01 00:00:00.000000000,-1.2925829685126369,-0.03944584666796297,-0.41911048404852663,0.9605626347720058
1970-01-01 00:00:00.000000000,-1.1133067987966772,-0.20511576665924144,-0.42488814624181676,0.9740520380537432
1970-01-01 00:00:00.000000000,-0.8641491855167036,-0.29988715452685377,-0.6040767658758147,0.991828272189012
1970-01-01 00:00:00.000000000,-0.5934902004184597,-0.38751219014332167,-0.8808593169826826,1.0138297073773028
1970-01-01 00:00:00.000000000,-0.3591664155224722,-0.456834582887198,-1.2230173962009685,1.0418744043590609
1970-01-01 00:00:00.000000000,-0.1471250249838851,-0.4465181952608923,-1.640107027893331,1.0714757437727038
1970-01-01 00:00:00.000000000,0.06671675984231354,-0.34696296897635004,-2.057678636738435,1.0943575785897215
1970-01-01 00:00:00.000000000,0.3000365460793313,-0.23967835299166285,-2.48541254993559,1.1121756731637924
1970-01-01 00:00:00.000000000,0.4724945674547247,-0.1371078011582511,-2.811215450882256,1.125823538378183
1970-01-01 00:00:00.000000000,0.631508805980739,-0.06823916218549059,-3.0234115077896466,1.1332461600480754
1970-01-01 00:00:00.000000000,0.7902676931816033,-0.004295977098223019,-3.119841658686373,1.1270695645769677
1970-01-01 00:00:00.000000000,0.8791111582098647,0.062026902719186136,-3.1025341545567473,1.111604386620975
1970-01-01 00:00:00.000000000,0.8862235321891245,0.16832926014165955,-2.9092736047203824,1.0797489647200025
1970-01-01 00:00:00.000000000,0.8045632698719403,0.2849392930631595,-2.645777000936021,1.0478870136818637
1970-01-01 00:00:00.000000000,0.7137505274462947,0.3838201389929841,-2.4179169341228564,1.0261820720248902
1970-01-01 00:00:00.000000000,0.7146716820299838,0.46867782878824843,-2.247506851340229,1.003695480936261
1970-01-01 00:00:00.000000000,0.7258378172594987,0.4749551124292169,-2.0602941779238466,0.9822629682988799
1970-01-01 00:00:00.000000000,0.6482679029756794,0.3879445979174685,-1.8476015614867631,1.0044322351555945
1970-01-01 00:00:00.000000000,0.5652571021047673,0.33824783546201675,-1.7362491780991713,1.004296481545763
1970-01-01 00:00:00.000000001,0.5192121646791851,0.35259997079395633,-1.6732732359538862,0.9976160743409948
1970-01-01 00:00:00.000000001,0.45453251976066505,0.4530694702120777,-1.67101009841849,0.9806459164223783
1970-01-01 00:00:00.000000001,0.18955778430657957,0.6218769348816646,-1.702398211395823,0.9996151755367509
1970-01-01 00:00:00.000000001,0.3842624303426074,0.7518115910679422,-1.3795377897936616,0.9513579390689814
1970-01-01 00:00:00.000000001,0.5268615142765886,0.8576176522257627,-1.1145404847600489,0.895821104122732
1970-01-01 00:00:00.000000001,0.30609396862240074,0.8222129194100827,-1.2947073983452162,0.9323500691511877
1970-01-01 00:00:00.000000001,0.33317572598376005,0.7227468669225174,-1.2119435754847372,0.936436754559418
1970-01-01 00:00:00.000000001,0.40978341253673717,0.7377168846283648,-1.1320047426121946,0.9253969976076083
1970-01-01 00:00:00.000000001,0.48480902626373773,0.7723949196342889,-1.0253985734535445,0.9042583789609903
1970-01-01 00:00:00.000000001,0.44248235031160027,0.7462280348086906,-0.9244746513222264,0.8970516201743824
1970-01-01 00:00:00.000000001,0.3818734861767594,0.6634324420887016,-0.6477465903582248,0.8819960841597057
1970-01-01 00:00:00.000000001,0.3366846943336106,0.569740599576164,-0.16139059035992587,0.8483256466515617
1970-01-01 00:00:00.000000001,0.2856461544963279,0.4843402971974634,0.3049772013700186,0.8157632226862566
1970-01-01 00:00:00.000000001,0.2336723961656777,0.34427288663845373,0.7326004892334901,0.7922971242844753
1970-01-01 00:00:00.000000001,0.2067079238416189,0.21828508903074903,1.1324934549241563,0.7617068765085678
1970-01-01 00:00:00.000000001,0.04996581138464354,0.24238451649954648,1.2876827930265833,0.74493883727871
1970-01-01 00:00:00.000000001,-0.2049971604851335,0.4356581252751144,1.244503225611708,0.7393932953586784
1970-01-01 00:00:00.000000001,-0.4667568481635137,0.768099527713922,1.061618960275024,0.7445850957150443
1970-01-01 00:00:00.000000001,-0.5604990396144328,1.1823099373287893,0.548489516142041,0.7718753997996322
1970-01-01 00:00:00.000000001,-0.3576798110512055,1.552030429512298,0.1453596249089763,0.7720026447478845
1970-01-01 00:00:00.000000001,-0.06855631000619389,1.586090407342882,0.48979910423989764,0.7139650527568815
1970-01-01 00:00:00.000000001,-0.05788615863074492,1.1362336142023017,1.4430392350248713,0.6470671216685566
1970-01-01 00:00:00.000000001,-0.4200889528185223,0.3902752776563709,2.7703183429686784,0.583095630355178
1970-01-01 00:00:00.000000001,-1.203940575682282,-0.6780545436689333,4.77630259894087,0.545451768256831
1970-01-01 00:00:00.000000001,-1.6545156363600984,-1.2771059160043183,5.2354938691481046,0.5929344498165854
1970-01-01 00:00:00.000000001,-1.7334014014718613,-1.10996357132688,4.275873485178872,0.6858102904357577
1970-01-01 00:00:00.000000001,-1.5000756313188548,-0.8035804534955997,2.3514202870070284,0.8404637447985625
1970-01-01 00:00:00.000000001,-0.8768025543907344,0.007037969593941026,1.0562209066591992,0.8786477582977075
1970-01-01 00:00:00.000000001,-0.030029502593379942,0.9417071146064897,-0.1353543251341703,0.8593175078379781
1970-01-01 00:00:00.000000001,0.5448845424979536,1.6300894084433093,-0.7497524016198112,0.8121505335136527
1970-01-01 00:00:00.000000001,0.7320330910627336,1.9840343293975493,-0.6946331025659698,0.7602646095894349
1970-01-01 00:00:00.000000001,0.7455105909457623,1.6855713316936574,-0.2586075212582325,0.7399180683282001
1970-01-01 00:00:00.000000001,0.6294852974892909,1.0314200735911911,0.2172584758537039,0.7507419790560503
1970-01-01 00:00:00.000000001,0.3579594345583098,0.3906339587911871,0.6024496728309946,0.7861689662318613
1970-01-01 00:00:00.000000001,0.1448873469708196,-0.14398533444342312,0.6392005423688656,0.8443282575138646
1970-01-01 00:00:00.000000001,0.05691910403393549,-0.42372353182719646,0.5104794280647414,0.893398740102858
1970-01-01 00:00:00.000000001,0.1388745278382772,-0.4346644009360153,0.2556296393340183,0.9175136457421706
1970-01-01 00:00:00.000000001,0.25872919947402934,-0.2869044128823794,-0.08316828548338039,0.932970872022601
1970-01-01 00:00:00.000000001,0.40420976483301035,-0.15463412353811218,-0.5940527240351748,0.9580108187421947
1970-01-01 00:00:00.000000001,0.4691977967842081,-0.10150230573737096,-1.1695406465570448,0.9982261474499503
1970-01-01 00:00:00.000000001,0.4563933086889243,-0.06718305595275463,-1.714799657586881,1.0410305343486255
1970-01-01 00:00:00.000000001,0.37921803495828577,-0.018862949534025092,-2.18647285283575,1.0813658319399477
1970-01-01 00:00:00.000000001,0.28849043631410365,-0.0006948830486924185,-2.6285456705611443,1.1254589229712415
1970-01-01 00:00:00.000000001,0.254281408746889,0.07445706527646165,-2.959904294257994,1.158571342864747
1970-01-01 00:00:00.000000001,0.38899481903995725,0.23252124810169414,-3.067384671816157,1.1556432334895523
1970-01-01 00:00:00.000000001,0.6186676706959933,0.26664156745418943,-3.046456910793304,1.1350111918621104
1970-01-01 00:00:00.000000001,0.676373396157208,0.09603052044936902,-3.0577224723151035,1.147078690599397
1970-01-01 00:00:00.000000001,0.7110725459414694,-0.1283202095823539,-2.9665525359756106,1.159801056584514
1970-01-01 00:00:00.000000001,0.7843492548296485,-0.34420685893558756,-2.822726678789056,1.1622094539438144
1970-01-01 00:00:00.000000001,0.8157298768162874,-0.48928071025389125,-2.82108351990428,1.1740287678471188
1970-01-01 00:00:00.000000001,0.8542284935892068,-0.500566636298832,-2.980722677005831,1.1805632560731263
1970-01-01 00:00:00.000000001,0.756467883179561,-0.3192971034685008,-3.2017073929070965,1.18609080899738
1970-01-01 00:00:00.000000001,0.6477219916259632,-0.07056037949423283,-3.1654821536293,1.171973661236643
1970-01-01 00:00:00.000000001,0.669388038331279,0.08329822399070452,-3.0971793882174694,1.1545197077825162
1970-01-01 00:00:00.000000001,0.7460711665276498,0.18114775749668555,-3.0968259979889274,1.1397840756687374
1970-01-01 00:00:00.000000001,0.7683903708176381,0.282583502111058,-3.0422302837923962,1.1227329054885788
1970-01-01 00:00:00.000000001,0.755128522031085,0.34584705241842806,-2.8961514114891895,1.0994349219634818
1970-01-01 00:00:00.000000001,0.6478342051682332,0.30179525991405937,-2.6573494796880692,1.0867086307770815
1970-01-01 00:00:00.000000001,0.5678069877240297,0.11136087916848031,-2.2935486261813285,1.078624319449073
1970-01-01 00:00:00.000000001,0.5764127361348483,-0.03771745152176251,-2.011129356364483,1.071672361715219
1970-01-01 00:00:00.000000001,0.6874804727748781,0.038347541342899846,-1.8388643840606884,1.0527993549848693
1970-01-01 00:00:00.000000001,0.9393015476349775,0.1913821452027135,-1.519927935851488,1.000381596822874
1970-01-01 00:00:00.000000001,1.133272056430682,0.11210248692945464,-1.216057776130396,0.9688261635558346
1970-01-01 00:00:00.000000001,1.2583005714257194,-0.16558111609244697,-0.8145981376542178,0.9351489977236649
1970-01-01 00:00:00.000000001,1.052669509875352,-0.4739746580043651,-0.4192739771123489,0.9172050349282681
1970-01-01 00:00:00.000000001,0.560865291614194,-0.587132199521865,0.038803206124319534,0.9021796923670931
1970-01-01 00:00:00.000000001,0.10174537687539631,-0.26264768905231073,0.5829075825026393,0.8357839955409271
1970-01-01 00:00:00.000000001,-0.42304346081097577,0.5432864075590912,0.9973433338966002,0.739820296211601
1970-01-01 00:00:00.000000001,-1.0210924936430203,1.4147518066476956,1.3287335462054766,0.6509254121962069
1970-01-01 00:00:00.000000001,-1.6304233368993657,1.883592101148493,1.8570421428709234,0.5919358588297714
1970-01-01 00:00:00.000000001,-2.0032315738044746,2.3272995018811007,2.696468888828881,0.4945976502509968
1970-01-01 00:00:00.000000001,-2.2811771158857734,2.5503206765071376,3.79444408237486,0.387217221337141
1970-01-01 00:00:00.000000001,-2.554077210715212,2.1373079652368876,4.859470536717867,0.34440682380132226
1970-01-01 00:00:00.000000001,-2.7027381665967214,1.0844245483690615,5.588690572487718,0.3673874813028287
1970-01-01 00:00:00.000000001,-3.028561935074398,-0.28469075831293733,6.358329321409682,0.4263998688582251
1970-01-01 00:00:00.000000001,-3.45230676154465,-1.4353703632487245,6.9219057651435225,0.5093039339630265
1970-01-01 00:00:00.000000001,-3.585499129183339,-1.9838622359718978,6.769573150896174,0.5894434580981707
1970-01-01 00:00:00.000000001,-3.50644620714541,-1.8933511361288786,5.842128180917021,0.6694186030754156
1970-01-01 00:00:00.000000001,-3.311488395870593,-1.3957241190237566,4.4587820543471715,0.7539434419459548
1970-01-01 00:00:00.000000001,-2.9123922179133093,-0.9386475987455534,3.147539765223733,0.8177971047564482
1970-01-01 00:00:00.000000001,-2.526191264190331,-0.6780850772582123,2.0444675765416296,0.8744446528501069
1970-01-01 00:00:00.000000001,-2.263916838707583,-0.5083658773063583,1.1643684113199928,0.9316824286402078
1970-01-01 00:00:00.000000001,-1.9616330165493896,-0.38613551513410926,0.5551376239775262,0.9708293118388827
1970-01-01 00:00:00.000000001,-1.5726038292838926,-0.23163262509459112,0.010007842293206913,0.9945596937536291
1970-01-01 00:00:00.000000001,-1.160901676123591,-0.02668915085509513,-0.44366967049618117,1.0017289275978727
1970-01-01 00:00:00.000000001,-0.7851563731273212,0.18294146269339495,-0.8171730350037262,1.0022275585993161
1970-01-01 00:00:00.000000001,-0.44950915460771845,0.3870489708661387,-1.1990619473150463,1.0075457783970507
1970-01-01 00:00:00.000000001,-0.10219135505230567,0.5465222030937131,-1.5283580901011655,1.0088402070464242
1970-01-01 00:00:00.000000001,0.1943315160161938,0.625362183534472,-1.8102948145460753,1.0156417792507693
1970-01-01 00:00:00.000000001,0.46498979412673175,0.6670250917615926,-2.0208335632183094,1.0204464686729169
1970-01-01 00:00:00.000000001,0.7149092246082207,0.5840838587157072,-2.0524428276611193,1.0143717361291618
1970-01-01 00:00:00.000000001,0.8109638987613733,0.4732503164818708,-2.0251115607125367,1.0157919262578308
1970-01-01 00:00:00.000000001,0.8605501948169364,0.5202340585667075,-2.0490099393054613,1.0167599416281867
1970-01-01 00:00:00.000000001,0.987624953532215,0.6324275715608557,-2.2387984937933174,1.0242751009688387
1970-01-01 00:00:00.000000001,1.19656493921368,0.6768961406714822,-2.5269636260190427,1.0384438481495308
1970-01-01 00:00:00.000000001,1.3812103368131696,0.6728273438039594,-2.9601602914860536,1.0709582128272994
1970-01-01 00:00:00.000000001,1.562173781890417,0.6852423334782349,-3.4515640526616282,1.1014183861543467
1970-01-01 00:00:00.000000002,1.648629804589256,0.72223578920178,-3.8385490012845294,1.0890486389574645
1970-01-01 00:00:00.000000002,1.6380508891917807,0.788686771914121,-4.215696185076408,1.1132721729836716
1970-01-01 00:00:00.000000002,1.5879309422318433,0.8856639353981195,-4.421891112859849,1.1194714248624902
1970-01-01 00:00:00.000000002,1.451253382407967,1.0220975616113477,-4.277505784363277,1.0971288864219577
1970-01-01 00:00:00.000000002,1.2871331924094653,1.170859376118255,-3.8608759169386904,1.0497121668825038
1970-01-01 00:00:00.000000002,1.0788177038510443,1.2602649855382109,-3.296984581024683,1.0010735217044753
1970-01-01 00:00:00.000000002,0.9279196942502401,1.249885334232147,-2.764117669909044,0.9596775302991997
1970-01-01 00:00:00.000000002,0.7841214384642246,1.178832931294479,-2.391998613954786,0.9392281992807765
1970-01-01 00:00:00.000000002,0.6768971097726744,1.030452844401416,-2.117995873187556,0.9381473943065441
1970-01-01 00:00:00.000000002,0.7018881969494383,0.8489160703094997,-1.8383677593434786,0.9330881601038165
1970-01-01 00:00:00.000000002,0.8072238098517556,0.7233544599609728,-1.6848602230804757,0.9251208448445434
1970-01-01 00:00:00.000000002,0.8797451231858031,0.7121907778112027,-1.6223218346549193,0.9125255902154445
1970-01-01 00:00:00.000000002,0.8574688042351204,0.8484698386168599,-1.5251560149269954,0.8925578989899525
1970-01-01 00:00:00.000000002,0.839132947173008,1.0439363641932728,-1.4594490690246713,0.8707936922046909
1970-01-01 00:00:00.000000002,0.8529660127925319,1.213617093567759,-1.2541637497728777,0.8314913998450943
1970-01-01 00:00:00.000000002,0.7773407977015063,1.3386276644800825,-0.7880696724991695,0.7811911162988737
1970-01-01 00:00:00.000000002,0.7076663690587821,1.3118410093113146,-0.14120624578789787,0.7299944124834388
1970-01-01 00:00:00.000000002,0.6740641650433788,1.0089750585324593,0.653396507832994,0.6933680027031652
1970-01-01 00:00:00.000000002,0.7614289780874948,0.5195664246970072,1.3719928109106372,0.666837024475976
1970-01-01 00:00:00.000000002,0.811067027642395,0.001869619731486749,2.1229605981989756,0.630597379935123
1970-01-01 00:00:00.000000002,0.6189663454382608,-0.31959773061261915,2.8474323017960548,0.5955957054488635
1970-01-01 00:00:00.000000002,0.33626044298574853,-0.34776528135367546,3.29095461521321,0.5705442424448391
1970-01-01 00:00:00.000000002,0.10801474184855142,-0.15897195027803268,3.419435224618902,0.557006266562297
1970-01-01 00:00:00.000000002,0.002626220798728207,0.32074538406100894,3.0490192097115494,0.5706622252936535
1970-01-01 00:00:00.000000002,0.2780709534945631,0.9435122334073782,2.5284983510748993,0.5621032401904134
1970-01-01 00:00:00.000000002,0.7867713324869845,0.8946525930748922,3.4610039444473912,0.43350744532620733
1970-01-01 00:00:00.000000002,0.65300904963542,-0.19120602473987325,5.515294344650051,0.3260984896048058
1970-01-01 00:00:00.000000002,0.07520053049187114,-1.2390643010118931,7.270094321143044,0.27611724438478
1970-01-01 00:00:00.000000002,-0.5417859720128381,-1.7750587099406228,9.015723718853337,0.20435301176750642
1970-01-01 00:00:00.000000002,-0.9349176725704078,-2.2825332867253403,9.559433668556295,0.23321616433950731
1970-01-01 00:00:00.000000002,-1.00434688178193,-2.6552007902551784,8.537124573554916,0.3774371771298105
1970-01-01 00:00:00.000000002,-0.7338123672839727,-2.422082192938311,6.678735674652246,0.5302079857333282
1970-01-01 00:00:00.000000002,-0.1790089058671387,-1.6217839157704377,4.407973145364601,0.6442274513210844
1970-01-01 00:00:00.000000002,0.3445947020926499,-0.8179138584990431,2.134708924556523,0.748917384642667
1970-01-01 00:00:00.000000002,0.6837782003237953,-0.2920536597245502,0.39900442164065486,0.8331930483522562
1970-01-01 00:00:00.000000002,0.8033173054554235,-0.04335807351675254,-0.3374126597117364,0.8582863117574954
1970-01-01 00:00:00.000000002,0.6415115824892533,-0.20302586003648332,-0.0835577686662591,0.8529403446335521
1970-01-01 00:00:00.000000002,0.4213672241611686,-0.5970474128160972,0.42264564037492997,0.8492102383427595
1970-01-01 00:00:00.000000002,0.17629490528397673,-0.9673144261430249,0.6949299186444049,0.8624904608181584
1970-01-01 00:00:00.000000002,-0.15103916618891233,-1.374824008742046,0.7360802473275206,0.9204647983931924
1970-01-01 00:00:00.000000002,-0.19703507662302527,-1.516870262703233,0.5653003063876387,0.9629371533291757
1970-01-01 00:00:00.000000002,-0.026080156256336258,-1.251602278071329,-0.14390116868734523,0.9947236580106237
1970-01-01 00:00:00.000000002,0.0332733894953301,-0.8912098600468851,-1.8154504757701926,1.1165975084755884
1970-01-01 00:00:00.000000002,0.26250580385151406,-0.5995702963446568,-3.1617680302578517,1.2017172280223876
1970-01-01 00:00:00.000000002,0.5161412159351246,-0.8282716216100947,-2.58336982154303,1.13549867811978
1970-01-01 00:00:00.000000002,0.10357293168965859,-1.0572779639879542,-3.1327316282640623,1.250047114693694
1970-01-01 00:00:00.000000002,0.418669006092621,-0.9376420089812421,-3.2197927445033097,1.2331793260354154
1970-01-01 00:00:00.000000002,0.5542186752500549,-1.1190321154154663,-3.6616483102352033,1.2726333616948198
1970-01-01 00:00:00.000000002,0.4825178893086439,-1.3886297503084242,-4.257116274919211,1.3523313069948506
1970-01-01 00:00:00.000000002,0.45711172605889894,-1.3292850536169638,-4.4858050232884175,1.3718125268034254
1970-01-01 00:00:00.000000002,0.460487962709322,-1.1488993632205973,-4.756452019739087,1.3765887611687475
1970-01-01 00:00:00.000000002,0.4033969806889303,-0.952110359779198,-4.949512116106864,1.3717859286548868
1970-01-01 00:00:00.000000002,0.24518523255669877,-0.7143592407792623,-4.786654005107865,1.3421669328937522
1970-01-01 00:00:00.000000002,0.09165460761931438,-0.47012135446823594,-4.674678235012934,1.3190035566113028
1970-01-01 00:00:00.000000002,0.008807531024396409,-0.28598194204729954,-4.736722952425608,1.30067899376923
1970-01-01 00:00:00.000000002,-0.23533886058196768,-0.12122823210145173,-4.33667863177114,1.26630663420744
1970-01-01 00:00:00.000000002,-0.34205375657894105,0.27379613286478877,-4.342623647838425,1.237391097730626
1970-01-01 00:00:00.000000002,-0.4025594939342944,0.5009110181456837,-4.426972661171417,1.2172547135564846
1970-01-01 00:00:00.000000002,-0.604372792180337,0.4609692238871189,-3.7254703369714317,1.1754685454549978
1970-01-01 00:00:00.000000002,-0.6392169036721188,0.2505757447538317,-3.3554087191098896,1.162528242017935
1970-01-01 00:00:00.000000002,-0.6625828173419154,-0.07479981380610146,-2.9999407772679634,1.1702328010989935
1970-01-01 00:00:00.000000002,-0.5029078525436126,-0.3655290974701397,-2.7383506470766954,1.1752135180454177
1970-01-01 00:00:00.000000002,-0.2074877465283832,-0.5186274334235985,-2.6596683093387834,1.1732050809334633
1970-01-01 00:00:00.000000002,0.11716007823815869,-0.5786901887574727,-2.5139722888608915,1.1468595937098276
1970-01-01 00:00:00.000000002,0.30787576294450003,-0.6426503410741639,-2.0042261679513054,1.0921757815279822
1970-01-01 00:00:00.000000002,0.3401390833116262,-0.6624371055807738,-1.489702331160184,1.039132932552035
1970-01-01 00:00:00.000000002,0.24539295088338595,-0.5537119379361105,-1.0282972017030407,0.9906674793897426
1970-01-01 00:00:00.000000002,0.1511823825479598,-0.38724857384838984,-0.6237854699760951,0.9462401661589711
1970-01-01 00:00:00.000000002,0.12138537025177058,-0.37849720029673206,-0.2904081319778419,0.9181338729183111
1970-01-01 00:00:00.000000002,0.12176027313946083,-0.601912198157143,0.01302954258060009,0.9104525489838052
1970-01-01 00:00:00.000000002,0.11690045334200959,-0.9542326574132136,0.3111052741869396,0.9197989525194767
1970-01-01 00:00:00.000000002,0.20253699378516188,-1.2524003093550733,0.5467821031113237,0.9209029220287643
1970-01-01 00:00:00.000000002,0.2756858616101956,-1.2556530841231683,0.8069341208693966,0.8863170636499046
1970-01-01 00:00:00.000000002,0.17992614000531382,-0.9089255185184233,0.9817466038144105,0.8377797503128365
1970-01-01 00:00:00.000000002,0.010666928843774542,-0.33816555196707687,1.1473945460268142,0.7677210690459406
1970-01-01 00:00:00.000000002,-0.3118270092748377,0.47148988727670205,1.440940410779011,0.6705378961391296
1970-01-01 00:00:00.000000002,-0.7669240507683981,1.4304597219805317,2.1200637585489748,0.5356838505951712
1970-01-01 00:00:00.000000002,-1.2755000906098402,1.9238150080746486,3.323673471920279,0.402632982149551
1970-01-01 00:00:00.000000002,-1.750957172327333,1.661924559622249,4.768499046885682,0.3216002413719582
1970-01-01 00:00:00.000000002,-2.0474331490308844,0.874273048568888,6.1019257408357594,0.29351299207810566
1970-01-01 00:00:00.000000002,-2.1400450498845816,-0.18379531027659857,7.106252893665365,0.3128219930646641
1970-01-01 00:00:00.000000002,-2.027884794069341,-1.207104386246443,7.646544427920244,0.3691373708010266
1970-01-01 00:00:00.000000002,-1.6578296078774846,-2.144967742390994,6.863502036167593,0.5037569048913957
1970-01-01 00:00:00.000000002,-1.4417962312591093,-1.9366136307257098,4.063421576189275,0.7145245991932043
1970-01-01 00:00:00.000000002,-1.427412350031494,-0.7837374674094398,1.20874334073648,0.8600846034609253
1970-01-01 00:00:00.000000002,-1.5370383300053152,0.22127906535481823,-0.3567743216203298,0.9151512592779104
1970-01-01 00:00:00.000000002,-1.6629293052455778,0.6217471672101426,-0.6031750892647673,0.9242888426054324
1970-01-01 00:00:00.000000002,-1.4791050401436738,0.7322384563686231,-0.5126090814787986,0.9188060084605016
1970-01-01 00:00:00.000000002,-0.9784740273793463,0.7194693438653634,-0.6664919215401173,0.9160660852929413
1970-01-01 00:00:00.000000002,-0.5079778668409702,0.7213308769596242,-1.0797757511409376,0.9296898537545054
1970-01-01 00:00:00.000000002,-0.18071818815637758,0.6990116379262863,-1.5449060553833946,0.9649217803026514
1970-01-01 00:00:00.000000002,0.1888921235159744,0.7004640613156857,-2.084207029945136,1.0084934390248188
1970-01-01 00:00:00.000000003,0.6622419523310336,0.7050016758492574,-2.737200094883216,1.0926992419616646
1970-01-01 00:00:00.000000003,0.9966453111909056,0.6972999774274551,-3.207476741088519,1.1180249210229307
1970-01-01 00:00:00.000000003,1.1827552347105126,0.7719290333329023,-3.464840595865972,1.1297249805679712
1970-01-01 00:00:00.000000003,1.3811127307834923,0.7692115621362969,-3.7187917077173367,1.1448972301573046
1970-01-01 00:00:00.000000003,1.5561632226584687,0.7376979307327657,-3.951620726116466,1.1593350563346219
1970-01-01 00:00:00.000000003,1.6722136354019899,0.7701803547200257,-4.10342011035562,1.1646171142188053
1970-01-01 00:00:00.000000003,1.7612206484103077,0.7933213184727442,-4.104572581720507,1.157396735607542
1970-01-01 00:00:00.000000003,1.8051290510406233,0.8246421711055547,-4.044892669036531,1.1461617105160125
1970-01-01 00:00:00.000000003,1.8277557141125247,0.9192575046774161,-3.910289278965612,1.1221296878946607
1970-01-01 00:00:00.000000003,1.8024948640686516,1.04936110404967,-3.728867214169979,1.0913105477744847
1970-01-01 00:00:00.000000003,1.7198081764201822,1.2337148664724242,-3.4489029418150747,1.0493977000948143
1970-01-01 00:00:00.000000003,1.588354220603877,1.3839982380633946,-3.0184542674794272,1.0014053384127668
1970-01-01 00:00:00.000000003,1.4583759268203769,1.461025512598128,-2.472574328770569,0.951254424678442
1970-01-01 00:00:00.000000003,1.3566076297719407,1.4029674939918542,-1.9017757174201295,0.9076610560806043
1970-01-01 00:00:00.000000003,1.242388046500327,1.3528594016990942,-1.4416074650557413,0.8752767022847034
1970-01-01 00:00:00.000000003,1.1513564738520519,1.3572712986135567,-1.0385908923549962,0.8437648886059563
1970-01-01 00:00:00.000000003,1.1048004200748882,1.3089401445530662,-0.5848721448431627,0.8077698100317237
1970-01-01 00:00:00.000000003,1.037330991659715,1.1594684999249985,-0.07760112280452008,0.7772959141260902
1970-01-01 00:00:00.000000003,0.9632957626946825,0.9355650705974672,0.42849754629666753,0.7539956248179079
1970-01-01 00:00:00.000000003,0.8841901123065232,0.6244992316559641,0.9207456982640627,0.7402168176765245
1970-01-01 00:00:00.000000003,0.8026545128589779,0.29799967724718734,1.3037217999665283,0.7398639818514501
1970-01-01 00:00:00.000000003,0.7567205990833235,0.052798515197618495,1.4110493620116822,0.7533371897617694
1970-01-01 00:00:00.000000003,0.7072110089322705,-0.08694038815901697,1.3301103531014054,0.7716595567384776
1970-01-01 00:00:00.000000003,0.6150727004544027,-0.09615327994209892,1.305965887275239,0.7714265939957865
1970-01-01 00:00:00.000000003,0.41782897738321306,0.0431005822416855,1.4832673558492608,0.7450772699366645
1970-01-01 00:00:00.000000003,0.13344309691760375,0.24215978744944006,1.7245435076366413,0.7138705175456372
1970-01-01 00:00:00.000000003,-0.1709753207983264,0.5181911671226221,1.8523848385694341,0.688324228294547
1970-01-01 00:00:00.000000003,-0.4421108322837289,0.8836475128600113,2.1744929217366575,0.6414494706753227
1970-01-01 00:00:00.000000003,-0.5983056773690454,1.1410552589855438,2.9096876272082226,0.5674950950966695
1970-01-01 00:00:00.000000003,-0.596112960188599,1.1196688014660767,3.5818973346018748,0.5116624549208129
1970-01-01 00:00:00.000000003,-0.538806081302598,0.6806336526693164,4.392171679113209,0.47394249610566774
1970-01-01 00:00:00.000000003,-0.5257890976113697,-0.19981375824254854,5.299484422606772,0.4634513973539768
1970-01-01 00:00:00.000000003,-0.6557142308004724,-1.004747670146604,5.764765186341084,0.49602272379268997
1970-01-01 00:00:00.000000003,-0.8217936174448524,-1.433095936219475,5.594453008098899,0.5603595808146729
1970-01-01 00:00:00.000000003,-0.8989718576713202,-1.5649069237568893,4.909401716351543,0.6435416784955075
1970-01-01 00:00:00.000000003,-0.848064748712195,-1.54375051608533,3.985033822524024,0.7268262639649413
1970-01-01 00:00:00.000000003,-0.7283214524901138,-1.4434811635810592,3.1093873387630064,0.7895633317935098
1970-01-01 00:00:00.000000003,-0.6643250625262216,-1.3338675122784578,2.5647977124018926,0.8236771190541791
1970-01-01 00:00:00.000000003,-0.6574291122384369,-1.3238061031552726,2.3872864608700812,0.8327744837209741
1970-01-01 00:00:00.000000003,-0.7627871073150105,-1.3724832534044586,2.428350750599821,0.8335679971912343
1970-01-01 00:00:00.000000003,-0.939992048713316,-1.44645197977895,2.464973564311268,0.8462712356981965
1970-01-01 00:00:00.000000003,-1.0558039727934534,-1.4645687294412801,2.3430869569903465,0.8688268741156605
1970-01-01 00:00:00.000000003,-1.0705082100816006,-1.4370694394457908,1.958208550117867,0.9078086773840961
1970-01-01 00:00:00.000000003,-0.9711900827642187,-1.4121433468250926,1.4527066849620585,0.9520902402945634
1970-01-01 00:00:00.000000003,-0.8005937842988534,-1.3743979494334175,0.8312749192560211,1.0009508222370718
1970-01-01 00:00:00.000000003,-0.6036789564603776,-1.347302891013727,0.09101453181396521,1.0588003932394843
1970-01-01 00:00:00.000000003,-0.4112578132319748,-1.347862002976552,-0.7189644553183038,1.1274979364593336
1970-01-01 00:00:00.000000003,-0.18384120459721304,-1.3661589088693507,-1.574242544924292,1.1983762079160523
1970-01-01 00:00:00.000000003,0.03667223839504613,-1.3891915224466753,-2.3863472435883173,1.2638167275930055
1970-01-01 00:00:00.000000003,0.21044374465347515,-1.3836650168173463,-3.0987858515868023,1.3189426537382862
1970-01-01 00:00:00.000000003,0.33392126538978545,-1.3458469516524973,-3.6569537692861256,1.357471939579583
1970-01-01 00:00:00.000000003,0.3800075605346309,-1.2947992371589943,-3.979562478497542,1.3781231918212842
1970-01-01 00:00:00.000000003,0.38242104186437353,-1.2178812230063598,-4.145381921513435,1.3836255044987513
1970-01-01 00:00:00.000000003,0.34078914225154167,-1.07801485203989,-4.185770470392373,1.3756643978875576
1970-01-01 00:00:00.000000003,0.2897477495392342,-0.9238713577694957,-4.155772354779341,1.3598816990362488
1970-01-01 00:00:00.000000003,0.21760852956117394,-0.7460907599265829,-4.149662060840031,1.347482560170727
1970-01-01 00:00:00.000000003,0.17739683906299164,-0.5394626798347616,-4.203986807488011,1.3391839422565983
1970-01-01 00:00:00.000000003,0.2129398164734433,-0.4360463356606137,-4.22462648138473,1.329759176978547
1970-01-01 00:00:00.000000003,0.2328341085396597,-0.36081055549285335,-4.2379503623908885,1.3232116999426267
1970-01-01 00:00:00.000000003,0.2536001497111096,-0.27832394993768916,-4.1725185904604905,1.3103914704508184
1970-01-01 00:00:00.000000003,0.29105760395384056,-0.29761312803808543,-4.0637286152554575,1.2996010032860148
1970-01-01 00:00:00.000000003,0.3019069156664168,-0.37891585843468906,-3.9198393727808836,1.2930703031972113
1970-01-01 00:00:00.000000003,0.31162264671276296,-0.40362056981285377,-3.7424399699427964,1.278711699193978
1970-01-01 00:00:00.000000003,0.32146000582476864,-0.3864070420861684,-3.4936073312483242,1.2504980957361644
1970-01-01 00:00:00.000000003,0.2508366875481336,-0.41914742752440587,-3.224735834772715,1.2308790609414104
1970-01-01 00:00:00.000000003,0.17867015651564339,-0.3434303145676682,-2.9871170211098783,1.2062997724566402
1970-01-01 00:00:00.000000003,0.13591437534621528,-0.1598494440866327,-2.733802113477993,1.1687564533735761
1970-01-01 00:00:00.000000003,0.09415920124049079,-0.0755483207907509,-2.428583687815267,1.1330008598801737
1970-01-01 00:00:00.000000003,0.017020722474141686,-0.08481080204901853,-2.0428130423195836,1.1033312148753907
1970-01-01 00:00:00.000000003,-0.03154179333592347,-0.17138512973953612,-1.6844102500203058,1.0858201828182024
1970-01-01 00:00:00.000000003,0.01534628620638899,-0.31153542490749503,-1.4552114322176897,1.0807860334967065
1970-01-01 00:00:00.000000003,0.15497702012507064,-0.4035179015871058,-1.2697449786815707,1.0678761990382712
1970-01-01 00:00:00.000000003,0.29564776947545535,-0.4207867626921181,-1.1652418369324635,1.0504525320585132
1970-01-01 00:00:00.000000003,0.34881726736444446,-0.60511607187266,-0.8391759992675082,1.0328708220386766
1970-01-01 00:00:00.000000003,0.34353510781779995,-0.8650980062662517,-0.4402609716868058,1.0252288708588702
1970-01-01 00:00:00.000000003,0.43641424482639124,-1.033204592212537,-0.07854473117265398,1.003554232524072
1970-01-01 00:00:00.000000003,0.5157229176225618,-1.028170999839323,0.3228082136580729,0.9599104271936587
1970-01-01 00:00:00.000000003,0.5121727732803802,-0.8684220446454145,0.6533568587443928,0.9089376967781357
1970-01-01 00:00:00.000000003,0.38212819372606305,-0.520566391086113,0.7164847869413155,0.8659852365864159
1970-01-01 00:00:00.000000003,0.08017944021631981,0.030408217617725414,0.6590111209684006,0.825862459622048
1970-01-01 00:00:00.000000003,-0.299674517290044,0.7849732257310953,0.7702004381719212,0.7616061684449333
1970-01-01 00:00:00.000000003,-0.6582943814119041,1.72234608785067,0.9448779204023188,0.6819013353896033
1970-01-01 00:00:00.000000003,-0.8564374560474632,2.5161346922508594,1.2892669587045211,0.5834134693578019
1970-01-01 00:00:00.000000003,-1.0911059176425126,2.7256183809182413,2.377657742615472,0.4685101515363942
1970-01-01 00:00:00.000000003,-1.4517435704184993,2.266861860147136,3.848792359518602,0.39358092599994854
1970-01-01 00:00:00.000000003,-1.7287999273159933,1.5435378152945325,5.103621936626801,0.3579808589717316
1970-01-01 00:00:00.000000003,-1.930865144209112,0.835966129949918,6.126306906550058,0.3351292796514155
1970-01-01 00:00:00.000000003,-2.1682386148928714,0.05379844811938461,6.832915294990933,0.35268048265232954
1970-01-01 00:00:00.000000003,-2.357846261096334,-0.7931564438275898,7.202657645104114,0.41341537513013604
1970-01-01 00:00:00.000000003,-2.340212999658155,-1.414954906336788,6.942908647947659,0.4995222072584189
1970-01-01 00:00:00.000000003,-2.1951344775055106,-1.5211607112873962,5.895341165461117,0.5990695730952327
1970-01-01 00:00:00.000000003,-2.045230350277066,-1.266000262751599,4.371686855173878,0.7016603382537407
1970-01-01 00:00:00.000000003,-2.0114921582435747,-0.8522064661349984,2.948843841104301,0.790319512896086
1970-01-01 00:00:00.000000003,-1.9966709256320272,-0.4149292355863687,1.8257419419492311,0.8515316335172047
1970-01-01 00:00:00.000000003,-1.9862047464999018,-0.05633853298006794,1.1407329532418098,0.8814989900549505
1970-01-01 00:00:00.000000003,-1.9720225203748007,0.20422865990296477,0.784487610358073,0.8953009490145245
1970-01-01 00:00:00.000000003,-1.8760348846872035,0.31105547856540583,0.5309756546314254,0.9180897978121183
1970-01-01 00:00:00.000000003,-1.696635567041567,0.3323424036558331,0.18992820698322233,1.1671167704751242
1970-01-01 00:00:00.000000003,-1.3930997196759933,0.34185266094194305,-0.22325082528456858,1.2043728584631344
1970-01-01 00:00:00.000000004,-1.0355714388161306,0.3568376873073089,-0.7585422441358807,1.2407552662072205
1970-01-01 00:00:00.000000004,-0.6676836059344179,0.35699569752935006,-1.4431589652102748,1.2908967429528049
1970-01-01 00:00:00.000000004,-0.2864517687486213,0.33179617428384417,-2.156999788242818,1.3438534344642743
1970-01-01 00:00:00.000000004,0.07717951087992572,0.3189142471438723,-2.828422078336397,1.3912058392390696
1970-01-01 00:00:00.000000004,0.3973711657114424,0.3109656830220703,-3.4283191424186032,1.431428022058988
1970-01-01 00:00:00.000000004,0.6448281937706434,0.353073140246349,-3.9602808211715703,1.463911314794947
1970-01-01 00:00:00.000000004,0.8361413232293075,0.42370121491268403,-4.297570917930446,1.4765162013350346
1970-01-01 00:00:00.000000004,0.9306811231418238,0.4832581174585375,-4.427735507887986,1.4790711889605233
1970-01-01 00:00:00.000000004,1.008608890540959,0.46364902500200256,-4.41190672651088,1.4784335817803695
1970-01-01 00:00:00.000000004,1.1146465957695002,0.39030972866980335,-4.338701936831382,1.4743263028308937
1970-01-01 00:00:00.000000004,1.2061509287535828,0.2887438628911081,-4.269015354127999,1.4730534211092454
1970-01-01 00:00:00.000000004,1.2782523342670589,0.15128154731921956,-4.17920564669551,1.4742696576948895
1970-01-01 00:00:00.000000004,1.3393941342162976,0.008782539483410012,-4.106612481895197,1.475798574055386
1970-01-01 00:00:00.000000004,1.3591667399144192,-0.0004269610008646729,-4.035605344208495,1.466664474714
1970-01-01 00:00:00.000000004,1.3311321503492712,0.11791392126955444,-3.9665074039578454,1.443013263645938
1970-01-01 00:00:00.000000004,1.1692857076698069,0.41549911280490065,-3.8286982851272127,1.4067365338995168
1970-01-01 00:00:00.000000004,0.9590443264047588,0.7541247832477161,-3.6297836356919246,1.373082423073069
1970-01-01 00:00:00.000000004,0.8894489240558037,0.9400186473684793,-3.4313112660697227,1.3412841142054366
1970-01-01 00:00:00.000000004,0.8460345663128334,1.1432508270805481,-2.9987484168112943,1.2891074045000739
1970-01-01 00:00:00.000000004,0.8582225238861464,1.269805946150105,-2.5678437254914357,1.237314682287395
1970-01-01 00:00:00.000000004,0.8604214726883259,1.2688805765652527,-1.9556613138645145,1.1764064874996056
1970-01-01 00:00:00.000000004,0.7750692419902071,1.1271164913885245,-0.8478648785736493,1.09345396312579
1970-01-01 00:00:00.000000004,0.708175319001473,0.8912482215210155,0.41629312297212817,1.0054806601399107
1970-01-01 00:00:00.000000004,0.6612563443500481,0.6622761277585995,1.0634698369008617,0.9608611113785633
1970-01-01 00:00:00.000000004,0.4807266310428971,0.5636697664677515,1.3708550118577685,0.9418784982349335
1970-01-01 00:00:00.000000004,0.20432097938151672,0.5893788235930233,1.4821867399813566,0.9330762103341425
1970-01-01 00:00:00.000000004,-0.1569385640744061,0.8332951328586902,1.6319236299535682,0.9155624557485768
1970-01-01 00:00:00.000000004,-0.39272861234879075,1.302331614840401,1.9724931200136422,0.8604985587730667
1970-01-01 00:00:00.000000004,-0.46435514842302866,1.6264155477981368,2.422147690380733,0.7953023237371941
1970-01-01 00:00:00.000000004,-0.5249292078838085,1.588298918767478,2.9029052633243158,0.7707215378364949
1970-01-01 00:00:00.000000004,-0.32843813251144377,1.5647658993093563,3.2634050597614315,0.7519364508807969
1970-01-01 00:00:00.000000004,0.1949510526476712,1.672679693470731,3.221330681119779,0.7245085794775561
1970-01-01 00:00:00.000000004,0.6350893913164986,1.5636947766549016,3.178632282727187,0.7065507599147245
1970-01-01 00:00:00.000000004,0.7812061754584668,1.2058671653654767,3.510528841668102,0.6917964400209335
1970-01-01 00:00:00.000000004,0.7081172519540211,0.7811964249379793,3.8921241790366525,0.6890774700226967
1970-01-01 00:00:00.000000004,0.478331165573577,0.48955069365291326,4.179938378014378,0.6970562489318038
1970-01-01 00:00:00.000000004,0.2574584212439752,0.3266791091214716,4.356218832782137,0.7020946692138209
1970-01-01 00:00:00.000000004,0.009919006593415713,0.10752404675775917,4.464708901234498,0.7168852266194593
1970-01-01 00:00:00.000000004,-0.2888591322706615,-0.280105069139583,4.834346278071649,0.7278778396808758
1970-01-01 00:00:00.000000004,-0.5978571699183474,-0.8004613264566047,5.432540193769995,0.7363626444813608
1970-01-01 00:00:00.000000004,-0.8233567584427999,-1.1608849144186775,5.765704784488284,0.756026004732923
1970-01-01 00:00:00.000000004,-0.8815538434211971,-1.3602608581845672,5.674659492076449,0.7901566006174023
1970-01-01 00:00:00.000000004,-0.8359572837046798,-1.4875858205832428,5.278673937556972,0.8374212605650273
1970-01-01 00:00:00.000000004,-0.7659923927347996,-1.6576184447286955,4.746474674795901,0.8978019001195172
1970-01-01 00:00:00.000000004,-0.7185189367931164,-1.869322153122017,4.0249323159019825,0.9826666892784331
1970-01-01 00:00:00.000000004,-0.6276988605102445,-2.051785959109898,3.188991585013548,1.0771390535011771
1970-01-01 00:00:00.000000004,-0.43662227075855836,-2.141409112488118,2.2153301098209384,1.1682239982575406
1970-01-01 00:00:00.000000004,-0.2221812766967599,-2.161048152106642,1.230133306114406,1.2507674380621003
1970-01-01 00:00:00.000000004,-0.03448401059657476,-2.1594153863471184,0.295744763312117,1.330619050110314
1970-01-01 00:00:00.000000004,0.1818662883007123,-2.0925004028931617,-0.694357820314859,1.4072604039358254
1970-01-01 00:00:00.000000004,0.4076211877905641,-1.961941820665574,-1.6672522407106003,1.4722121399067476
1970-01-01 00:00:00.000000004,0.5603627954536032,-1.867575941852636,-2.5590998656466044,1.5354667994181648
1970-01-01 00:00:00.000000004,0.651875164292664,-1.791767119151628,-3.2576026415438393,1.586879547234775
1970-01-01 00:00:00.000000004,0.7169432410557436,-1.6359460393230896,-3.7719812201188123,1.615117824485985
1970-01-01 00:00:00.000000004,0.7413504505030898,-1.4532210100206746,-4.160335369113008,1.6275032590849405
1970-01-01 00:00:00.000000004,0.6670927230172758,-1.2285039935583926,-4.434556508255751,1.630634021131162
1970-01-01 00:00:00.000000004,0.5310817419145768,-0.9295187501408997,-4.5358222878771866,1.6171299900185954
1970-01-01 00:00:00.000000004,0.3878127059829712,-0.7356517621707459,-4.399794766353087,1.5953728200931074
1970-01-01 00:00:00.000000004,0.2986040848385945,-0.7491878628008282,-4.074745437987695,1.5724737308108894
1970-01-01 00:00:00.000000004,0.24583088257886937,-0.9790153708440071,-3.6049268967070383,1.555469687055576
1970-01-01 00:00:00.000000004,0.23754829481709167,-1.2341440695707773,-3.3081976926858054,1.5559375127532764
1970-01-01 00:00:00.000000004,0.30107194641171464,-1.4089212639074309,-3.2824575621501864,1.5694430135894917
1970-01-01 00:00:00.000000004,0.4082686480499344,-1.4710926334196752,-3.482519062859123,1.5853078893201167
1970-01-01 00:00:00.000000004,0.44272380440391385,-1.3756536365369922,-3.810630933159128,1.5994428125877946
1970-01-01 00:00:00.000000004,0.38393564834636534,-1.1020148239507148,-4.084975403308966,1.5998353923257045
1970-01-01 00:00:00.000000004,0.2982494125661743,-0.8211159291160468,-4.176074275166571,1.5843900738696566
1970-01-01 00:00:00.000000004,0.19433167047147276,-0.6258783389827498,-3.976793102988639,1.551580138001941
1970-01-01 00:00:00.000000004,0.06744235974185547,-0.5436209578035451,-3.6633612399118896,1.5228985304446783
1970-01-01 00:00:00.000000004,-0.001157358634713973,-0.5621056391185523,-3.1941784920377803,1.4871086792459733
1970-01-01 00:00:00.000000004,-0.03319109976721624,-0.7310550802432347,-2.677281826953947,1.4618586399979034
1970-01-01 00:00:00.000000004,0.02650512512790737,-0.8950047543295077,-2.311054062599514,1.4450979864637212
1970-01-01 00:00:00.000000004,0.1557083542293998,-0.9962586228009889,-2.033363199380449,1.4242482710221187
1970-01-01 00:00:00.000000004,0.2705711112287117,-1.038607486039918,-1.8743817454153455,1.405622519037867
1970-01-01 00:00:00.000000004,0.31299487470625903,-0.8679297910698208,-1.8967302176268552,1.3864200648544107
1970-01-01 00:00:00.000000004,0.27758654374116576,-0.734485930262004,-1.9263231879264644,1.3693767872615574
1970-01-01 00:00:00.000000004,0.07896954542435956,-0.8609310984248149,-1.7617366288082152,1.3696590314341694
1970-01-01 00:00:00.000000004,-0.170656887071295,-1.16326696555265,-1.543179028240008,1.3894504357634132
1970-01-01 00:00:00.000000004,-0.34057894337328526,-1.4623180015705688,-1.31913816374585,1.4111083167511898
1970-01-01 00:00:00.000000004,-0.32719913183362137,-1.5611312047869308,-1.0653635208322236,1.3993086012315752
1970-01-01 00:00:00.000000004,-0.27034574494066166,-1.3801409842034214,-0.8875933552509846,1.3589540726216125
1970-01-01 00:00:00.000000004,-0.32413573041768445,-1.1258258337740088,-0.5728075360128908,1.299947507130479
1970-01-01 00:00:00.000000004,-0.5491209240692768,-0.949772472360973,-0.010826061763201326,1.2376592878822403
1970-01-01 00:00:00.000000004,-0.8328829407264757,-0.6311831069764328,0.41735168140227363,1.184347691332887
1970-01-01 00:00:00.000000004,-1.0352908813045327,-0.11640686952202423,0.5050860061052435,1.1461395372334238
1970-01-01 00:00:00.000000004,-1.0405366768205533,0.8728857110523217,0.3546585646098397,1.0767545077871126
1970-01-01 00:00:00.000000004,-0.9171496969787215,1.776310960048368,0.6626851304741079,0.9488686777793397
1970-01-01 00:00:00.000000004,-1.0717033455410467,1.9270659934997554,1.8773957414370706,0.8129021881480997
1970-01-01 00:00:00.000000004,-1.545356919471888,1.5164652022299379,3.7889942261118006,0.6921313526514542
1970-01-01 00:00:00.000000004,-2.0236864145010918,0.7902754072671939,5.9482293041399545,0.5780718866465744
1970-01-01 00:00:00.000000004,-2.514696239948644,-0.28950541177874767,8.202720779903876,0.4859799936900916
1970-01-01 00:00:00.000000004,-3.0662459934480095,-1.3749544113539853,10.007198867204606,0.45600166957267896
1970-01-01 00:00:00.000000004,-3.339702312254807,-2.078702935893457,10.497209393506017,0.5122724563048152
1970-01-01 00:00:00.000000004,-3.1173475946368026,-2.167683377710805,9.249796237516433,0.6383427433628638
1970-01-01 00:00:00.000000004,-2.6404912173997066,-1.5774382262280993,6.86859905550798,0.7749382632100625
1970-01-01 00:00:00.000000004,-2.3068122092887675,-0.758686669859868,4.616840321786939,0.8800990365437488
1970-01-01 00:00:00.000000004,-2.2693832521826516,-0.025874021184723317,3.1673174715431336,1.0496101749217952
1970-01-01 00:00:00.000000005,-2.4133728010946647,0.649801886020957,2.490445198026256,1.0575468981692027
1970-01-01 00:00:00.000000005,-2.591563278188579,1.0997728194040524,2.353950750819339,1.041861374976163
1970-01-01 00:00:00.000000005,-2.6668586195285147,1.2397453446219626,2.511906180829385,1.0268487565964826
1970-01-01 00:00:00.000000005,-2.5905710150388894,1.2153887040768074,2.559553350261968,1.0335496954926664
1970-01-01 00:00:00.000000005,-2.3240577735072026,1.0118426789276842,2.282127289719625,1.07354345885726
1970-01-01 00:00:00.000000005,-1.9579926625804707,0.7787742356619751,1.7322940808592149,1.1349917260204767
1970-01-01 00:00:00.000000005,-1.5405978001097025,0.646549845944979,0.8713010554784226,1.2111787293707599
1970-01-01 00:00:00.000000005,-1.116228567221389,0.6466461416400701,-0.23859104615414026,1.2938659274535582
1970-01-01 00:00:00.000000005,-0.7537916624823694,0.7096641722221197,-1.4164911077550386,1.3784269294363511
1970-01-01 00:00:00.000000005,-0.4609011392684814,0.786836166003842,-2.484119205585235,1.454668248650468
1970-01-01 00:00:00.000000005,-0.22478321648244767,0.888679439726366,-3.300960313201561,1.5098403376469252
1970-01-01 00:00:00.000000005,-0.025259732266811524,0.9420320114241544,-3.9072859460407994,1.5540015963084644
1970-01-01 00:00:00.000000005,0.18792312854443236,0.9246720284192819,-4.3172730702065065,1.5851473460510592
1970-01-01 00:00:00.000000005,0.39406221258678303,0.8719238933056257,-4.561275812125691,1.6012453081551727
1970-01-01 00:00:00.000000005,0.5290150158502956,0.8167449328116884,-4.637702015208112,1.6064052397936122
1970-01-01 00:00:00.000000005,0.6225111099420311,0.7533380271440835,-4.583529863959283,1.6033023244822673
1970-01-01 00:00:00.000000005,0.6982332854981302,0.6790533134034507,-4.461932798367604,1.5968864582284052
1970-01-01 00:00:00.000000005,0.7812558810955229,0.6460288674587511,-4.323728259256415,1.5860169040701293
1970-01-01 00:00:00.000000005,0.8864458997659564,0.6040392775012495,-4.188417032037204,1.5743405448593584
1970-01-01 00:00:00.000000005,0.9943110505862216,0.5481584057929122,-4.128404825030227,1.5647620115263268
1970-01-01 00:00:00.000000005,1.0035895865712947,0.571614889202035,-4.153136033484293,1.5580684003219645
1970-01-01 00:00:00.000000005,0.8976869122118913,0.6811495952148866,-4.21056208649282,1.5572482133955103
1970-01-01 00:00:00.000000005,0.8080200873962619,0.8706666294196755,-4.23079785400207,1.5473332328524276
1970-01-01 00:00:00.000000005,0.7625582811318694,1.1232719672015328,-4.224557403477879,1.5256290653812183
1970-01-01 00:00:00.000000005,0.7214010994671045,1.296061269889579,-3.9938672550327845,1.491493740984185
1970-01-01 00:00:00.000000005,0.6860848039114303,1.3312407083833437,-3.649000093841035,1.4640177534339163
1970-01-01 00:00:00.000000005,0.7517511626978663,1.2942553349228039,-3.3823178002130305,1.4422605038695504
1970-01-01 00:00:00.000000005,0.8390764291694855,1.3036339856629433,-3.2335998607801906,1.4254539258504213
1970-01-01 00:00:00.000000005,0.9390927102313059,1.255016602508219,-3.073724116320581,1.4046072422992404
1970-01-01 00:00:00.000000005,0.916074363262666,1.1932001810508026,-2.645565380883666,1.368784938896773
1970-01-01 00:00:00.000000005,0.8313812932016165,1.2216632058061248,-2.0962662475957288,1.3213184515321732
1970-01-01 00:00:00.000000005,0.7818426971701387,1.2391041991167309,-1.506225480798872,1.2626684995499209
1970-01-01 00:00:00.000000005,0.6243993238342005,1.1725174267932803,-0.8834544775260862,1.2175557164392594
1970-01-01 00:00:00.000000005,0.46521794293270036,0.9884275170005299,-0.2774842197067892,1.18935446068466
1970-01-01 00:00:00.000000005,0.3935941256237001,0.7811730046188348,0.1575280178405449,1.169619618120224
1970-01-01 00:00:00.000000005,0.303139875364693,0.6015451172980005,0.5290422109914817,1.1471341618271877
1970-01-01 00:00:00.000000005,0.06827507814584344,0.5258352241683846,0.9419017406706001,1.1267502366308983
1970-01-01 00:00:00.000000005,-0.10743957558923545,0.6423239162961207,1.4486227681624253,1.0798976319306206
1970-01-01 00:00:00.000000005,-0.2346640654357079,0.8110133018243613,1.9150157857124621,1.0330460351693125
1970-01-01 00:00:00.000000005,-0.2616470167762798,0.9390132628854504,2.190781475997867,1.0047807712404087
1970-01-01 00:00:00.000000005,-0.14213763983765776,1.1551458210114345,2.3488850911586323,0.9672932369262004
1970-01-01 00:00:00.000000005,-0.01984351751572644,1.3052891538647204,2.5344812347264987,0.9259592988841316
1970-01-01 00:00:00.000000005,-0.021800021884167076,1.183154921830761,2.9276018349514654,0.8875588451159887
1970-01-01 00:00:00.000000005,-0.26538510076000155,0.6936261807795753,3.814500754176659,0.8503193881368464
1970-01-01 00:00:00.000000005,-0.6818483716195615,0.04552875540921153,4.814695324009355,0.8302988544457857
1970-01-01 00:00:00.000000005,-1.139463490725849,-0.45166991562230707,5.444952863184451,0.8388869746836966
1970-01-01 00:00:00.000000005,-1.4888752065089688,-0.7130687386872843,5.726579720495131,0.8556546242140264
1970-01-01 00:00:00.000000005,-1.7194562287939332,-0.9373931426401056,5.786492476478494,0.8860381890655336
1970-01-01 00:00:00.000000005,-1.8206596176728174,-1.23050245187987,5.624760805139758,0.9418775649469396
1970-01-01 00:00:00.000000005,-1.6944879437083038,-1.3640349249651016,5.379187395446265,0.9752516213290485
1970-01-01 00:00:00.000000005,-1.5213423030325082,-1.4958705338617877,5.215868860225659,1.0009436229295379
1970-01-01 00:00:00.000000005,-1.2941225748638103,-1.7700560134432277,4.703685306506283,1.0630970973042415
1970-01-01 00:00:00.000000005,-1.08951384387197,-1.9758865835201507,3.728389661029168,1.1558906735459895
1970-01-01 00:00:00.000000005,-0.991551102527336,-1.9879954687603485,2.803721814121699,1.245294784953791
1970-01-01 00:00:00.000000005,-0.7848384750731295,-1.8002657407050466,1.1218246525609643,1.375251276186501
1970-01-01 00:00:00.000000005,-0.5147386761736874,-1.4012234070468017,-0.6715000717465569,1.4879032189867134
1970-01-01 00:00:00.000000005,-0.3047812372996519,-1.038430790359855,-1.7579911305192786,1.5509285193293543
1970-01-01 00:00:00.000000005,-0.030339790759705304,-0.6967186663285604,-2.604571185933162,1.5853134929224717
1970-01-01 00:00:00.000000005,0.19698599309514234,-0.42979371861865623,-3.2222514077833644,1.6041726951459931
1970-01-01 00:00:00.000000005,0.3297818036377803,-0.2842703640795675,-3.5227754519221057,1.6092480719907554
1970-01-01 00:00:00.000000005,0.37734060904471667,-0.2397219745524237,-3.636901657136315,1.6097668092574138
1970-01-01 00:00:00.000000005,0.35201292688243757,-0.19599061214196517,-3.6813369540645438,1.605145538329188
1970-01-01 00:00:00.000000005,0.22467238692102418,-0.18519050402143591,-3.6423620533471883,1.604454198565768
1970-01-01 00:00:00.000000005,0.09329544701950004,-0.17482175305973002,-3.533107242932448,1.602906489999556
1970-01-01 00:00:00.000000005,0.045469895336339744,-0.11332024977123112,-3.5798569270088856,1.6041550339181354
1970-01-01 00:00:00.000000005,0.012707642284311566,0.009332636104055603,-3.72887215943977,1.6118944763336787
1970-01-01 00:00:00.000000005,0.057400155935109026,0.061071407957354135,-3.9039213944882962,1.6212232341436372
1970-01-01 00:00:00.000000005,0.10217074971444809,0.09229671204969435,-3.974304158438984,1.6222916025256882
1970-01-01 00:00:00.000000005,0.12750841093474113,0.11029768444284646,-3.9729330163058414,1.6184653247842462
1970-01-01 00:00:00.000000005,0.12749928415105108,0.16685993046877284,-4.013768119257026,1.6158487528865046
1970-01-01 00:00:00.000000005,0.10713371339533823,0.24077316896781875,-4.052953472880042,1.613761157581076
1970-01-01 00:00:00.000000005,0.0946936018534481,0.23004154895314433,-4.0199497312134485,1.6101858427690903
1970-01-01 00:00:00.000000005,0.04573454055010889,0.20918160579513184,-3.9968563168548936,1.6085469738883094
1970-01-01 00:00:00.000000005,-0.051358737847898156,0.18950068207601592,-3.87353194930804,1.600678750451791
1970-01-01 00:00:00.000000005,-0.17902882594255076,0.127102968121886,-3.6187401565976254,1.5880028698505382
1970-01-01 00:00:00.000000005,-0.2980800023181114,0.029388586704631597,-3.295343149337973,1.5709652886784502
1970-01-01 00:00:00.000000005,-0.4276895596597753,-0.11906226713213938,-2.8909760155629147,1.55106620810828
1970-01-01 00:00:00.000000005,-0.5838617351819829,-0.26833252487209447,-2.5352719964603745,1.5420170283213588
1970-01-01 00:00:00.000000005,-0.6635896802769354,-0.4218373645808359,-2.3572893490336213,1.5459295200778773
1970-01-01 00:00:00.000000005,-0.6735454741087383,-0.5292560617011117,-2.2695201703379793,1.5485576945666253
1970-01-01 00:00:00.000000005,-0.6703762743456991,-0.5981937472915364,-2.1498726960341106,1.5434682109546067
1970-01-01 00:00:00.000000005,-0.6726710064704348,-0.7270498748577652,-1.8821173822704846,1.5284666651961685
1970-01-01 00:00:00.000000005,-0.7259164191862061,-1.000596106841364,-1.385739858242232,1.5151459400445497
1970-01-01 00:00:00.000000005,-0.6861837961680209,-1.431271328653022,-0.6750851090637029,1.4967048208886136
1970-01-01 00:00:00.000000005,-0.504698510586564,-1.822486242524853,-0.020314562212319476,1.4755851718893236
1970-01-01 00:00:00.000000005,-0.15710033872481355,-1.947957250261711,0.4544918985873849,1.430452213055328
1970-01-01 00:00:00.000000005,0.15409410380371188,-1.8132497314888443,0.7507056071242075,1.3641917873329183
1970-01-01 00:00:00.000000005,0.1507994227495436,-1.6134749583299304,0.9608700353733827,1.3074940102165014
1970-01-01 00:00:00.000000005,-0.18576534721394186,-1.2023980307473043,1.2409614606291006,1.2447800248604612
1970-01-01 00:00:00.000000005,-0.7095609322639262,-0.5003488938832671,1.6460123795763744,1.1609470626558671
1970-01-01 00:00:00.000000005,-1.239570297381829,0.6230601575997179,2.131455049633576,1.0393303522243134
1970-01-01 00:00:00.000000005,-1.674380559569743,1.8212464071656456,2.6515472186199793,0.9077031291661839
1970-01-01 00:00:00.000000005,-1.9587177661273625,2.364016158750858,3.523743175983777,0.7905348818163616
1970-01-01 00:00:00.000000005,-2.236149876709548,2.0304815924153,4.762810246249629,0.7184878168590435
1970-01-01 00:00:00.000000005,-2.5075685837597623,1.2943102811789278,5.907456917472823,0.7024170417702628
1970-01-01 00:00:00.000000005,-2.591874142682966,0.6853146858304635,6.507945211931347,0.7746484210283694
1970-01-01 00:00:00.000000006,-2.550055519981953,0.11141223412851897,6.709289802558425,0.8121386201821582
1970-01-01 00:00:00.000000006,-2.4613472085015378,-0.6447111278617336,6.67535269364465,0.8823898566900252
1970-01-01 00:00:00.000000006,-2.335576080986312,-1.255174225023224,6.288671387219275,0.9726482681223576
1970-01-01 00:00:00.000000006,-2.1316619486660384,-1.497204928255585,5.366562780785553,1.0737236984250416
1970-01-01 00:00:00.000000006,-1.880732995217066,-1.4555957485769764,4.072286783291242,1.1784769749559925
1970-01-01 00:00:00.000000006,-1.628960616175622,-1.2196323748760638,2.6694282765245694,1.2762248301350338
1970-01-01 00:00:00.000000006,-1.3583358693558254,-0.8513615355229998,1.375393520425873,1.3495325725451743
1970-01-01 00:00:00.000000006,-1.1189174142916247,-0.4697156227650484,0.2636102364539029,1.40539038636621
1970-01-01 00:00:00.000000006,-0.9220852840344543,-0.1763020692663276,-0.6032589263035458,1.4474883655110762
1970-01-01 00:00:00.000000006,-0.781918907289465,0.06056202402634789,-1.2005989751974915,1.47462005018663
1970-01-01 00:00:00.000000006,-0.6606570214510104,0.24041832251168757,-1.6339717994947607,1.4930168903635128
1970-01-01 00:00:00.000000006,-0.5502329048247048,0.40211506194883107,-1.945257233001434,1.5050406640894596
1970-01-01 00:00:00.000000006,-0.40247367476961626,0.537425904883774,-2.2172359367669663,1.5106408911305216
1970-01-01 00:00:00.000000006,-0.29084784071419467,0.644565630092995,-2.383931799526731,1.5152669529161804
1970-01-01 00:00:00.000000006,-0.12157494145418155,0.7760877180850703,-2.4886810399967807,1.5086307443659495
1970-01-01 00:00:00.000000006,0.057840095916583255,0.9083900880018702,-2.71186895058838,1.51317277106405
1970-01-01 00:00:00.000000006,0.27818826711518174,0.9830463938051363,-2.9991788900497607,1.5264581065047447
1970-01-01 00:00:00.000000006,0.5218800372299633,1.034237971109843,-3.3655856543820963,1.5483938272387299
1970-01-01 00:00:00.000000006,0.7941227588606559,1.0388652896466877,-3.774147314780823,1.574483988728617
1970-01-01 00:00:00.000000006,1.0437025746834692,0.9560728623116557,-4.095443831739177,1.6004441776965015
1970-01-01 00:00:00.000000006,1.2565296058813287,0.8103818969691875,-4.267556237975816,1.619611009579666
1970-01-01 00:00:00.000000006,1.42941809050056,0.7232214672728664,-4.329591482191385,1.6248584886725945
1970-01-01 00:00:00.000000006,1.5577770365807102,0.6351103711247,-4.212901129465102,1.616903132608519
1970-01-01 00:00:00.000000006,1.660753364132199,0.5515937215987983,-4.041903844861548,1.6051835565638388
1970-01-01 00:00:00.000000006,1.747709729683651,0.44240051065284536,-3.9840222831867367,1.604355589526693
1970-01-01 00:00:00.000000006,1.7892577974407065,0.3488043521417267,-4.071113515066646,1.614823943072183
1970-01-01 00:00:00.000000006,1.7607963547468797,0.4055771182996697,-4.255782502486757,1.6229732908498766
1970-01-01 00:00:00.000000006,1.6619999190803723,0.5690489821805761,-4.367742911844554,1.619548346407396
1970-01-01 00:00:00.000000006,1.5281849885461085,0.7609159918032258,-4.371105526088855,1.603824949678825
1970-01-01 00:00:00.000000006,1.336614041251574,0.9270435065101214,-4.200745582550958,1.5819083012261035
1970-01-01 00:00:00.000000006,1.1868856629657063,1.012935430028027,-3.80534845672901,1.5481982257855882
1970-01-01 00:00:00.000000006,1.1262122912306023,1.0028676517888535,-3.2130082015900556,1.4969206388286613
1970-01-01 00:00:00.000000006,1.0457749956784004,0.9425313001997793,-2.567832854273722,1.4435214508186525
1970-01-01 00:00:00.000000006,0.9120751832635885,0.9068488426387735,-1.9071074747668597,1.38635221861017
1970-01-01 00:00:00.000000006,0.6856817485206966,0.9414385968546591,-1.275017818623966,1.3338618937650655
1970-01-01 00:00:00.000000006,0.45998077159949713,0.98221013291459,-0.7981567676026866,1.2949580698257648
1970-01-01 00:00:00.000000006,0.23793810943761232,1.0284491143060621,-0.5750007841817097,1.277042410298971
1970-01-01 00:00:00.000000006,0.01669978105899353,1.1584064297067984,-0.3543739289458253,1.2544997809057095
1970-01-01 00:00:00.000000006,-0.1625851453259458,1.4196496452130842,-0.07197013991995044,1.2123991278923758
1970-01-01 00:00:00.000000006,-0.3387326841636089,1.6731559740524573,0.16220213411303497,1.1781209514959399
1970-01-01 00:00:00.000000006,-0.43268988552236415,1.8448071746087806,0.5406732813772657,1.1329343792050086
1970-01-01 00:00:00.000000006,-0.5008122211189484,1.8561542444623647,1.1554929671507999,1.0774460874184906
1970-01-01 00:00:00.000000006,-0.6078203388727885,1.6603990272445421,1.7966784330638843,1.0439738787654544
1970-01-01 00:00:00.000000006,-0.6497171645613621,1.4386858376656702,2.3188910720993836,1.0207372820757057
1970-01-01 00:00:00.000000006,-0.639979866585277,1.2185799547067508,2.847841878597665,0.9972163985583418
1970-01-01 00:00:00.000000006,-0.5663312639570572,1.1155691664414888,2.9754358770626443,1.003524002326168
1970-01-01 00:00:00.000000006,-0.27502516255090426,1.3549977890647127,2.69213705194481,0.9979642104008206
1970-01-01 00:00:00.000000006,0.048891677949393975,1.5135402111403744,3.006433598281989,0.9325010476321982
1970-01-01 00:00:00.000000006,0.11876759641647638,1.0144937986724316,3.9854759886159012,0.8802922589170931
1970-01-01 00:00:00.000000006,0.05642450729104431,0.21858418797045143,4.942209929302692,0.8730040743865338
1970-01-01 00:00:00.000000006,0.1013910357373502,-0.36591393336848244,5.4509988926583555,0.8844468359225635
1970-01-01 00:00:00.000000006,0.24543309852203388,-0.8767205958556907,5.456299965536987,0.9254225848884671
1970-01-01 00:00:00.000000006,0.38992270611550056,-1.359542741375495,5.0650995902000435,0.9947846657274124
1970-01-01 00:00:00.000000006,0.46557735853395177,-1.647253293607902,4.485069097538978,1.0642658137279717
1970-01-01 00:00:00.000000006,0.44030521351422763,-1.6910977457576886,3.9569644836322975,1.1124130415094622
1970-01-01 00:00:00.000000006,0.355615629253093,-1.5700665404325145,3.795291261950214,1.1100279047463304
1970-01-01 00:00:00.000000006,0.09979073251162296,-1.4226488592645605,4.043949575679215,1.0832126695987556
1970-01-01 00:00:00.000000006,-0.1649581980376365,-1.3634364885883619,4.36936345251077,1.061552641843958
1970-01-01 00:00:00.000000006,-0.3665290815543748,-1.3496958077592285,4.4693041669735285,1.0659714813517747
1970-01-01 00:00:00.000000006,-0.43214965985430026,-1.392122915930949,4.2380764607542165,1.1027270559353324
1970-01-01 00:00:00.000000006,-0.3227003967298759,-1.4769406437913914,3.7194425519754017,1.1651636037888489
1970-01-01 00:00:00.000000006,-0.006462240130394065,-1.54751693849909,2.8746299705191922,1.2412700706026953
1970-01-01 00:00:00.000000006,0.37470310927410955,-1.5212732862851168,1.680310061441781,1.3306940081845262
1970-01-01 00:00:00.000000006,0.69139163012188,-1.4775524460354061,0.29305103357254864,1.4335997918447563
1970-01-01 00:00:00.000000006,0.8719287541402294,-1.4075642157803383,-1.0528536140924658,1.5384012088160262
1970-01-01 00:00:00.000000006,0.9900159690489023,-1.2131472516964088,-2.156564485731737,1.613589270826991
1970-01-01 00:00:00.000000006,1.0540439347841848,-0.9168435140021988,-2.993819434643929,1.6558994658348594
1970-01-01 00:00:00.000000006,1.030379756009149,-0.6553507840839161,-3.540283407375368,1.6787954452948903
1970-01-01 00:00:00.000000006,0.9411534231241978,-0.4617114002681803,-3.777916308495723,1.6843161094241075
1970-01-01 00:00:00.000000006,0.8226679557033307,-0.3758279303026395,-3.778427829154894,1.6795908983119467
1970-01-01 00:00:00.000000006,0.6810963305552366,-0.37144491461285306,-3.675437275396249,1.6756582445902533
1970-01-01 00:00:00.000000006,0.5441348324581484,-0.4678176659859649,-3.773011508285338,1.695371100184947
1970-01-01 00:00:00.000000006,0.36961307994718184,-0.5734195941025939,-4.009660975402358,1.7323962296103785
1970-01-01 00:00:00.000000006,0.21710849146336025,-0.5316638760813811,-4.254987328875591,1.758996894299714
1970-01-01 00:00:00.000000006,0.11996415021218093,-0.34037072629509535,-4.558862570438935,1.7734765465831919
1970-01-01 00:00:00.000000006,0.045864080960709264,-0.21122522479416211,-4.63718156388355,1.7688126688402321
1970-01-01 00:00:00.000000006,-0.07338051933527656,-0.047002025875343856,-4.5793313371448665,1.746996125676705
1970-01-01 00:00:00.000000006,-0.2982026895500587,0.06416539614151187,-4.257769669046201,1.7188998907140471
1970-01-01 00:00:00.000000006,-0.4729551433873478,-0.12535904728627392,-3.785276496084928,1.7052964509218647
1970-01-01 00:00:00.000000006,-0.5311227973630486,-0.5264600550477685,-3.0222961074238346,1.6933261983009504
1970-01-01 00:00:00.000000006,-0.25256563995445236,-0.7550461593556603,-2.607702124710712,1.6703494791533027
1970-01-01 00:00:00.000000006,0.06832688740522094,-0.8080156617192076,-2.58389067392957,1.654702620975707
1970-01-01 00:00:00.000000006,0.27983846844431004,-0.9061786800296601,-2.252148044354483,1.608641610525573
1970-01-01 00:00:00.000000006,0.15738587520315783,-1.067366316992473,-1.6326641415523073,1.5668855416055525
1970-01-01 00:00:00.000000006,-0.05266328062573833,-1.2580070358421962,-1.1750789346329384,1.5487951520508607
1970-01-01 00:00:00.000000006,-0.2609882336928848,-1.3188991918231272,-0.7645426346133137,1.5273303189930234
1970-01-01 00:00:00.000000006,-0.3746978748760033,-0.9196806837456609,-0.4099817402899724,1.4435362166989696
1970-01-01 00:00:00.000000006,-0.8571658230689235,-0.5593604028195056,0.14815451327426718,1.348088694670998
1970-01-01 00:00:00.000000006,-1.8550474343770145,-0.308205074179475,1.0349987168966928,1.2765259539210765
1970-01-01 00:00:00.000000006,-2.8448866487900686,0.34481521234635676,2.1538026553092195,1.17192616987248
1970-01-01 00:00:00.000000006,-3.420558807136335,1.3191772735902227,3.318634442511147,1.0132643949964615
1970-01-01 00:00:00.000000006,-3.7627411888319418,2.0100262640499116,4.436382381952147,0.8700898807938562
1970-01-01 00:00:00.000000006,-3.9654870877397577,2.051583137577439,5.563741152016993,0.7760359645595237
1970-01-01 00:00:00.000000006,-4.084943287526814,1.5916569113768535,6.493567183341989,0.7386419194502397
1970-01-01 00:00:00.000000007,-4.213363500481086,0.8637703193989992,6.95318964801825,0.8047350067000265
1970-01-01 00:00:00.000000007,-4.311948707985657,0.003539334337891553,7.015950935092369,0.8838611760025599
1970-01-01 00:00:00.000000007,-4.359351145408201,-0.953123626611206,6.792570265140092,0.9958617036439001
1970-01-01 00:00:00.000000007,-4.340157160493517,-1.7290853234903023,6.142238153040528,1.1344570443433664
1970-01-01 00:00:00.000000007,-4.117156610664642,-1.9821168007540884,5.0479231738270585,1.2558020931102107
1970-01-01 00:00:00.000000007,-3.7666235601013,-1.8371643428718496,3.852591494288329,1.3443637162410267
1970-01-01 00:00:00.000000007,-3.3388433947140292,-1.616572321359634,2.7267953073839837,1.418026673434019
1970-01-01 00:00:00.000000007,-2.811585408529023,-1.392164055664848,1.689006083252665,1.4817410372612774
1970-01-01 00:00:00.000000007,-2.1509733015426074,-1.149398809460011,0.6988273125692308,1.5326999973620772
1970-01-01 00:00:00.000000007,-1.398180915432906,-0.8459236814079187,-0.274988525535907,1.5680993024726817
1970-01-01 00:00:00.000000007,-0.6549825253211471,-0.5240062244270637,-1.2069831379119695,1.5937758261374189
1970-01-01 00:00:00.000000007,-0.0005289666258594811,-0.2729508727640633,-2.0342626927285568,1.6144018012066987
1970-01-01 00:00:00.000000007,0.4820514389031343,-0.08165297806294901,-2.7040952036193637,1.630347461193516
1970-01-01 00:00:00.000000007,0.7615287221189065,0.19119474230684297,-3.3534335277518372,1.649114220870996
1970-01-01 00:00:00.000000007,0.9454448168024341,0.6319136940215271,-3.950607372006522,1.6549994686074456
1970-01-01 00:00:00.000000007,1.0964668684382952,1.1032203708762822,-4.330220141822379,1.6398770987422941
1970-01-01 00:00:00.000000007,1.2171468165443198,1.5138144593182907,-4.356558317517453,1.601720629725132
1970-01-01 00:00:00.000000007,1.337782910035404,1.8499126222063138,-4.216711839660129,1.557982787935333
1970-01-01 00:00:00.000000007,1.51275330570727,2.1138041481160528,-4.064683545442155,1.5150527450030924
1970-01-01 00:00:00.000000007,1.6970860363604834,2.2256910924788755,-3.7768521717262873,1.4725933353102787
1970-01-01 00:00:00.000000007,1.87208418469615,2.0545374674116847,-3.335642972569527,1.4409097195828435
1970-01-01 00:00:00.000000007,2.014273657969119,1.6259454296244282,-2.906383185663172,1.432354288024612
1970-01-01 00:00:00.000000007,2.0960748276949115,1.1803048930630746,-2.552387279720911,1.4382321103072127
1970-01-01 00:00:00.000000007,2.194385769123498,0.9116414947797128,-2.338718555100309,1.4405277945815913
1970-01-01 00:00:00.000000007,2.305858462329072,0.7910297579323139,-2.2359994160442596,1.4342929279492669
1970-01-01 00:00:00.000000007,2.333566196422507,0.7268419414017318,-2.2525857060857475,1.4373215246679167
1970-01-01 00:00:00.000000007,2.306993146078576,0.7817740997577702,-2.3857432084275914,1.442719970538161
1970-01-01 00:00:00.000000007,2.237684591284524,0.9410917840638525,-2.6024478894533933,1.447411004478564
1970-01-01 00:00:00.000000007,2.1116383330017947,1.0829498990862754,-2.9251039776939822,1.463883272113442
1970-01-01 00:00:00.000000007,1.916791759704199,1.0885342884752074,-3.085380711074488,1.4886764324043533
1970-01-01 00:00:00.000000007,1.8114857294495574,0.9553856821382569,-2.9822654289232666,1.4995504878083734
1970-01-01 00:00:00.000000007,1.7890414366133238,0.8304389919568613,-2.812226007154579,1.4940068937312085
1970-01-01 00:00:00.000000007,1.7290558902996866,0.7272267934107365,-2.437077071536647,1.4706556282583407
1970-01-01 00:00:00.000000007,1.6547394010358176,0.6520522878972779,-1.8914870665706336,1.4323232196186093
1970-01-01 00:00:00.000000007,1.5980811357001588,0.7053097211280728,-1.555948984558115,1.4004563353667763
1970-01-01 00:00:00.000000007,1.5725796399585674,0.755948983781198,-1.254496715277989,1.3658969291151655
1970-01-01 00:00:00.000000007,1.4711848927578461,0.706685789128314,-1.0640893797835762,1.3513939915170423
1970-01-01 00:00:00.000000007,1.2910785231918285,0.6729002579565382,-0.8775836036052935,1.3413340697285716
1970-01-01 00:00:00.000000007,1.0909054222645629,0.782547581069063,-0.559741512188519,1.3068125891355555
1970-01-01 00:00:00.000000007,0.8274496069139524,0.9222379832750738,-0.2690836731178295,1.2802196819086107
1970-01-01 00:00:00.000000007,0.6342190888407064,0.9882286104895902,0.16483298113880007,1.2507297581389254
1970-01-01 00:00:00.000000007,0.5990452583191396,0.875609867280922,0.5852495312025925,1.2264194477899
1970-01-01 00:00:00.000000007,0.6093015236435941,0.620712320476531,1.1043788757124786,1.201330139179948
1970-01-01 00:00:00.000000007,0.6065200739151644,0.22616472008114535,1.825522047530117,1.1732965371747452
1970-01-01 00:00:00.000000007,0.6194198208878159,-0.20596313751525053,2.493018148371007,1.1572383979186978
1970-01-01 00:00:00.000000007,0.7440948235683267,-0.34764886831253816,2.925488523167316,1.13292106392067
1970-01-01 00:00:00.000000007,0.9651077517913029,-0.1162602674806551,2.809468016589041,1.1171866599921612
1970-01-01 00:00:00.000000007,1.2359553532815373,0.39363298222542464,2.365159260627489,1.0873903843686012
1970-01-01 00:00:00.000000007,1.267220773465535,0.8931645540766159,2.4486457868627407,1.012427777080025
1970-01-01 00:00:00.000000007,0.9004356203653787,0.7914599784523055,3.3179269852754905,0.9390698900112097
1970-01-01 00:00:00.000000007,0.22068988315762184,0.1831312701183535,4.342259221558369,0.9205959518159381
1970-01-01 00:00:00.000000007,-0.5033945114627361,-0.45010318274902616,5.069884499307816,0.9350936041370366
1970-01-01 00:00:00.000000007,-1.2399870787082623,-1.0581240424307754,5.572415421664,0.9759848144057696
1970-01-01 00:00:00.000000007,-1.8262232635954745,-1.6605560394021734,6.3440218090999325,0.9964466009087791
1970-01-01 00:00:00.000000007,-2.121128387611105,-2.0899876025939275,7.153074842868372,0.9862351215757399
1970-01-01 00:00:00.000000007,-2.18860681124725,-2.2903358727813927,7.517772306198259,0.981935332098628
1970-01-01 00:00:00.000000007,-2.119889019118588,-2.39833250824881,7.427525878739414,0.9980275919523451
1970-01-01 00:00:00.000000007,-2.0512229706574376,-2.504519487753895,6.985548781948399,1.046192305407533
1970-01-01 00:00:00.000000007,-1.9619686497329432,-2.4778362190638594,6.178148675910007,1.116282388704148
1970-01-01 00:00:00.000000007,-1.8322394287511485,-2.402268574846318,5.069255319745696,1.209482334338584
1970-01-01 00:00:00.000000007,-1.6190136437670304,-2.2418390213422237,3.83332123766833,1.3025772114925147
1970-01-01 00:00:00.000000007,-1.3603543873431612,-2.05813030073562,2.499672797957391,1.400617369227806
1970-01-01 00:00:00.000000007,-1.065953063644537,-1.9470006598492906,1.0385227458515185,1.5160304889388578
1970-01-01 00:00:00.000000007,-0.7072180910161137,-1.7860296220474088,-0.48470076681857605,1.6283240178795262
1970-01-01 00:00:00.000000007,-0.3317332029218911,-1.611284173090989,-1.9609284876132906,1.7344932487584908
1970-01-01 00:00:00.000000007,0.06651380252620592,-1.4726966660768626,-3.214422013407878,1.820200376542538
1970-01-01 00:00:00.000000007,0.432585016648993,-1.3033316875156684,-4.230271750930784,1.8803713339689818
1970-01-01 00:00:00.000000007,0.7288385496288099,-1.1322823512798936,-4.917938716157041,1.9060624787966247
1970-01-01 00:00:00.000000007,0.8119208813431459,-1.0488660402794077,-5.334647828547464,1.9240016429123736
1970-01-01 00:00:00.000000007,0.7416827715178871,-0.9349243444564178,-5.365376262816935,1.9154185642554022
1970-01-01 00:00:00.000000007,0.6156416160533869,-0.7321465057034158,-5.068566513169201,1.8755046389344006
1970-01-01 00:00:00.000000007,0.4865269309981002,-0.587087743505325,-4.739976026721121,1.8404105456142346
1970-01-01 00:00:00.000000007,0.41476913549440964,-0.4899710709642673,-4.5315347103248556,1.8160918832364805
1970-01-01 00:00:00.000000007,0.36245617001859526,-0.4090153209715047,-4.378345300491613,1.7984464459394767
1970-01-01 00:00:00.000000007,0.3421747707045493,-0.37971944121498913,-4.260065248897325,1.7869456037910894
1970-01-01 00:00:00.000000007,0.3433442293248312,-0.38335519073937374,-4.183362018642206,1.7803995501242533
1970-01-01 00:00:00.000000007,0.35361113041696396,-0.35855045314118655,-4.078388998835265,1.7674227977809793
1970-01-01 00:00:00.000000007,0.3386431960647931,-0.3453396165071678,-3.980973522344163,1.7634437101382652
1970-01-01 00:00:00.000000007,0.4264614015204336,-0.42382791280728677,-3.8661048247121452,1.758608948307578
1970-01-01 00:00:00.000000007,0.5441776477539335,-0.4448662830536509,-3.750708998647916,1.7434059330125882
1970-01-01 00:00:00.000000007,0.6153451711933455,-0.30673246421234285,-3.6222088733526885,1.7154408010715745
1970-01-01 00:00:00.000000007,0.6539303455283421,-0.0958607891492422,-3.5578811203443386,1.6858054500605555
1970-01-01 00:00:00.000000007,0.6359225303242315,0.19511225882825986,-3.4639602742990325,1.6491877448191672
1970-01-01 00:00:00.000000007,0.5760032618841792,0.5069792674049587,-3.325958795836794,1.6066114425600797
1970-01-01 00:00:00.000000007,0.44008988831524204,0.7153354193688006,-3.1149197550312078,1.5725889551765284
1970-01-01 00:00:00.000000007,0.30639000469221866,0.8608347001491814,-2.72311694540927,1.5283082844130842
1970-01-01 00:00:00.000000007,0.16345433278003624,0.9506937814171308,-2.2357454742610434,1.486487313345131
1970-01-01 00:00:00.000000007,0.12768490051426892,1.0145693320168012,-1.6853389257354685,1.4347814024192445
1970-01-01 00:00:00.000000007,0.1352334948201408,0.9485074631513839,-1.0125762404817413,1.3797001246996814
1970-01-01 00:00:00.000000007,0.1395417111301616,0.7357685647401269,-0.2635831756020456,1.3290186487520343
1970-01-01 00:00:00.000000007,0.10725088745570557,0.32798920962503697,0.5565759240194137,1.2858091090085293
1970-01-01 00:00:00.000000007,-0.06642610858233033,-0.35693533449360165,1.3142576944967455,1.282212157459117
1970-01-01 00:00:00.000000007,-0.2611323608190908,-0.895068507370362,1.9985565609746554,1.2753541685799197
1970-01-01 00:00:00.000000007,-0.44201359883316477,-0.8422587289528014,2.364425087372307,1.2412663223624159
1970-01-01 00:00:00.000000007,-0.6692918924147786,-0.2627440195099491,2.174093952923035,1.193269982660935
1970-01-01 00:00:00.000000007,-1.2696574012421586,0.31194300994686175,1.8998844493122862,1.1620563098558034
1970-01-01 00:00:00.000000007,-2.292257475453227,0.7881797960121345,1.975760686445449,1.1564851839929353
1970-01-01 00:00:00.000000007,-3.0846419184092215,1.637154376142056,2.3638969784758928,1.1025468443249713
1970-01-01 00:00:00.000000007,-3.3245236331938592,2.684215260314317,2.618684632894645,1.0027668058826062
1970-01-01 00:00:00.000000007,-3.456892245004257,2.9593017583441514,3.2132322156791573,0.9660613131152658
1970-01-01 00:00:00.000000008,-3.752289562529302,2.049069983200175,4.4707229586649655,0.9369604688587273
1970-01-01 00:00:00.000000008,-4.214307708023762,0.7332329336477428,5.613932813861853,0.9734505440640261
1970-01-01 00:00:00.000000008,-4.554712214837675,-0.3357572529960764,6.271486537320084,1.0361617949915511
1970-01-01 00:00:00.000000008,-4.63200190111888,-1.22576535831852,6.539117100003591,1.0997653793376758
1970-01-01 00:00:00.000000008,-4.63539978467086,-2.0146073491348857,6.529975235246014,1.1767375720013127
1970-01-01 00:00:00.000000008,-4.564249061298682,-2.5884181533725767,6.1004291665893495,1.276298032055112
1970-01-01 00:00:00.000000008,-4.2976909820783655,-2.785187993114397,5.01910706147674,1.3947381447037146
1970-01-01 00:00:00.000000008,-3.8086990912464893,-2.5182235064632144,3.5088956475356183,1.4990000816048161
1970-01-01 00:00:00.000000008,-3.1716020648776873,-1.9861128695732733,1.9418092338040553,1.572931922852102
1970-01-01 00:00:00.000000008,-2.5163382165548245,-1.476017560968165,0.5507600762208728,1.624902298855634
1970-01-01 00:00:00.000000008,-1.967662678736494,-1.0334614059700709,-0.4883873052433838,1.6562640692538075
1970-01-01 00:00:00.000000008,-1.4932473903905341,-0.6341580718703861,-1.1939349894388862,1.6614439517572672
1970-01-01 00:00:00.000000008,-1.1494694964925645,-0.4064365432210846,-1.5654874182972793,1.659026671908354
1970-01-01 00:00:00.000000008,-0.8918908847330241,-0.3220120973555025,-1.806608806844277,1.6738267399183757
1970-01-01 00:00:00.000000008,-0.4650767437348338,-0.15570203146679923,-2.3307623125874675,1.6904174122052387
1970-01-01 00:00:00.000000008,-0.06724186298348034,0.08557280181469326,-3.0314580789545453,1.7088929960925046
1970-01-01 00:00:00.000000008,0.15553177073421018,0.224954746012677,-3.5098187536360212,1.7324146002483396
1970-01-01 00:00:00.000000008,0.39606881827351414,0.3868684726251145,-3.8349851371204666,1.7388983951168786
1970-01-01 00:00:00.000000008,0.6234141089873577,0.468979912043685,-4.0362940514382455,1.7402620174923955
1970-01-01 00:00:00.000000008,0.8144490130614964,0.4952470362823558,-4.175296367984276,1.741768013312372
1970-01-01 00:00:00.000000008,0.9683314153497029,0.5782015795572527,-4.271196372159903,1.736919906325688
1970-01-01 00:00:00.000000008,1.1038117595799113,0.6666631528832758,-4.3465381392132745,1.7294710510077111
1970-01-01 00:00:00.000000008,1.204653415347156,0.6643707762334299,-4.342666158656309,1.7253997512314319
1970-01-01 00:00:00.000000008,1.295915689032204,0.6148069683253776,-4.3119889816010675,1.7237154475536836
1970-01-01 00:00:00.000000008,1.3869394582908905,0.561210620636355,-4.205243092487898,1.714644637209304
1970-01-01 00:00:00.000000008,1.4448313272808297,0.4085750433365568,-4.1088792610918246,1.7163190639845496
1970-01-01 00:00:00.000000008,1.4766875097724808,0.2989548434074382,-4.155857663034529,1.7285434367370678
1970-01-01 00:00:00.000000008,1.5039696940308398,0.41878163603259466,-4.343701733472097,1.7338636876914029
1970-01-01 00:00:00.000000008,1.534842640176442,0.6268841993340896,-4.505354270850553,1.7284450531990985
1970-01-01 00:00:00.000000008,1.558622548110093,0.7672608897391578,-4.54069443574144,1.7182559448423746
1970-01-01 00:00:00.000000008,1.5903628068698326,0.844484944999505,-4.338070372792014,1.6937246313280196
1970-01-01 00:00:00.000000008,1.6553393661649878,0.9010530340410048,-3.9699852208494253,1.6534635622144238
1970-01-01 00:00:00.000000008,1.7218251957448267,0.8646272893229663,-3.4708502749271006,1.6044059160835176
1970-01-01 00:00:00.000000008,1.6994132986480521,0.8048397662296718,-2.882016213631701,1.550386212997845
1970-01-01 00:00:00.000000008,1.5639310319175455,0.8171584271403944,-2.1424754648666102,1.4810679155272088
1970-01-01 00:00:00.000000008,1.3261590815703974,0.9461170663080496,-1.2771420380196887,1.4000608583905634
1970-01-01 00:00:00.000000008,1.0954622804627314,0.9607718717180871,-0.3575900531238885,1.3272788219657523
1970-01-01 00:00:00.000000008,0.940738695409338,0.7912738519430269,0.6687609855372809,1.2569517689540284
1970-01-01 00:00:00.000000008,0.8168404202587618,0.4679984667643026,1.7285129986510812,1.1987293282202456
1970-01-01 00:00:00.000000008,0.760782118649193,0.12712396075616605,2.5335291881047604,1.1651133554619775
1970-01-01 00:00:00.000000008,0.8241021890424503,0.07883460365341582,2.7912612101788494,1.1477514516611134
1970-01-01 00:00:00.000000008,0.9452973906401282,0.3103203659056722,2.389433514743863,1.1570199198145343
1970-01-01 00:00:00.000000008,1.0396957509405205,0.6105608272180267,1.7841892393237364,1.1764659871564191
1970-01-01 00:00:00.000000008,1.066020425571782,0.968299701103053,1.32715367911903,1.1749735179375045
1970-01-01 00:00:00.000000008,0.9396783041579135,1.341001421702246,1.3564304160279235,1.1292233687006483
1970-01-01 00:00:00.000000008,0.5623212846515091,1.7136317908367062,1.7713606596141125,1.062884595365928
1970-01-01 00:00:00.000000008,0.04369535078532438,2.0758923632228132,2.369142825887288,0.9914301909202242
1970-01-01 00:00:00.000000008,-0.49892396020994645,2.2610399612819037,3.3710735844457087,0.9052425569896039
1970-01-01 00:00:00.000000008,-1.0075370779350568,2.089505417942091,4.5171627807006045,0.8413717267594236
1970-01-01 00:00:00.000000008,-1.39041534608313,1.6275742339090962,5.5642894052251926,0.8076960286761026
1970-01-01 00:00:00.000000008,-1.6562862929182454,0.9160934318948278,6.529745694670439,0.8014496341930069
1970-01-01 00:00:00.000000008,-1.7981740308431955,0.09673003878274855,6.978625962408099,0.8451597584731139
1970-01-01 00:00:00.000000008,-1.8468686592539614,-0.6541394948852886,6.793398180223247,0.942040786862815
1970-01-01 00:00:00.000000008,-1.6798170156700842,-1.0815347619706042,6.120086542334196,1.0408371779441583
1970-01-01 00:00:00.000000008,-1.4158898319285431,-1.1144151043122337,5.131822436808789,1.1173810440449086
1970-01-01 00:00:00.000000008,-1.2668278140580702,-1.00393787357854,4.442854432384142,1.1561202445560872
1970-01-01 00:00:00.000000008,-1.2813395236875906,-0.9375895684647622,4.129565151406835,1.1761175252198641
1970-01-01 00:00:00.000000008,-1.3522578832828338,-0.9956952879689054,4.120689842601454,1.188272175788026
1970-01-01 00:00:00.000000008,-1.3686805054166125,-1.167931653407278,4.157312152120639,1.2094168267517935
1970-01-01 00:00:00.000000008,-1.2446723703403868,-1.2815898028250015,3.883607815858545,1.246785750119765
1970-01-01 00:00:00.000000008,-1.0112165262567503,-1.3588253323117208,3.2762665666162216,1.3039001694447354
1970-01-01 00:00:00.000000008,-0.7286332631673187,-1.5068845524411187,2.4753990999298585,1.3822624944451332
1970-01-01 00:00:00.000000008,-0.4082502511624178,-1.6459826955888637,1.4905840194996192,1.472196120990121
1970-01-01 00:00:00.000000008,-0.10296596622684905,-1.76110856298197,0.44390909203609213,1.564506490171095
1970-01-01 00:00:00.000000008,0.15772243166815073,-1.7935434341623462,-0.6446334637631473,1.6538182367981222
1970-01-01 00:00:00.000000008,0.3572375366848751,-1.7876403556679792,-1.722088809907728,1.739443759518247
1970-01-01 00:00:00.000000008,0.4818045776398241,-1.74947991633962,-2.62849815121204,1.8083635751347324
1970-01-01 00:00:00.000000008,0.5135459530847017,-1.70440768152713,-3.2534515688428316,1.8542165255007277
1970-01-01 00:00:00.000000008,0.4436356085821421,-1.6653728168901856,-3.6105395395416746,1.8835713337943454
1970-01-01 00:00:00.000000008,0.33730030326617405,-1.6312236407990552,-3.8516812650735335,1.9055782730621182
1970-01-01 00:00:00.000000008,0.22700246064955154,-1.5492403457766732,-4.056429478536142,1.9194012301971424
1970-01-01 00:00:00.000000008,0.09782228502021573,-1.4616735892443717,-4.185322549475419,1.928781100594321
1970-01-01 00:00:00.000000008,-0.006019204088976937,-1.4165343766324163,-4.197867170111184,1.9310347254451725
1970-01-01 00:00:00.000000008,-0.08043476528855553,-1.339650982763272,-4.211987446459229,1.928194135899365
1970-01-01 00:00:00.000000008,-0.15145081518714687,-1.2329751662835091,-4.2547268925955555,1.9252079879368775
1970-01-01 00:00:00.000000008,-0.21395514885827693,-1.1060578830280963,-4.321018029757324,1.920976214666457
1970-01-01 00:00:00.000000008,-0.2928357552245774,-0.926733847814911,-4.458906083191934,1.9189376881245186
1970-01-01 00:00:00.000000008,-0.3812752138209533,-0.6706452596755509,-4.574335468125886,1.9093861654012538
1970-01-01 00:00:00.000000008,-0.4642831730774915,-0.44843862877004204,-4.565902021552148,1.890672364770927
1970-01-01 00:00:00.000000008,-0.5623327171206731,-0.22942945657359348,-4.497250853240006,1.8704699963626337
1970-01-01 00:00:00.000000008,-0.6137142170224719,-0.035723594402896686,-4.399437911613886,1.8463846937410893
1970-01-01 00:00:00.000000008,-0.6552225832740767,0.07849688650456393,-4.223968281525794,1.8194552658626861
1970-01-01 00:00:00.000000008,-0.7309227066841716,0.1387970586794754,-3.9140481609290414,1.7864990656116708
1970-01-01 00:00:00.000000008,-0.8363305386018225,0.21992378513470323,-3.4044319762649424,1.7408536453525199
1970-01-01 00:00:00.000000008,-0.8737173390297494,0.2532823564974123,-2.80147798168443,1.694620627852992
1970-01-01 00:00:00.000000008,-0.7407314369262541,0.23853176935499582,-2.3656416001550897,1.6576692881445658
1970-01-01 00:00:00.000000008,-0.5044902218158444,0.22118122339442572,-2.0367394151960574,1.6204900117639118
1970-01-01 00:00:00.000000008,-0.28437365212891236,0.1909851405331962,-1.6686987318997728,1.5771189601264624
1970-01-01 00:00:00.000000008,-0.15875698586637746,-0.02446454920860988,-0.9780084663082861,1.5257738438467956
1970-01-01 00:00:00.000000008,-0.11323871038347848,-0.2656453573605689,-0.15164724661886125,1.4785914879488
1970-01-01 00:00:00.000000008,0.05714090984667225,-0.3786629475046207,0.40282995962113977,1.439427535199586
1970-01-01 00:00:00.000000008,0.33260103139934216,-0.44829373859824917,0.5380166430555312,1.4198465015126362
1970-01-01 00:00:00.000000008,0.5281485553121601,-0.4738396373931757,0.37504776013308955,1.4217904153031924
1970-01-01 00:00:00.000000008,0.591215532710943,-0.42109997637104735,0.26254937518439253,1.4167052587267592
1970-01-01 00:00:00.000000008,0.5095439597420699,-0.3471634068186379,0.2624816876520605,1.4018819405325127
1970-01-01 00:00:00.000000008,0.23889404526301525,-0.28295796837282694,0.49381023078052927,1.3773952274171157
1970-01-01 00:00:00.000000008,-0.23665919277465403,-0.12214386614834687,0.740952416521507,1.4822811252355486
1970-01-01 00:00:00.000000008,-0.7261548098921609,0.2706424951693873,1.047473928102091,1.4440674799555564
1970-01-01 00:00:00.000000009,-1.111973863630527,1.000771837834425,1.6121242443477144,1.3431248488882672
1970-01-01 00:00:00.000000009,-1.4549624409439814,1.8734806523289607,2.3531641952552294,1.2078903792076163
1970-01-01 00:00:00.000000009,-1.8457014568545933,2.398891136684776,3.2389943891804633,1.0999041645654575
1970-01-01 00:00:00.000000009,-2.1180183659856815,2.4128425628015178,4.365946837259296,1.0200880019126664
1970-01-01 00:00:00.000000009,-2.15400631406457,2.0339103384090986,5.177622496273439,0.992827579740405
1970-01-01 00:00:00.000000009,-2.002163365871938,1.4688107136806068,5.395934701559867,1.016634203725646
1970-01-01 00:00:00.000000009,-1.8822924992740648,0.725037961273989,5.363673476149877,1.0716583643697395
1970-01-01 00:00:00.000000009,-1.9516611184885164,-0.17834990439289777,5.3876850093766,1.1468809023582118
1970-01-01 00:00:00.000000009,-2.1286354051212477,-0.9707996689949869,5.423507487905456,1.2281151234002257
1970-01-01 00:00:00.000000009,-2.188591664546362,-1.4902601656745504,5.0899981568678445,1.3195118354561701
1970-01-01 00:00:00.000000009,-2.035661361081958,-1.7590438051876562,4.263623746556555,1.4201888461577483
1970-01-01 00:00:00.000000009,-1.764463427293693,-1.7689433699675956,3.012822204583741,1.5248696284386367
1970-01-01 00:00:00.000000009,-1.4939925496157336,-1.6461931094389077,1.6888098517029309,1.6218286093949859
1970-01-01 00:00:00.000000009,-1.2702648904841969,-1.5001419201297523,0.513172456148583,1.7069349031902101
1970-01-01 00:00:00.000000009,-1.0556280388021413,-1.3118516392289987,-0.5373664408557869,1.7755042847871432
1970-01-01 00:00:00.000000009,-0.8803417051733448,-1.0916550880345075,-1.4438691082361028,1.8241814502924194
1970-01-01 00:00:00.000000009,-0.83578778399763,-0.805558688763697,-2.0898224325799775,1.8489753352582563
1970-01-01 00:00:00.000000009,-0.8898044736213235,-0.43892876800137676,-2.26183583083935,1.8319567554755058
1970-01-01 00:00:00.000000009,-0.9776492193599285,-0.12987965770959936,-2.0641066105186177,1.7937988653553114
1970-01-01 00:00:00.000000009,-0.9974790506827019,0.07673693464680945,-1.824483728358712,1.7594749471335664
1970-01-01 00:00:00.000000009,-0.9280605694886184,0.21260887530268402,-1.6861220730373752,1.7371601025912737
1970-01-01 00:00:00.000000009,-0.7784285683133539,0.23819389167057228,-1.6263210505054955,1.7326424291867986
1970-01-01 00:00:00.000000009,-0.48864637964627883,0.1596149186065846,-1.7835575718071874,1.74947761746716
1970-01-01 00:00:00.000000009,-0.11026956498222316,0.09168945037437097,-2.2594528486214003,1.787837195304742
1970-01-01 00:00:00.000000009,0.30798806577666626,0.11017799218616495,-2.927491590285879,1.8306078196566775
1970-01-01 00:00:00.000000009,0.6921292502645651,0.10211218537428118,-3.5638242423751296,1.871873195358817
1970-01-01 00:00:00.000000009,1.0027794369399485,0.08077091944683028,-4.111843047315111,1.908191774769931
1970-01-01 00:00:00.000000009,1.2366289875030123,0.09024429351183164,-4.444396381311167,1.9251497904620924
1970-01-01 00:00:00.000000009,1.3957732043544269,0.186442169995876,-4.556242083463104,1.9157731455409308
1970-01-01 00:00:00.000000009,1.4500012390730406,0.27254760747648865,-4.495286561092861,1.8938818634538996
1970-01-01 00:00:00.000000009,1.3833251527346222,0.3028499175591337,-4.185988380354368,1.863847266615203
1970-01-01 00:00:00.000000009,1.2805661978089227,0.3014961943003617,-3.8793036807947905,1.8413937760479016
1970-01-01 00:00:00.000000009,1.212965017361189,0.2895500275258853,-3.6032083021297536,1.8200907988644355
1970-01-01 00:00:00.000000009,1.1459971615907671,0.2601361726393235,-3.413538852967801,1.8091428302436772
1970-01-01 00:00:00.000000009,1.106249125083288,0.24553252696403727,-3.3009348347726744,1.8024749241540814
1970-01-01 00:00:00.000000009,1.0840840838070864,0.29399302800804955,-3.2869507132760774,1.7967345077459163
1970-01-01 00:00:00.000000009,1.0386272472267815,0.27469893538328544,-3.364314717551448,1.8060799043266806
1970-01-01 00:00:00.000000009,0.9962901413414843,0.1916633745451073,-3.230761513408544,1.8005114694899786
1970-01-01 00:00:00.000000009,0.9108344017968649,0.1103098398908994,-2.9061484819229473,1.7821308476700775
1970-01-01 00:00:00.000000009,0.8290708169580941,-0.027230051789936552,-2.549179852810144,1.7673924765140698
1970-01-01 00:00:00.000000009,0.8037953543196276,-0.06365168169970228,-2.139837987431458,1.7336389879403609
1970-01-01 00:00:00.000000009,0.7594836877707314,-0.05840909286832916,-1.5934895466055128,1.6881198723204178
1970-01-01 00:00:00.000000009,0.7606866991183336,0.01684887332078408,-1.1041370718514143,1.6401436769879443
1970-01-01 00:00:00.000000009,0.8187293865327456,0.24074870998149916,-0.740791355930645,1.5874828570171597
1970-01-01 00:00:00.000000009,0.924628892190742,0.5185970794676187,-0.3619987549881637,1.5214276589742974
1970-01-01 00:00:00.000000009,0.9574805879363156,0.7281228443035159,-0.06642462009046657,1.472117757159209
1970-01-01 00:00:00.000000009,0.9394015994872769,0.8520750667967039,0.029889362615017845,1.4514105476047772
1970-01-01 00:00:00.000000009,0.9145109234658428,0.9801758028183384,0.0757092543067222,1.4325422849915874
1970-01-01 00:00:00.000000009,0.8450874946916654,1.2483970766339934,0.39998597100211297,1.3772600277147669
1970-01-01 00:00:00.000000009,0.7049021869749712,1.4976180765977627,1.2449847730485641,1.2888546868163842
1970-01-01 00:00:00.000000009,0.6392975401416499,1.7161533825160404,1.9934652923193343,1.2149823205489836
1970-01-01 00:00:00.000000009,0.7902859934409336,2.1886905194374178,2.428745387675527,1.130138649319187
1970-01-01 00:00:00.000000009,0.9767179919299223,2.6084522913850403,2.8126218240105163,1.0430262733706306
1970-01-01 00:00:00.000000009,1.0134456675520838,2.6587369507271834,3.431259463376694,0.9650897476671838
1970-01-01 00:00:00.000000009,0.7552243443475948,2.0662137945759214,4.470152103487832,0.9174687431818813
1970-01-01 00:00:00.000000009,0.21370462874216856,0.9718154966511456,5.855627324622932,0.9136497252827113
1970-01-01 00:00:00.000000009,-0.219866276531402,-0.1832124186378965,7.275768627688367,0.90936021901947
1970-01-01 00:00:00.000000009,-0.5695486217348316,-1.4028381841431765,8.605838238693991,0.9190922171851375
1970-01-01 00:00:00.000000009,-0.8170160644685269,-2.6084841825177416,9.166798187759811,1.005367428900839
1970-01-01 00:00:00.000000009,-0.707787188365033,-3.1192077039296864,8.30473987072763,1.1471588162550388
1970-01-01 00:00:00.000000009,-0.18828804903811514,-2.8143708872987148,6.3569312581712225,1.277976959481421
1970-01-01 00:00:00.000000009,0.3227560499624004,-2.349679892679434,4.35153046035134,1.3916488634103779
1970-01-01 00:00:00.000000009,0.6862815964842715,-1.9609809277996235,2.800396458561295,1.4768510530562196
1970-01-01 00:00:00.000000009,0.9211349993995634,-1.577501516040376,1.7784775626735745,1.516936624188508
1970-01-01 00:00:00.000000009,0.9702369505391089,-1.3443626865630323,1.2556950523527715,1.5319385319721353
1970-01-01 00:00:00.000000009,0.8363555860699303,-1.2831891921104193,1.062390679902368,1.5468089813212949
1970-01-01 00:00:00.000000009,0.6778010180840852,-1.239531352180924,0.9910674532485452,1.5584215251513065
1970-01-01 00:00:00.000000009,0.5758887644061261,-1.1457162666620822,0.7348716079207844,1.5833166610874487
1970-01-01 00:00:00.000000009,0.5948707117828828,-1.0321022991524877,0.26317150915550463,1.6181372859637055
1970-01-01 00:00:00.000000009,0.6670860660044649,-0.9295359990954527,-0.3377310493625239,1.6622032845032904
1970-01-01 00:00:00.000000009,0.7664825843896049,-0.8814853956698345,-0.948025561188756,1.7095390895910647
1970-01-01 00:00:00.000000009,0.8634295494779248,-0.8737103593523912,-1.5120997780961998,1.756514872304202
1970-01-01 00:00:00.000000009,0.9584077044913833,-0.8879515538992652,-2.057925694463171,1.8014086287789126
1970-01-01 00:00:00.000000009,1.0054679148458938,-0.9002204543970492,-2.6011328308786847,1.8465826594682369
1970-01-01 00:00:00.000000009,0.995058339881087,-0.8536892163274634,-3.1083492407677693,1.8849380885681315
1970-01-01 00:00:00.000000009,0.9210100139684192,-0.7952208074030913,-3.4701290908096465,1.915216724123836
1970-01-01 00:00:00.000000009,0.8535862901451173,-0.7705218347035039,-3.738385462240262,1.9369676248389642
1970-01-01 00:00:00.000000009,0.7424763508231516,-0.7066433260233635,-3.914052986109305,1.9494379633074415
1970-01-01 00:00:00.000000009,0.6117214156224616,-0.5740428831770465,-3.9562400779606994,1.9469658824232459
1970-01-01 00:00:00.000000009,0.50128867897167,-0.49004540563483323,-3.851960004707517,1.9354133894533616
1970-01-01 00:00:00.000000009,0.41335047997269003,-0.5510040328777058,-3.6905010130564393,1.9296780821143782
1970-01-01 00:00:00.000000009,0.33475870945997643,-0.6399109945220149,-3.544414860275182,1.9273507283870979
1970-01-01 00:00:00.000000009,0.26297868080128767,-0.6752845033119464,-3.4573918984686807,1.9244033134531424
1970-01-01 00:00:00.000000009,0.17660251957083745,-0.7126327612115468,-3.425028564690149,1.925979981747851
1970-01-01 00:00:00.000000009,0.06071487525695329,-0.7262889953773877,-3.428868294142878,1.9308706609723578
1970-01-01 00:00:00.000000009,-0.06049681013754457,-0.6862208339214241,-3.443466097110894,1.9327805577734911
1970-01-01 00:00:00.000000009,-0.17606547731434274,-0.6419260413002058,-3.3849688486504568,1.9282552913237374
1970-01-01 00:00:00.000000009,-0.2710345740079745,-0.6292743973868329,-3.184184932654187,1.9109236049756768
1970-01-01 00:00:00.000000009,-0.3916049138630485,-0.6400731065334565,-2.8796147514016632,1.88939503784151
1970-01-01 00:00:00.000000009,-0.49740563534743854,-0.6499146334653559,-2.5626285096395325,1.8698306755073353
1970-01-01 00:00:00.000000009,-0.5213008108096999,-0.664745447464475,-2.3184784592990373,1.8532131636342888
1970-01-01 00:00:00.000000009,-0.48210096718699785,-0.6472926140364333,-2.1353700573953533,1.832147989868598
1970-01-01 00:00:00.000000009,-0.4722052980800346,-0.6325771071570007,-1.9069350660132356,1.8086640003911045
1970-01-01 00:00:00.000000009,-0.48260545592889226,-0.6649922007457287,-1.584579646505155,1.78338051235914
1970-01-01 00:00:00.000000009,-0.48246811354175867,-0.6723624556451243,-1.226865532293423,1.7567631038492626
1970-01-01 00:00:00.000000009,-0.382018204043712,-0.6914093519655505,-0.743404975710168,1.7109114544890984
1970-01-01 00:00:00.000000009,-0.2917213193971204,-0.7990875813497946,-0.1484663458061618,1.6487520466424008
1970-01-01 00:00:00.000000009,-0.25266252471844386,-0.9662981556512682,0.40247082777142845,1.2373544068943843
1970-01-01 00:00:00.000000010,-0.2648350642537132,-1.0757617491932998,0.7303795676758417,1.2089669033049426
1970-01-01 00:00:00.000000010,-0.1962150704547507,-1.0296172790332643,0.8674292930108588,1.1883528676315298
1970-01-01 00:00:00.000000010,-0.14621161886735118,-0.927747968317722,0.9863681600044696,1.1566664308913568
1970-01-01 00:00:00.000000010,-0.28537015352208495,-0.9087781065986333,1.1253107860564757,1.1363896171396175
1970-01-01 00:00:00.000000010,-0.6017739655918347,-0.7531043220994205,1.2531796512663458,1.1159589113821666
1970-01-01 00:00:00.000000010,-0.9863700558222537,-0.09478529630120741,1.2907930919193285,1.058703375721229
1970-01-01 00:00:00.000000010,-1.4827657807211039,1.1895817110066156,1.3439142195952578,0.9486617138886684
1970-01-01 00:00:00.000000010,-2.1088892078623425,2.5162891265684153,1.5476884702413891,0.8419096241194066
1970-01-01 00:00:00.000000010,-2.551015757588868,3.2355096642199674,2.178959434801521,0.7521321869722964
1970-01-01 00:00:00.000000010,-2.688152858696757,3.0813205796679664,3.273065041696869,0.6884572881877112
1970-01-01 00:00:00.000000010,-2.540789871615777,2.305932324937886,4.289583029136763,0.6659500239764741
1970-01-01 00:00:00.000000010,-2.3339623506630405,1.3591844186524336,4.726008969993339,0.7064746759325825
1970-01-01 00:00:00.000000010,-2.0831343548516914,0.522228575694043,4.692840757699838,0.7729969149774141
1970-01-01 00:00:00.000000010,-1.886191839379309,-0.3152104426201085,4.674493920195516,0.8421935525087689
1970-01-01 00:00:00.000000010,-1.7118184447356408,-1.0816487261072827,4.719756887908808,0.9014398948468958
1970-01-01 00:00:00.000000010,-1.5530091542568012,-1.6519561275771122,4.49629108804175,0.9679817348148461
1970-01-01 00:00:00.000000010,-1.4049598441564044,-1.9320086160387753,3.769260591654625,1.0571741393479985
1970-01-01 00:00:00.000000010,-1.1957149720712394,-1.91912178791984,2.6168996041830965,1.1528238368889314
1970-01-01 00:00:00.000000010,-0.9879144112370338,-1.6959643049549804,1.3253440741308669,1.2413339012528937
1970-01-01 00:00:00.000000010,-0.799066433604012,-1.4030151079958313,0.13628973521910284,1.3160399265658809
1970-01-01 00:00:00.000000010,-0.6064709341562668,-1.0946078265834194,-0.8046854388660596,1.3665289921328025
1970-01-01 00:00:00.000000010,-0.4251383577320972,-0.8159323439836357,-1.5273327188298482,1.3996558185505186
1970-01-01 00:00:00.000000010,-0.2616627354549162,-0.6791828599758676,-1.9269153685409435,1.4145098014879949
1970-01-01 00:00:00.000000010,-0.16522786887527877,-0.6280585920038856,-2.1054359484147023,1.4200041967441601
1970-01-01 00:00:00.000000010,-0.11626863859283965,-0.5250690168701302,-2.1665251313971665,1.4128827096210883
1970-01-01 00:00:00.000000010,-0.10263036697284515,-0.3585906058060265,-2.200528341625198,1.4019923124667326
1970-01-01 00:00:00.000000010,-0.06521629200296156,-0.18915600532666726,-2.280018757917222,1.3925801533045497
1970-01-01 00:00:00.000000010,-0.03163540125752737,-0.04034330491401604,-2.401699889039821,1.3898991516139687
1970-01-01 00:00:00.000000010,0.02000052733668667,0.12112918639691306,-2.544635832409313,1.3898884457791507
1970-01-01 00:00:00.000000010,0.1313100502409564,0.3310878582979174,-2.7832110653443674,1.391294496848249
1970-01-01 00:00:00.000000010,0.2851299581796801,0.5551364886105452,-3.115169430924914,1.395905561845164
1970-01-01 00:00:00.000000010,0.4387711218352433,0.7778446747467596,-3.456116229068344,1.4023521052890082
1970-01-01 00:00:00.000000010,0.6093633077565327,0.9019472232048996,-3.7446912602674436,1.4068278663688758
1970-01-01 00:00:00.000000010,0.7017502927140391,0.9106305730201791,-3.814647576917945,1.4018495996632296
1970-01-01 00:00:00.000000010,0.6703035085124072,0.8856318673761931,-3.550239697480746,1.3776140353324595
1970-01-01 00:00:00.000000010,0.5742023320422217,0.8108306347975142,-2.9824234664017073,1.3370792347315783
1970-01-01 00:00:00.000000010,0.4781367377447363,0.6046671920515526,-2.377321975470461,1.305346314072902
1970-01-01 00:00:00.000000010,0.3924794253949449,0.4229710890934878,-2.0474823328016565,1.2990078754937262
1970-01-01 00:00:00.000000010,0.3829111942110626,0.37816942297105294,-2.092083800675831,1.3144326255140244
1970-01-01 00:00:00.000000010,0.5126852038405129,0.43757119537668127,-2.288812421194042,1.3245899693945489
1970-01-01 00:00:00.000000010,0.6790216258435786,0.5802964620833883,-2.5618079616792326,1.3274892497807393
1970-01-01 00:00:00.000000010,0.7852688254279876,0.8038386886292207,-2.806597136390832,1.3249742741977035
1970-01-01 00:00:00.000000010,0.8843065342714634,0.9957967470031905,-2.843866104775624,1.3032138614127418
1970-01-01 00:00:00.000000010,0.8983473547269355,1.0102673415469843,-2.5501938314609647,1.27334293679426
1970-01-01 00:00:00.000000010,0.8835141008691029,0.9598954673601443,-2.082893352075667,1.2394685163849057
1970-01-01 00:00:00.000000010,0.9276241840073999,0.9321905135878948,-1.662646438171064,1.2015363337670617
1970-01-01 00:00:00.000000010,0.9645584336487654,0.9185579931204648,-1.0992508849355878,1.1452711806910876
1970-01-01 00:00:00.000000010,0.9020399641483765,0.7468998890843874,-0.1391028666700394,1.0827592250699594
1970-01-01 00:00:00.000000010,0.9425352311645145,0.46303362408592663,0.683768096772335,1.0384715998835015
1970-01-01 00:00:00.000000010,1.0776886038383218,0.33907441659729315,0.9349079348846856,1.023989518904095
1970-01-01 00:00:00.000000010,1.2592894606017229,0.35638528772667466,0.9731558087998341,1.0076041659705957
1970-01-01 00:00:00.000000010,1.341734369824401,0.36711762893487887,0.9240881796227929,0.999061330971784
1970-01-01 00:00:00.000000010,1.2680749417114472,0.344297498497011,1.0157318459974771,0.9895076670073701
1970-01-01 00:00:00.000000010,1.1051239967665463,0.43867559333489614,1.2604324251595476,0.9613555328354417
1970-01-01 00:00:00.000000010,0.8859524596811897,0.7237284293340067,1.4897285410990744,0.9248257190961839
1970-01-01 00:00:00.000000010,0.7032632984283517,1.007677614644899,1.6179238004770187,0.8985735904809186
1970-01-01 00:00:00.000000010,0.6067608931428174,1.5472037213207925,1.2578506270231093,0.8842468708892124
1970-01-01 00:00:00.000000010,0.5060714367446018,2.4100876231270556,0.7373078912573348,0.8533057773961463
1970-01-01 00:00:00.000000010,0.3781601786359845,3.1446110756984114,1.0189114095136922,0.7584071831534521
1970-01-01 00:00:00.000000010,0.10319742509934748,3.0219622627723304,2.5508510076544617,0.6351881015470633
1970-01-01 00:00:00.000000010,-0.29880801561059245,2.1264597606513203,4.532155538653244,0.5537103918716196
1970-01-01 00:00:00.000000010,-0.6463289546062357,1.3677700005807882,5.792667261750655,0.524260296511707
1970-01-01 00:00:00.000000010,-0.9157465884803236,0.7643890482546188,6.330919321839296,0.5463254989269852
1970-01-01 00:00:00.000000010,-1.0612190715031509,0.18361171480926808,6.305031840425892,0.6233546787901201
1970-01-01 00:00:00.000000010,-0.8833938275151836,-0.10466958400178983,5.6071435340623506,0.7204030845666066
1970-01-01 00:00:00.000000010,-0.45978019863165115,-0.24596888771199213,4.351565174402924,0.8251992914116406
1970-01-01 00:00:00.000000010,-0.1588669916922314,-0.4088369395109479,3.2627696195276945,0.9215803200166799
1970-01-01 00:00:00.000000010,0.04241424965650914,-0.6087806601584607,2.677062371769939,0.9752662597217169
1970-01-01 00:00:00.000000010,0.04901862740421015,-0.9255263904894644,2.620628912538699,0.9972722785055861
1970-01-01 00:00:00.000000010,-0.17197348221950387,-1.286618032960045,2.6737321168719124,1.0288482017840057
1970-01-01 00:00:00.000000010,-0.45095362376805453,-1.5171305929844527,2.616168149450196,1.061608167867765
1970-01-01 00:00:00.000000010,-0.798643689714433,-1.6610812555035288,2.227634640399957,1.1333481445201132
1970-01-01 00:00:00.000000010,-0.9311318351944537,-1.8701812915982465,1.491849155361179,1.2346228399457335
1970-01-01 00:00:00.000000010,-0.8351337307760331,-1.952595365037919,0.683510806963073,1.3166358783837522
1970-01-01 00:00:00.000000010,-0.6690507849247302,-2.0044831239821437,-0.191646926914802,1.393905408616866
1970-01-01 00:00:00.000000010,-0.5162572181060383,-2.0155890218460697,-0.9551178730287857,1.4556192066634408
1970-01-01 00:00:00.000000010,-0.4165119430508072,-2.0647616820534433,-1.4948768610540462,1.4934210468622147
1970-01-01 00:00:00.000000010,-0.509338980420008,-2.108239348242254,-1.53182033007569,1.4754351957290401
1970-01-01 00:00:00.000000010,-1.0971701746013849,-2.281547999217906,0.21188067027991822,1.403431050849366
1970-01-01 00:00:00.000000010,-0.9170322499307477,-1.9354764781470777,-0.689321419872339,1.4592324214560197
1970-01-01 00:00:00.000000010,-0.47156456590172463,-1.665362239636377,-2.2626043357162327,1.5407480913378437
1970-01-01 00:00:00.000000010,-0.3739399297360986,-1.5540532777989395,-3.1757449302298473,1.6001658506597556
1970-01-01 00:00:00.000000010,-0.4322373029290566,-1.3315469177027444,-3.5199794372573763,1.610208311465741
1970-01-01 00:00:00.000000010,-0.5409961094615183,-0.936647751173624,-3.4026341267177123,1.570473399674733
1970-01-01 00:00:00.000000010,-0.6388067235263601,-0.6873065388955015,-3.3305061590314597,1.5471583965994822
1970-01-01 00:00:00.000000010,-0.7138083924993845,-0.7330774652817812,-3.3834808334085906,1.5743037339922292
1970-01-01 00:00:00.000000010,-0.4798693793955876,-0.7021358122408399,-3.619827131528782,1.5966407244203735
1970-01-01 00:00:00.000000010,-0.04230080049860613,-0.6346282999420905,-4.011890552589641,1.6089060823945034
1970-01-01 00:00:00.000000010,0.34330050855089667,-0.6393974266925067,-4.40778692888841,1.621203451492145
1970-01-01 00:00:00.000000010,0.5468514435178555,-0.6636714819343368,-4.532925788576274,1.612966938472526
1970-01-01 00:00:00.000000010,0.49038736004506217,-0.610990994962034,-4.312467772098313,1.5815945695965057
1970-01-01 00:00:00.000000010,0.2816369354445717,-0.3738651267011119,-3.944483802738745,1.5332557877305073
1970-01-01 00:00:00.000000010,0.05741982452829669,-0.05431057084895882,-3.5095380467288657,1.479317646004034
1970-01-01 00:00:00.000000010,-0.06503975448833993,0.21520573684003425,-3.2553174358797983,1.4499957691971337
1970-01-01 00:00:00.000000010,0.08726715133841217,0.35800462796597854,-2.890893559589516,1.3976563765126282
1970-01-01 00:00:00.000000010,0.1724067568655966,0.32086180513296103,-2.428866086145523,1.3906180752933244
1970-01-01 00:00:00.000000011,0.17718119072341437,0.4194575484219404,-2.0742973285416313,1.354839117671528
1970-01-01 00:00:00.000000011,0.26039466736070305,0.5380419217378632,-1.793611865000084,1.3152020447827932
1970-01-01 00:00:00.000000011,0.3235804828697049,0.6436575987822755,-1.5672397661787347,1.2832133752122121
1970-01-01 00:00:00.000000011,0.38574798618441675,0.6824829085692137,-1.430092158640101,1.264942772599019
1970-01-01 00:00:00.000000011,0.4431776827618694,0.5817424094187382,-1.2468870402717798,1.2602169852599283
1970-01-01 00:00:00.000000011,0.5906888659796644,0.42660988325962473,-1.083810191175066,1.2545775904083503
1970-01-01 00:00:00.000000011,0.7459295154355587,0.21671820914637874,-0.7359943508997739,1.2349857497871704
1970-01-01 00:00:00.000000011,0.8922023827431473,0.15486292196610943,-0.05795612484533738,1.161732835585168
1970-01-01 00:00:00.000000011,0.7887121051222464,0.3231457485086259,0.5297440446456751,1.0819798990488576
1970-01-01 00:00:00.000000011,0.4067123780305666,0.45664518237837926,0.9976182248900838,1.029911356811935
1970-01-01 00:00:00.000000011,-0.1759284612392048,0.22837275575754273,1.3780466074364406,1.0393393383896454
1970-01-01 00:00:00.000000011,-0.6262955186159085,0.09411425596161438,2.094335208780105,1.0085598360610404
1970-01-01 00:00:00.000000011,-0.9712775623501462,0.2427071167990973,2.598998991219536,0.9633852203179649
1970-01-01 00:00:00.000000011,-1.2716811484959647,0.2676560850600986,3.3873157415933157,0.9031333234362984
1970-01-01 00:00:00.000000011,-1.492995554779571,0.018235265564645275,4.892754117541111,0.7970566216694859
1970-01-01 00:00:00.000000011,-1.7510644179775294,-0.272880347557544,6.219468999274108,0.7114330523634845
1970-01-01 00:00:00.000000011,-2.0380931964048754,-0.4588244119045818,6.960089100573382,0.6804300533246525
1970-01-01 00:00:00.000000011,-2.1745931077029548,-0.6339240443859243,6.684391445687484,0.7332471403487313
1970-01-01 00:00:00.000000011,-2.176165930207456,-0.7533512623937317,5.422253457110243,0.8626302836790998
1970-01-01 00:00:00.000000011,-2.0607610398295315,-0.8550688924447134,4.0679430440893505,1.0008756902535652
1970-01-01 00:00:00.000000011,-1.7526640154430662,-0.9604214814343207,2.7852960854815985,1.125714728813003
1970-01-01 00:00:00.000000011,-1.257926734950498,-1.1105723869845283,1.850789983211181,1.2007747304613285
1970-01-01 00:00:00.000000011,-0.8848774905876137,-1.1791358439917203,1.2819305843764408,1.2327141402654176
1970-01-01 00:00:00.000000011,-0.7688478789950519,-1.1417020081030944,0.8457291876415075,1.258514472860172
1970-01-01 00:00:00.000000011,-0.7726462248388991,-1.19587435522991,0.503701501506208,1.2897346699875838
1970-01-01 00:00:00.000000011,-0.8431355670198056,-1.2525397110211236,0.3985772251094552,1.300301512354368
1970-01-01 00:00:00.000000011,-1.0350316134824171,-1.227379690680466,0.40320172810904625,1.3053383387067379
1970-01-01 00:00:00.000000011,-1.2128025719429727,-1.1018613147403742,0.2727200564458754,1.3202982788050517
1970-01-01 00:00:00.000000011,-1.2392929764506444,-0.8637754102628801,-0.13065980702365218,1.3434296095428506
1970-01-01 00:00:00.000000011,-1.1402816325639606,-0.6368983082969707,-0.7173583920240644,1.3770916563787512
1970-01-01 00:00:00.000000011,-0.9659294730729464,-0.5896580945343173,-1.2451959584050776,1.4224799553708607
1970-01-01 00:00:00.000000011,-0.6538651064114531,-0.6825458756877407,-1.8016081164712363,1.4728055305427188
1970-01-01 00:00:00.000000011,-0.29815322417956486,-0.7629477582395788,-2.3220903955232433,1.511016183544056
1970-01-01 00:00:00.000000011,-0.02173862719616046,-0.7920381862009065,-2.7698271520763313,1.5412508591932128
1970-01-01 00:00:00.000000011,0.19362658806516667,-0.7603522732531263,-3.101511714605907,1.5561020340708804
1970-01-01 00:00:00.000000011,0.3167878232363751,-0.7437040783424164,-3.2272200289920336,1.5588871974781149
1970-01-01 00:00:00.000000011,0.3829043345839985,-0.6381667162449332,-3.3519379424316496,1.5569574470518845
1970-01-01 00:00:00.000000011,0.4173861631566733,-0.49769626950620155,-3.5360034258978743,1.5596788871538467
1970-01-01 00:00:00.000000011,0.45517878502248865,-0.38605900570534446,-3.706581002093762,1.5595600842855335
1970-01-01 00:00:00.000000011,0.4169968350994188,-0.25501491168561563,-3.8708016577812057,1.5609393848744721
1970-01-01 00:00:00.000000011,0.33247468493335347,-0.11928016066144193,-3.9250003088538987,1.5574807799365578
1970-01-01 00:00:00.000000011,0.26704579387123917,0.0016933508104744477,-3.886963904290314,1.5498984738627792
1970-01-01 00:00:00.000000011,0.2816512226066542,0.07322773108620065,-3.864798008442581,1.5396191363668785
1970-01-01 00:00:00.000000011,0.27406441855892044,0.13960969075498436,-3.798428021421225,1.5255865337474925
1970-01-01 00:00:00.000000011,0.22631752887459872,0.21228784433083264,-3.6767046448980945,1.5088852233142704
1970-01-01 00:00:00.000000011,0.1671614744547517,0.2749536865798083,-3.5398058104250487,1.488720099606532
1970-01-01 00:00:00.000000011,0.04430325489383566,0.38732018398560186,-3.2221937459167056,1.4540299801900183
1970-01-01 00:00:00.000000011,-0.08628259606559999,0.49255511010008235,-2.89956150025737,1.4215672180590286
1970-01-01 00:00:00.000000011,-0.19147842493712744,0.5465394362695802,-2.6810951134793037,1.4047705784231699
1970-01-01 00:00:00.000000011,-0.209489398074085,0.5517406851220689,-2.452275547740341,1.3865834387764928
