time,ax,ay,az,speed
1970-01-01 00:00:00.000000000,-0.29256491579069455,0.8118355710076745,-1.867728886367796,-0.9874330793565543
1970-01-01 00:00:00.000000000,-0.3818158186138175,1.0318599109261222,-1.62592741522287,-0.980841257649544
1970-01-01 00:00:00.000000000,-0.38104034187894187,1.0645230785740134,-1.516170270073314,-0.9791398226047527
1970-01-01 00:00:00.000000000,-0.22544933470658515,1.1852897209390176,-1.3356433663898348,-0.9809074423120118
1970-01-01 00:00:00.000000000,-0.02031917979231323,1.2054895366467095,-1.029010472584981,-0.9881709699523212
1970-01-01 00:00:00.000000000,-0.020440359737294606,1.0716619032703762,-0.7389052586564082,-0.9909746116524212
1970-01-01 00:00:00.000000000,-0.043866677659827706,1.008228164928819,-0.6425851978626684,-0.9892972313876709
1970-01-01 00:00:00.000000000,0.04278092930985513,1.1310667923516058,-0.6303268410917733,-0.9894823932708285
1970-01-01 00:00:00.000000000,0.1701813138110252,1.2650335851740782,-0.6417811550056668,-0.9922690303151573
1970-01-01 00:00:00.000000000,0.2012201841213096,1.3307284618370276,-0.6418758895727034,-0.9958929707498921
1970-01-01 00:00:00.000000000,0.10465832388118135,1.312797251336928,-0.5407054965460644,-0.9986788130206684
1970-01-01 00:00:00.000000000,-0.015648749344565633,1.3297568014509717,-0.24221303998008437,-1.0034755036172092
1970-01-01 00:00:00.000000000,-0.09641932201258373,1.42384889962202,0.33416592886650076,-1.0119472728612655
1970-01-01 00:00:00.000000000,-0.10125582746025577,1.4123968640149227,1.0629264950469637,-1.020867487965604
1970-01-01 00:00:00.000000000,-0.05179609855834441,1.235958840104935,1.6399418487255464,-1.0263824908860022
1970-01-01 00:00:00.000000000,-0.013452411029678094,1.1226343640176846,1.8796459657421485,-1.027317220757095
1970-01-01 00:00:00.000000000,0.04974593884469099,1.0109034940112365,1.796233731951143,-1.0254479639168803
1970-01-01 00:00:00.000000000,0.044363886612377154,0.8132791508743963,1.5101839735274036,-1.0182586284099764
1970-01-01 00:00:00.000000000,0.06555700334703488,0.650509829156799,1.4316098028480893,-1.0146587535931406
1970-01-01 00:00:00.000000000,0.087218955339218,0.6112543104388206,1.504048777450648,-1.0167596445251794
1970-01-01 00:00:00.000000000,0.02641980726967244,0.7700995842893833,1.5944502199174386,-1.0211086169886732
1970-01-01 00:00:00.000000000,-0.0488340115247098,0.960817367624388,1.5754900625700492,-1.023790111919136
1970-01-01 00:00:00.000000000,-0.10441051240060341,1.019162206794039,1.540974334698845,-1.0240315396030406
1970-01-01 00:00:00.000000000,-0.12649130587974322,0.9054204872945345,1.629675245778633,-1.0262031858830913
1970-01-01 00:00:00.000000000,-0.2469461401376203,0.5808259788028008,2.363892329968656,-1.0298194505960172
1970-01-01 00:00:00.000000000,-0.24338112036294002,0.2825644887198606,2.451101211713844,-1.0232384318706031
1970-01-01 00:00:00.000000000,-0.08300541846437046,-0.11609520108355967,1.901329968588139,-1.0121286276272605
1970-01-01 00:00:00.000000000,-0.07040266718114829,-0.37277765636768395,2.179165201774184,-1.009877252457155
1970-01-01 00:00:00.000000000,0.029169652033526672,-0.7015546512453944,2.4334773489133377,-1.0072103191174155
1970-01-01 00:00:00.000000000,0.15707357365277907,-1.1389802292842424,2.7049409168596537,-1.0045836657393374
1970-01-01 00:00:00.000000000,0.23288192210843703,-1.4294177815657534,2.4714211641607036,-0.9950548979813048
1970-01-01 00:00:00.000000000,0.3692232597472556,-1.5762266722275644,1.9025037162428717,-0.9828253789923526
1970-01-01 00:00:00.000000000,0.5395208376677971,-1.5594665701520525,1.2154149728232682,-0.9719945363857834
1970-01-01 00:00:00.000000000,0.6915347849661986,-1.4804804485111438,0.46259082335206814,-0.9621368300571003
1970-01-01 00:00:00.000000000,0.7926061676190322,-1.3624950139378476,-0.17445221660643173,-0.9546893494449343
1970-01-01 00:00:00.000000000,0.854375667190342,-1.1930000957030504,-0.5589158396180497,-0.9505907728484516
1970-01-01 00:00:00.000000000,0.936478774520944,-1.0886288500413022,-0.6563967330776985,-0.9513827974600443
1970-01-01 00:00:00.000000000,0.9479604337599093,-1.1648499533030967,-0.6286670513707809,-0.9516158564637216
1970-01-01 00:00:00.000000000,0.9175866762071229,-1.3224332153965326,-0.5277269801875991,-0.9523586533146633
1970-01-01 00:00:00.000000000,0.8360665687962071,-1.483740215610534,-0.31285476690167474,-0.9549611362394634
1970-01-01 00:00:00.000000000,0.7075086383384053,-1.6149372616566589,-0.04573638172641644,-0.9579766807196304
1970-01-01 00:00:00.000000000,0.5875573620632061,-1.6719034787365203,0.27563483067116096,-0.9627468728078281
1970-01-01 00:00:00.000000000,0.47103843517572286,-1.7074346435720968,0.5568988305050597,-0.9671668644344351
1970-01-01 00:00:00.000000000,0.3579193458086172,-1.745937453631012,0.6935280370445248,-0.9678640228428483
1970-01-01 00:00:00.000000000,0.3211568522997683,-1.733500060299987,0.6177347138623654,-0.9657852081572161
1970-01-01 00:00:00.000000000,0.35075047800648584,-1.662840758071726,0.38103265363624517,-0.9626131810050833
1970-01-01 00:00:00.000000000,0.4004513330764019,-1.5961352365513455,-0.01278789459847018,-0.9577055078947635
1970-01-01 00:00:00.000000000,0.43900698021057943,-1.4884780088732297,-0.5319731878535758,-0.9511029122121684
1970-01-01 00:00:00.000000000,0.4942464956846825,-1.3155015182725907,-1.073218692694808,-0.9448036370805121
1970-01-01 00:00:00.000000000,0.5697566538713597,-1.1603383698360057,-1.575206900255543,-0.9388706743109556
1970-01-01 00:00:00.000000000,0.6553616527556859,-1.0424642164127154,-1.9861973633180265,-0.9335343184284645
1970-01-01 00:00:00.000000000,0.7584366076159414,-0.9010676834163568,-2.216994119440234,-0.9314281333666541
1970-01-01 00:00:00.000000000,0.854181539070236,-0.7533145523668525,-2.339595178106202,-0.9319765990091207
1970-01-01 00:00:00.000000000,0.8935011303451565,-0.635211794796636,-2.398862253735211,-0.9287266041876138
1970-01-01 00:00:00.000000000,0.8713407294896016,-0.5437994417013415,-2.326081207303518,-0.790037248615486
1970-01-01 00:00:00.000000000,0.8134220007532119,-0.5563411317953249,-2.1642983441155934,3.0887528909136814
1970-01-01 00:00:00.000000000,0.8519734819289465,-0.5609128088565654,-1.9434757759016876,3.227061571100641
1970-01-01 00:00:00.000000000,0.8478624585306579,-0.5258707911418684,-1.7471136890399026,3.2285414048935923
1970-01-01 00:00:00.000000000,0.8298595206661588,-0.48080666026726243,-1.571801936469063,3.224546212632874
1970-01-01 00:00:00.000000000,0.7737695451287893,-0.44284312708431794,-1.428472686634904,3.221470205083816
1970-01-01 00:00:00.000000000,0.7181315946409501,-0.38471603963775924,-1.4057188713017832,3.2205890159016235
1970-01-01 00:00:00.000000000,0.6991418705826219,-0.33288688002248745,-1.4143337754005567,3.2202342472726126
1970-01-01 00:00:00.000000000,0.6995741107094438,-0.2331773262661704,-1.4112406698100208,3.2199860150620583
1970-01-01 00:00:00.000000000,0.7565205875477865,-0.08966748026818615,-1.315930860574084,3.2168195681987957
1970-01-01 00:00:00.000000000,0.7981872292863003,0.016992816816476512,-1.1640551078989152,3.213177743996663
1970-01-01 00:00:00.000000000,0.8226839293298849,0.09673255187497201,-1.0652980351347108,3.211436497172925
1970-01-01 00:00:00.000000000,0.8743442762676242,0.18527802457368103,-1.0084998999723545,3.2102975803381333
1970-01-01 00:00:00.000000000,0.9456429567340269,0.27466992919501587,-1.045303446538258,3.2096919494371727
1970-01-01 00:00:00.000000000,0.9960241581499104,0.36425876107805844,-1.081244459174308,3.2090317117517344
1970-01-01 00:00:00.000000000,1.0343632879273634,0.45832617743137066,-1.0002873936492485,3.206371785278359
1970-01-01 00:00:00.000000000,1.0530083072213825,0.47418344884598906,-0.71287975007837,3.2008398699409075
1970-01-01 00:00:00.000000000,1.0082119612290832,0.45077419279052006,-0.39131860708655125,3.1966499144062466
1970-01-01 00:00:00.000000000,0.9835481148066052,0.4086903154556667,-0.1407520823008867,3.1948763378852822
1970-01-01 00:00:00.000000000,1.024361418849845,0.3376113713269228,0.09475943177704715,3.192956215210712
1970-01-01 00:00:00.000000000,1.0663628262828857,0.2593881214605929,0.2518281513705246,3.1917108437932264
1970-01-01 00:00:00.000000000,1.0876439540790146,0.24922818158497095,0.2879609287029762,3.1907948005821734
1970-01-01 00:00:00.000000000,1.0842828259549313,0.3220728660418631,0.3754170083180916,3.1862468165336244
1970-01-01 00:00:00.000000000,0.9853373306185508,0.41442052874319946,0.5659796230833603,3.179748532923459
1970-01-01 00:00:00.000000000,0.8199960332652659,0.49960269166976723,0.788354096577866,3.1734828139449114
1970-01-01 00:00:00.000000000,0.6437485022366314,0.6132515019622781,1.0079803401407927,3.1668847591108027
1970-01-01 00:00:00.000000000,0.46220607286388987,0.7611477615632332,1.3800749874750482,3.1595635421981734
1970-01-01 00:00:00.000000000,0.35437051203135894,0.8266728796292908,1.6429791410697874,3.154463659524083
1970-01-01 00:00:00.000000000,0.27140883803708177,0.8267074547784415,1.748049287760009,3.1528406912027753
1970-01-01 00:00:00.000000000,0.22225756266567476,0.7992953631713284,1.8592185922331639,3.151299926633465
1970-01-01 00:00:00.000000000,0.17547089927492351,0.8494632879062712,1.7960486395942383,3.151651224859522
1970-01-01 00:00:00.000000000,0.1620340859380332,0.9678366760459136,1.7157179425591853,3.1491043702214427
1970-01-01 00:00:00.000000000,0.07032072220552554,1.1772023100428972,1.6734111542132741,3.143440075728849
1970-01-01 00:00:00.000000000,-0.13237553926923118,1.3595739588384506,1.509331484925377,3.1409238980835483
1970-01-01 00:00:00.000000000,-0.3482502914762364,1.3864388017135907,1.433683161890194,3.1408473555451457
1970-01-01 00:00:00.000000000,-0.5078875186406999,1.1792461560582825,1.5550863547396812,3.1411251301651064
1970-01-01 00:00:00.000000000,-0.6404935351373285,0.7988262365332999,1.8992672407544784,3.1393479434858813
1970-01-01 00:00:00.000000000,-0.8257812608594057,0.2843474077531134,2.3704143230434727,3.1407524812658605
1970-01-01 00:00:00.000000000,-0.9041236092558204,-0.26175002744607784,2.7116156811724186,3.1448632103454064
1970-01-01 00:00:00.000000000,-0.9066108916600144,-1.0922573753210474,2.8525498420879893,3.154092931436153
1970-01-01 00:00:00.000000000,-0.9400974451084922,-1.823805047326729,2.462624114098726,3.1702379572260795
1970-01-01 00:00:00.000000000,-0.938004096781454,-2.0369203158772384,2.0018598252010444,3.180088460191319
1970-01-01 00:00:00.000000000,-0.9366559448765326,-2.051849713564897,1.4587849341232646,3.1875421956332213
1970-01-01 00:00:00.000000001,-0.9623094663181556,-1.926743672215068,0.821611674287041,3.194027059965494
1970-01-01 00:00:00.000000001,-1.010455664459756,-1.6987229643579531,0.2462367435108256,3.196892855218997
1970-01-01 00:00:00.000000001,-1.1332359903742535,-1.4863788482154159,-0.22082208226049474,3.1986755080816014
1970-01-01 00:00:00.000000001,-1.2858776157670586,-1.2760035127411045,-0.5509305398270198,3.1990462476013093
1970-01-01 00:00:00.000000001,-1.4364854868098516,-1.0664924522609298,-0.7550789495355704,3.1989946805871345
1970-01-01 00:00:00.000000001,-1.5267263505717534,-0.8685772717776269,-0.9354856711069947,3.1987235146775994
1970-01-01 00:00:00.000000001,-1.5848829750677829,-0.7258871960780593,-1.0938274806963493,3.199944865264886
1970-01-01 00:00:00.000000001,-1.575712348875986,-0.6031982492697393,-1.220677534634222,3.2011645804344373
1970-01-01 00:00:00.000000001,-1.5185049986907357,-0.46557155737855227,-1.2695719776013001,3.200590743191162
1970-01-01 00:00:00.000000001,-1.4577941875293565,-0.35596795877549103,-1.1965000194251756,3.2002492868025416
1970-01-01 00:00:00.000000001,-1.3264229471976994,-0.274965717588352,-1.165330934907094,3.2009355723486994
1970-01-01 00:00:00.000000001,-1.1477121746498002,-0.2163419616716569,-1.16567076862801,3.200973580950604
1970-01-01 00:00:00.000000001,-1.006270081188107,-0.21344859123178306,-1.2049611617345812,3.202367729532117
1970-01-01 00:00:00.000000001,-0.8851797622844833,-0.22825855180514684,-1.2997691484243379,3.205664526097805
1970-01-01 00:00:00.000000001,-0.7371208348492182,-0.21507111744717394,-1.4043446556625336,3.209233625068534
1970-01-01 00:00:00.000000001,-0.5507342637036237,-0.18481075174059303,-1.4736856869361088,3.2116921781804773
1970-01-01 00:00:00.000000001,-0.3615012205151914,-0.19062928156778927,-1.5509789936313558,3.2148430436853115
1970-01-01 00:00:00.000000001,-0.16373981833616824,-0.207579040310977,-1.6481463308317514,3.2178687715015877
1970-01-01 00:00:00.000000001,0.014074351810029593,-0.23519114564389443,-1.7701582776412452,3.220625407942152
1970-01-01 00:00:00.000000001,0.1499922016880349,-0.28458083476020374,-1.7881261081679096,3.2212162601503835
1970-01-01 00:00:00.000000001,0.21687720329602855,-0.35566005064265066,-1.66641530065336,3.2192429182570654
1970-01-01 00:00:00.000000001,0.19933081495357005,-0.4226462376577263,-1.5594927145391735,3.2181347876239275
1970-01-01 00:00:00.000000001,0.16914016999024875,-0.38419035936020063,-1.5182899851485647,3.216192314244642
1970-01-01 00:00:00.000000001,0.11870001381514728,-0.23108268550697494,-1.464926104911352,3.2126664364420194
1970-01-01 00:00:00.000000001,0.06158564193995001,-0.04547800974922365,-1.4751507078790402,3.209563569168691
1970-01-01 00:00:00.000000001,0.0035225821413395753,0.1398400920677614,-1.4774793380328994,3.206411560802373
1970-01-01 00:00:00.000000001,-0.05403586640752892,0.2870315315079298,-1.4509203830800979,3.20361756832444
1970-01-01 00:00:00.000000001,-0.10154722617008295,0.39596369951117105,-1.4114185642649129,3.20141318472224
1970-01-01 00:00:00.000000001,-0.13096912126429802,0.4937378287009678,-1.317631378665294,3.1984858524832003
1970-01-01 00:00:00.000000001,-0.1582903792675001,0.5993103493607776,-1.2502759857521923,3.1962554661699034
1970-01-01 00:00:00.000000001,-0.16525913682477358,0.6585241650999749,-1.2189376755839578,3.1954922550640275
1970-01-01 00:00:00.000000001,-0.1446930650881072,0.6695234099193349,-1.1723599534338747,3.1949146820395318
1970-01-01 00:00:00.000000001,-0.12318521652130635,0.6726015172466735,-1.1807874526060722,3.195395734427832
1970-01-01 00:00:00.000000001,-0.09269240924835934,0.732363020284146,-1.2172558023867883,3.1966135719551256
1970-01-01 00:00:00.000000001,-0.005232312477751848,0.8100841361988395,-1.2262351060636276,3.1962527740340443
1970-01-01 00:00:00.000000001,0.07357236690641135,0.8580570590425615,-1.1729436593731142,3.194557688822036
1970-01-01 00:00:00.000000001,0.1064689006725893,0.8708240283210992,-1.1798761266396705,3.1943703544316056
1970-01-01 00:00:00.000000001,0.12570889249559106,0.9200019243831713,-1.1679015411419462,3.1934500594872612
1970-01-01 00:00:00.000000001,0.1355698600115747,1.0080819231277485,-1.0646114910896558,3.1918332047275917
1970-01-01 00:00:00.000000001,0.18725104397257383,1.1286865616380835,-0.9961321567067175,3.190720989629664
1970-01-01 00:00:00.000000001,0.28753615068836735,1.3238043702319693,-0.9736076108602496,3.189180604304725
1970-01-01 00:00:00.000000001,0.4168185292036982,1.5087378518518604,-0.8965669192932282,3.18605970372459
1970-01-01 00:00:00.000000001,0.5192129996858984,1.636605988479064,-0.7592108513460808,3.183117714869945
1970-01-01 00:00:00.000000001,0.6199716401237292,1.7263217792800976,-0.5554281248537154,3.1790144998610836
1970-01-01 00:00:00.000000001,0.6891726513818682,1.6213500171120196,-0.0900805546757612,3.1717397063076906
1970-01-01 00:00:00.000000001,0.6356132236326704,1.3838553850006252,0.4569798508643297,3.165882232602634
1970-01-01 00:00:00.000000001,0.5423029010167971,1.2241223144566395,0.9099134645644675,3.1626554704151237
1970-01-01 00:00:00.000000001,0.5333415991301,1.226002896621212,1.1692394836688726,3.1585692197981814
1970-01-01 00:00:00.000000001,0.5147386412393837,1.2883064180945971,1.3199031182736287,3.153261947814204
1970-01-01 00:00:00.000000001,0.4078068222532442,1.3522062709292089,1.5120805887153816,3.1476372100815104
1970-01-01 00:00:00.000000001,0.2554098453384206,1.409631982817917,1.6946418628655695,3.1455097701103822
1970-01-01 00:00:00.000000001,0.225888796464084,1.445246083034938,1.9806385265353728,3.142713360679083
1970-01-01 00:00:00.000000001,0.28613532512500733,1.4185747596849618,2.3391608541490947,3.138511428684362
1970-01-01 00:00:00.000000001,0.3410977837497752,1.2711821039143445,2.5916142109454667,3.1362028491538965
1970-01-01 00:00:00.000000001,0.3448316657777326,0.8735486032027779,2.8546293985789575,3.133370015571189
1970-01-01 00:00:00.000000001,0.2670490387862601,0.2830283686238403,3.2017777367495333,3.0573837172312537
1970-01-01 00:00:00.000000001,0.12386515633620376,-0.3218123743341516,3.5033397696833286,0.9501585855974889
1970-01-01 00:00:00.000000001,-0.14887063778831747,-0.8291169347107121,3.5312415856355677,0.8798414317531217
1970-01-01 00:00:00.000000001,-0.312126757160091,-1.1230058283975697,3.2815220769344964,0.8869969031112621
1970-01-01 00:00:00.000000001,-0.3173624679447005,-1.3028730913357562,2.759021832283741,0.8983400898558206
1970-01-01 00:00:00.000000001,-0.26359930153680355,-1.4019535594378087,2.114681472956577,0.9108973981428942
1970-01-01 00:00:00.000000001,-0.14547572400530953,-1.4656995140656104,1.671551436963306,0.9201609563387406
1970-01-01 00:00:00.000000001,0.006417498064529407,-1.5679970690464873,1.371143576339871,0.927482471207249
1970-01-01 00:00:00.000000001,0.15476281367823602,-1.6947513135434022,1.0247951608593535,0.9374335998200848
1970-01-01 00:00:00.000000001,0.38517682950500326,-1.768884936979349,0.7197292265086971,0.9447259804980216
1970-01-01 00:00:00.000000001,0.5992209229178413,-1.8246717502860252,0.3983641894884653,0.950735905156451
1970-01-01 00:00:00.000000001,0.7536577480862656,-1.9074020069945499,0.1259542034286451,0.9550915693918954
1970-01-01 00:00:00.000000001,0.8175682001574571,-1.9455895744148746,-0.01800783276311185,0.9564271294936166
1970-01-01 00:00:00.000000001,0.7970776489245937,-1.9242055635919875,-0.16285474941758277,0.9578496624677916
1970-01-01 00:00:00.000000001,0.7736592017541181,-1.846514743976094,-0.21762450291893148,0.9570574526464012
1970-01-01 00:00:00.000000001,0.7351713372522466,-1.7474673848494404,-0.2787816904804462,0.9570244948151183
1970-01-01 00:00:00.000000001,0.7349468772135679,-1.6509740498181853,-0.3753505429125015,0.956832301419366
1970-01-01 00:00:00.000000001,0.7256193431407745,-1.6392463669629147,-0.41609737487844245,0.9571310337033699
1970-01-01 00:00:00.000000001,0.715516658723165,-1.6768736906222657,-0.4274744112472011,0.9576075730468278
1970-01-01 00:00:00.000000001,0.6971733392740538,-1.7148534051499464,-0.45422185410766985,0.9598611101662521
1970-01-01 00:00:00.000000001,0.7451800602324238,-1.7611697092464158,-0.4735171104800073,0.9617387375388177
1970-01-01 00:00:00.000000001,0.8134749373583466,-1.7707250204012581,-0.5147364047504943,0.9631863244008224
1970-01-01 00:00:00.000000001,0.8831492264231687,-1.7675694507759891,-0.6435294269717725,0.9652262090119073
1970-01-01 00:00:00.000000001,0.9334667955189614,-1.7228871307698514,-0.8797951037067657,0.9687821356182252
1970-01-01 00:00:00.000000001,1.0006405407244863,-1.6104509466242052,-1.2210062397250878,0.9719213829829365
1970-01-01 00:00:00.000000001,1.0368612109355972,-1.4490617380450408,-1.527146678831952,0.9734196918766624
1970-01-01 00:00:00.000000001,1.0342187991483571,-1.2414507560501298,-1.739188864195843,0.9732733191456849
1970-01-01 00:00:00.000000001,1.0231588493011716,-1.043297016140914,-1.9041409952882578,0.9718693811413295
1970-01-01 00:00:00.000000001,0.9807313082523526,-0.8675597903177082,-1.8626091191502767,0.967306658023994
1970-01-01 00:00:00.000000001,0.8921572417386542,-0.7051650788030908,-1.710652978135099,0.9611604260575682
1970-01-01 00:00:00.000000001,0.7669398353714485,-0.5904569590804729,-1.4935809122121255,0.9555630207325694
1970-01-01 00:00:00.000000001,0.6593515954985538,-0.5174049767110739,-1.1462638119336912,0.9489067702973633
1970-01-01 00:00:00.000000001,0.5650195525172776,-0.4910157419364691,-0.8170803398154847,0.9434792443952518
1970-01-01 00:00:00.000000001,0.49183843589403936,-0.46400086801887325,-0.63888617552968,0.9411498128461102
1970-01-01 00:00:00.000000001,0.4754296975657226,-0.4537473261194398,-0.5995860310322043,0.9409238678203532
1970-01-01 00:00:00.000000001,0.48707862223577303,-0.4489408303745126,-0.7117005555083522,0.9421285220518691
1970-01-01 00:00:00.000000001,0.4846259618706996,-0.36240524666858687,-0.8110791203694925,0.9418938718208866
1970-01-01 00:00:00.000000001,0.46413510113507833,-0.27404005935956766,-0.8754749241501796,0.9410645843467927
1970-01-01 00:00:00.000000001,0.4270307749832989,-0.2013347785231107,-0.9914022541687255,0.9422892799761095
1970-01-01 00:00:00.000000001,0.4350127295093399,-0.11034454755212972,-1.0907315251931162,0.9424981851374093
1970-01-01 00:00:00.000000001,0.4437212415506372,0.01837167793575558,-1.1620092427252664,0.941599198971042
1970-01-01 00:00:00.000000001,0.44425234124505564,0.17620870895080995,-1.2136891712557978,0.9406068411309662
1970-01-01 00:00:00.000000001,0.46571207820648297,0.3346989009374877,-1.262162943979899,0.9403187456833789
1970-01-01 00:00:00.000000001,0.5352004936743007,0.4619928647524576,-1.2633790678103736,0.9394283376283228
1970-01-01 00:00:00.000000001,0.6154720602817236,0.5129892585367826,-1.225191075742274,0.9382249783562087
1970-01-01 00:00:00.000000002,0.6665552841720959,0.543137398251375,-1.1623596947203174,0.937164157416971
1970-01-01 00:00:00.000000002,0.7140803022002403,0.579615342721128,-0.9806258332355074,0.9331999172897575
1970-01-01 00:00:00.000000002,0.705456250480851,0.6351061435163583,-0.7859085143411095,0.9279606946207134
1970-01-01 00:00:00.000000002,0.629122834965186,0.7292373087363159,-0.5779172774586803,0.9228234109022343
1970-01-01 00:00:00.000000002,0.5514490675136894,0.8427284729962761,-0.2794306964111522,0.9167964772886749
1970-01-01 00:00:00.000000002,0.4967935663209507,0.9656684501270881,-0.025474537678487435,0.9120162607728881
1970-01-01 00:00:00.000000002,0.4909943746604912,1.0409059998946277,0.15220449855151066,0.9083266799557878
1970-01-01 00:00:00.000000002,0.48483522057650746,1.0419310194734208,0.2881334710148262,0.9060393673958971
1970-01-01 00:00:00.000000002,0.4677944129835186,1.0515573998484857,0.33772509280954405,0.9051599106111392
1970-01-01 00:00:00.000000002,0.4584911665183671,1.0811347491877878,0.3114600075949437,0.9043919887739038
1970-01-01 00:00:00.000000002,0.426545078756857,1.1369284350269453,0.31954271905909615,0.9013691900063806
1970-01-01 00:00:00.000000002,0.3173437754312721,1.1902959518220497,0.3905563622829769,0.8970368935976616
1970-01-01 00:00:00.000000002,0.14727094899543583,1.1821216169821465,0.6565384153950179,0.889784086861186
1970-01-01 00:00:00.000000002,-0.0995119883634552,1.086493364307813,1.1954865109944122,0.876736906183225
1970-01-01 00:00:00.000000002,-0.5514637114614455,0.8526790387367801,1.6960772008620721,0.87168999641082
1970-01-01 00:00:00.000000002,-0.851096257864846,0.7469081678262393,2.28466539852251,0.8600582800668586
1970-01-01 00:00:00.000000002,-1.244973161207661,0.6754453095963442,2.601492376270352,0.8515851793360008
1970-01-01 00:00:00.000000002,-1.7030535293536295,0.07115063780637615,3.16166420730832,0.85387480545346
1970-01-01 00:00:00.000000002,-1.9061439310716384,-0.7330854401090197,3.53473386976947,0.8644250135395479
1970-01-01 00:00:00.000000002,-1.8332426211910196,-1.3648032959206875,3.525804501296593,0.8753525818605202
1970-01-01 00:00:00.000000002,-1.7189989131474472,-1.889153407027777,3.139437807960327,0.8876426363332417
1970-01-01 00:00:00.000000002,-1.684996766931189,-2.2215889801747237,2.4097660272868255,0.9018461097085488
1970-01-01 00:00:00.000000002,-1.705228148189004,-2.2807661183699888,1.4872278681037365,0.9152830620343343
1970-01-01 00:00:00.000000002,-1.7453853357256093,-2.1325772965073586,0.4719053308216574,0.9274132814430259
1970-01-01 00:00:00.000000002,-1.784458786307221,-1.8753561662185017,-0.5723192148087936,0.9384380549545239
1970-01-01 00:00:00.000000002,-1.8218445253051518,-1.6034153394812916,-1.5259002787481883,0.9491358511569726
1970-01-01 00:00:00.000000002,-1.802228888252786,-1.2885633488099755,-2.248693660425905,0.9566223741670863
1970-01-01 00:00:00.000000002,-1.721244983570808,-0.9973953959207305,-2.748428870283934,0.9601657307386363
1970-01-01 00:00:00.000000002,-1.654407026564613,-0.7863523591977395,-3.104125855388296,0.9627101345450663
1970-01-01 00:00:00.000000002,-1.5960548969946307,-0.6920755491947457,-3.2709264719765505,0.9651484521186094
1970-01-01 00:00:00.000000002,-1.4994721560768827,-0.6702703066050416,-3.2314717255232224,0.9658130320296919
1970-01-01 00:00:00.000000002,-1.3735275142894485,-0.6940447434672387,-3.0176321314763004,0.9630791952741748
1970-01-01 00:00:00.000000002,-1.3021325506803239,-0.7865690323323742,-2.712227089658857,0.9597917719680212
1970-01-01 00:00:00.000000002,-1.269750285024232,-0.9279750339637654,-2.3471551937697317,0.9567405403224547
1970-01-01 00:00:00.000000002,-1.2457116165469055,-1.0756116857708167,-1.967817943205434,0.9554458125736832
1970-01-01 00:00:00.000000002,-1.1380687345433012,-1.1425697366619887,-1.5629585275906943,0.951364941270241
1970-01-01 00:00:00.000000002,-1.0451902382703804,-1.1978099882450477,-1.1561010858854737,0.9474666144976226
1970-01-01 00:00:00.000000002,-0.9476183250157759,-1.270499491175008,-0.9739703365378024,0.9481319018618216
1970-01-01 00:00:00.000000002,-0.7878755187820881,-1.1985885659845692,-0.9840102931395873,0.9492802401841263
1970-01-01 00:00:00.000000002,-0.607192459466188,-0.962162203584204,-1.215077991406899,0.9517619668507066
1970-01-01 00:00:00.000000002,-0.38869898439111505,-0.7137542714222377,-1.5070588154799762,0.9544273210686127
1970-01-01 00:00:00.000000002,-0.1705986517992296,-0.5601131675920387,-1.7264200693282796,0.9569634561429687
1970-01-01 00:00:00.000000002,0.027823830367784207,-0.47354345005287624,-1.920525252873649,0.9594415952184326
1970-01-01 00:00:00.000000002,0.19249137416259093,-0.355204535469955,-2.0074063098945807,0.9584128600373271
1970-01-01 00:00:00.000000002,0.2688877087413068,-0.22157947484992474,-1.8840455814940542,0.953202955492336
1970-01-01 00:00:00.000000002,0.24936276396367202,-0.100492039483258,-1.5848751444501235,0.9451139811674627
1970-01-01 00:00:00.000000002,0.14571828193247535,-0.008864803524733181,-1.1747425309859716,0.9378131206194232
1970-01-01 00:00:00.000000002,0.0806086504451064,0.025928865670656682,-0.7183866708159234,0.9307245938291179
1970-01-01 00:00:00.000000002,0.037480831663527406,0.052665181588600764,-0.377976576087823,0.9255697146398558
1970-01-01 00:00:00.000000002,0.024161279547187837,0.11415637268674984,-0.26885554809011397,0.9178808338291353
1970-01-01 00:00:00.000000002,0.05009230745257469,0.2866104464192425,-0.3740696568796625,0.7543641611293518
1970-01-01 00:00:00.000000002,0.14637646356279088,0.5475454963539871,-0.6578053719395889,0.7500266461624736
1970-01-01 00:00:00.000000002,0.2641005990271338,0.874455142936934,-1.0093381976907065,0.7505477868338892
1970-01-01 00:00:00.000000002,0.35220418372230144,1.1710228780629257,-1.2360464505897917,0.7498984272501548
1970-01-01 00:00:00.000000002,0.4209761779871891,1.36730431480445,-1.2397742181912783,0.7477068127406041
1970-01-01 00:00:00.000000002,0.48322501678469715,1.4272939223129963,-1.056757139918949,0.746141131179856
1970-01-01 00:00:00.000000002,0.6036599751335457,1.388800331227487,-0.823499816039306,0.7441277864744685
1970-01-01 00:00:00.000000002,0.7065291147891894,1.3416284586107123,-0.6564244553607546,0.7434778551902732
1970-01-01 00:00:00.000000002,0.8165537407678279,1.3710735333248552,-0.6140549966379623,0.7425350995039396
1970-01-01 00:00:00.000000002,0.8868616868148823,1.4868025023173423,-0.6136148927072688,0.7412707063509777
1970-01-01 00:00:00.000000002,0.9469813565970717,1.6133092804581715,-0.6128318552435122,0.739344536965163
1970-01-01 00:00:00.000000002,0.9782907779767441,1.7120355469023103,-0.5433577220185432,0.7373745823353698
1970-01-01 00:00:00.000000002,1.0181580443862321,1.7991401659592345,-0.37033695920211257,0.7341141799227853
1970-01-01 00:00:00.000000002,1.0603720686277345,1.8850199933002605,-0.18546911713525116,0.7308346486610009
1970-01-01 00:00:00.000000002,1.1122221669670356,1.9483567332455143,-0.0353721233519421,0.7272337277998875
1970-01-01 00:00:00.000000002,1.123017344012395,1.9115397920035118,0.17134977430768294,0.7222593033887621
1970-01-01 00:00:00.000000002,1.0182660567501853,1.7315490092133705,0.4801473880234333,0.7189541358386621
1970-01-01 00:00:00.000000002,0.898888081120549,1.488301046897139,0.9406472924646541,0.7143752681726714
1970-01-01 00:00:00.000000002,0.7626193700429508,1.2169591451965047,1.4317093967093593,0.7104133067885147
1970-01-01 00:00:00.000000002,0.6461824724468432,0.9833201528739917,1.8292306981535589,0.7073636083606565
1970-01-01 00:00:00.000000002,0.54822084298844,0.7717868050681735,2.1466212761036245,0.7043612553940158
1970-01-01 00:00:00.000000002,0.428973148626401,0.6178464300737653,2.392466602751395,0.7001684471627848
1970-01-01 00:00:00.000000002,0.23876097091948736,0.5263856300135265,2.566295821274074,0.6933609548691336
1970-01-01 00:00:00.000000002,-0.12262124852427148,0.3873509605590939,2.6903059519162493,0.6902180283493917
1970-01-01 00:00:00.000000002,-0.47883504643457675,0.30155461712544235,2.9414291925080835,0.6888454363857919
1970-01-01 00:00:00.000000002,-0.6484112834800159,0.40636757246851896,3.1300261164426635,0.6872079384855695
1970-01-01 00:00:00.000000002,-0.6455149918098999,0.6149553469158232,3.0138614588351187,0.6872097238937878
1970-01-01 00:00:00.000000002,-0.5854714513506014,0.6405252269988806,2.9373317048457004,0.687408353164787
1970-01-01 00:00:00.000000002,-0.5739871324314298,0.368773993976928,2.9836427839218027,0.6892193372563797
1970-01-01 00:00:00.000000002,-0.6309824698288959,-0.03706420044120086,3.0175866502236253,0.6949322557160378
1970-01-01 00:00:00.000000002,-0.6444731823796648,-0.36921836061887453,2.9914858173865375,0.7010959261250282
1970-01-01 00:00:00.000000002,-0.6089340827888994,-0.5864174810360326,2.847944474445286,0.7069271186700321
1970-01-01 00:00:00.000000002,-0.5620611075381011,-0.76349774083333,2.6035708791568943,0.7133474782644639
1970-01-01 00:00:00.000000002,-0.5169086538780382,-0.9890888090043439,2.487401975250397,0.7192428207079576
1970-01-01 00:00:00.000000002,-0.4502328060778768,-1.2993303811338501,2.4488521737539424,0.7256337157784399
1970-01-01 00:00:00.000000002,-0.3532758621658455,-1.6094478376113917,2.364990360104269,0.7331064630860589
1970-01-01 00:00:00.000000002,-0.2178972292311482,-1.8598184579974681,2.201830325437585,0.7410388776993383
1970-01-01 00:00:00.000000002,-0.0587318975285714,-2.004463938466144,1.685615016564628,0.7529851384281027
1970-01-01 00:00:00.000000002,0.1445790620636486,-1.9610547546663037,0.8594282477294849,0.7660682995594691
1970-01-01 00:00:00.000000002,0.3519212917093481,-1.7262950055519914,-0.013332895896475702,0.7754336954275444
1970-01-01 00:00:00.000000002,0.4832007768600364,-1.4142310711084891,-0.734737112805367,0.782176114891112
1970-01-01 00:00:00.000000002,0.5970171638703942,-1.1410272471041543,-1.2576524825753763,0.7870933876834678
1970-01-01 00:00:00.000000002,0.721716799782304,-0.9497125829107493,-1.5280878989368527,0.7899926841333714
1970-01-01 00:00:00.000000002,0.8690516669583108,-0.8787324094810542,-1.6282407067146338,0.7920444797004996
1970-01-01 00:00:00.000000003,1.0267945752078917,-0.9550041346538557,-1.6133528439344071,0.7931219199818884
1970-01-01 00:00:00.000000003,1.1331584622940725,-1.1140173543098844,-1.3899242076511953,0.7914645454515716
1970-01-01 00:00:00.000000003,1.163479821298268,-1.2877039827078005,-1.0788403136426419,0.7890365699936915
1970-01-01 00:00:00.000000003,1.157700595463233,-1.5044215264435241,-0.8391956083429174,0.7889468105132272
1970-01-01 00:00:00.000000003,1.167824693906883,-1.6819995775879266,-0.6797634579367031,0.7890602813207821
1970-01-01 00:00:00.000000003,1.1678845354638085,-1.7628114346168975,-0.6176621221344737,0.7892917327394106
1970-01-01 00:00:00.000000003,1.1672417508503465,-1.7734866855694114,-0.6066913681951875,0.7890942879201289
1970-01-01 00:00:00.000000003,1.1576661457549504,-1.7253209311883269,-0.6169966745667035,0.7891174994508768
1970-01-01 00:00:00.000000003,1.1770233929982612,-1.6655336389852047,-0.657574027575622,0.7885783285616517
1970-01-01 00:00:00.000000003,1.17713106111599,-1.5856305420061865,-0.7290452905690574,0.7878094648976728
1970-01-01 00:00:00.000000003,1.1484312395596503,-1.4678615416986471,-0.8480193643057383,0.7877619909366288
1970-01-01 00:00:00.000000003,1.1288651254179862,-1.3671121659859746,-0.9879586278145616,0.7881385220405484
1970-01-01 00:00:00.000000003,1.1091180844667328,-1.274022745598384,-1.1567193923631598,0.7889776122603696
1970-01-01 00:00:00.000000003,1.0881432969980496,-1.1332007019799517,-1.3451637028003305,0.7894135859577611
1970-01-01 00:00:00.000000003,1.0664842760192121,-0.9358841336551957,-1.5261885090406482,0.7885565965822167
1970-01-01 00:00:00.000000003,1.0263722199175616,-0.7271991787083839,-1.703454313295219,0.7869415635419573
1970-01-01 00:00:00.000000003,0.9553305152857275,-0.5008684620616639,-1.7694527205207629,0.7833461622380657
1970-01-01 00:00:00.000000003,0.8566916229695244,-0.25776658867111046,-1.7832864324799667,0.7787428389491545
1970-01-01 00:00:00.000000003,0.7401688032704512,-0.05396858135901661,-1.7244201057390507,0.7744266538663199
1970-01-01 00:00:00.000000003,0.650828118797841,0.06119907831984262,-1.515472236132221,0.768216315561586
1970-01-01 00:00:00.000000003,0.5264654386568437,0.1254598275060757,-1.2742141383196148,0.76338531158573
1970-01-01 00:00:00.000000003,0.431846382501716,0.11683381649684829,-1.0976919463447308,0.7606599631836944
1970-01-01 00:00:00.000000003,0.36419842324622537,0.1362811124074515,-1.0062405184894878,0.7585169026505645
1970-01-01 00:00:00.000000003,0.3038338157816011,0.22145012195266264,-0.9121081494231243,0.7548456256077899
1970-01-01 00:00:00.000000003,0.21733880907371592,0.34587830776797057,-0.8676733884813356,0.7521764299912183
1970-01-01 00:00:00.000000003,0.15208822114131512,0.43877031636884684,-0.9435672109866345,0.7522794265193309
1970-01-01 00:00:00.000000003,0.131842090166405,0.5670862373753455,-1.0424753049733457,0.7523894029930924
1970-01-01 00:00:00.000000003,0.14189066591293165,0.6860373053397664,-1.139786810719418,0.752568980646373
1970-01-01 00:00:00.000000003,0.17051447602777395,0.7637381017700398,-1.1739514894792504,0.7516454832085909
1970-01-01 00:00:00.000000003,0.1721096296437225,0.767740192389999,-1.224054655281653,0.7515631297021991
1970-01-01 00:00:00.000000003,0.1425944343616977,0.799654504209804,-1.291116791675506,0.7518217439785787
1970-01-01 00:00:00.000000003,0.11948127737197689,0.8977989292848457,-1.3112312119468703,0.7493467795074875
1970-01-01 00:00:00.000000003,0.04846496176327755,1.077820624862931,-1.2252218925080882,0.7443006548834074
1970-01-01 00:00:00.000000003,-0.04884131436582839,1.218365391511167,-1.0047524362746283,0.7386336656193171
1970-01-01 00:00:00.000000003,-0.13253312162985267,1.2277721986087093,-0.7433666342367364,0.7353908832862115
1970-01-01 00:00:00.000000003,-0.15698729747984003,1.173076147119331,-0.5745545119219121,0.7353676730816657
1970-01-01 00:00:00.000000003,-0.09766324099825782,1.1837498684150602,-0.5311390928530483,0.7348576984985282
1970-01-01 00:00:00.000000003,-0.0488678147307767,1.2883600551876238,-0.5160112400100695,0.7328352552568379
1970-01-01 00:00:00.000000003,-0.030259961992601243,1.4016831142874748,-0.351452894782129,0.728260999850719
1970-01-01 00:00:00.000000003,-0.04724098465663231,1.4735776874597208,-0.05672326222190176,0.7235607113760057
1970-01-01 00:00:00.000000003,-0.03395191677459426,1.4192553331413527,0.35426570080716235,0.7190744070957413
1970-01-01 00:00:00.000000003,-4.109719942843593e-06,1.2435152715248092,0.7690961481832963,0.7155025581549531
1970-01-01 00:00:00.000000003,0.016884050650237577,0.890986500515048,1.3966598026283932,0.711679479352485
1970-01-01 00:00:00.000000003,0.027552185474154903,0.6471373817994547,1.774735662201298,0.7107158375580449
1970-01-01 00:00:00.000000003,0.07863490920607766,0.6874044864120052,1.626884755148413,0.7101851268344163
1970-01-01 00:00:00.000000003,0.02962296530839214,0.7772609008915481,1.515629876372716,0.7056150503159936
1970-01-01 00:00:00.000000003,-0.20580888544691017,1.0279756429697886,1.6494577122249132,0.6976123507853208
1970-01-01 00:00:00.000000003,-0.45319457660265494,1.4083510123294043,1.8249979067366033,0.6870432877022551
1970-01-01 00:00:00.000000003,-0.7156396305718228,1.6950400527874137,2.073024132526677,0.6769500938167867
1970-01-01 00:00:00.000000003,-0.977014380591108,1.8088329834966,2.5977562420495395,0.6685671296947755
1970-01-01 00:00:00.000000003,-1.0921496162379407,1.5486730278849379,3.471616929075043,0.656440247984223
1970-01-01 00:00:00.000000003,-1.1563346321216876,0.37684317920487787,4.757405252784806,0.5536792894653365
1970-01-01 00:00:00.000000003,-1.3334549800093658,-1.1647434860012744,5.5624885994667,0.4660167228762287
1970-01-01 00:00:00.000000003,-1.4385811544454359,-2.1676333549972924,5.087070879058076,0.48710576454561755
1970-01-01 00:00:00.000000003,-1.353402001017176,-2.2006517510406103,2.5741304829863103,0.522593857851243
1970-01-01 00:00:00.000000003,-1.3146379000908117,-1.9977011127021465,0.41671497196934093,0.5512407979457571
1970-01-01 00:00:00.000000003,-1.2578124413685627,-1.8329574204833632,-0.6685053683801243,0.5662781482289625
1970-01-01 00:00:00.000000003,-1.1622536977095963,-1.705225818856085,-1.4294364967401239,0.5762422158395872
1970-01-01 00:00:00.000000003,-1.0718644527459855,-1.6683760690499947,-1.886516424022281,0.5830748891316174
1970-01-01 00:00:00.000000003,-0.9874226003086995,-1.720044876216742,-2.1356237825844397,0.588712550101891
1970-01-01 00:00:00.000000003,-0.8819315391443202,-1.79256410443008,-2.29505422138564,0.5934850381021793
1970-01-01 00:00:00.000000003,-0.7567158577382652,-1.8189601346191828,-2.4706143860515946,0.5966588775439745
1970-01-01 00:00:00.000000003,-0.670187017544783,-1.7882498489504552,-2.630424520670011,0.5984639270333099
1970-01-01 00:00:00.000000003,-0.6216604391240157,-1.7268662648464461,-2.8139281498420603,0.5998362646627864
1970-01-01 00:00:00.000000003,-0.6051685815704232,-1.6365368066948203,-2.895033029856807,0.5987673041814836
1970-01-01 00:00:00.000000003,-0.6359424923276276,-1.4814408115073956,-2.873776951885435,0.5961172427543372
1970-01-01 00:00:00.000000003,-0.6572212833045988,-1.3191676202598066,-2.653747187304889,0.59064532404143
1970-01-01 00:00:00.000000003,-0.6735145098548365,-1.203298572785659,-2.3446107426248544,0.5851424591967666
1970-01-01 00:00:00.000000003,-0.6590618390290359,-1.098700829020328,-2.0795498476335488,0.580443680314681
1970-01-01 00:00:00.000000003,-0.6248756677986916,-1.0226286372893263,-1.8642399700070875,0.5768816728842885
1970-01-01 00:00:00.000000003,-0.579932942593916,-0.9829213215636585,-1.7255782863299909,0.575762133899709
1970-01-01 00:00:00.000000003,-0.4887632990713757,-0.9608886285419367,-1.671015344515139,0.5751039489061507
1970-01-01 00:00:00.000000003,-0.41068066613601467,-0.8919016325500008,-1.5726659990601488,0.5722640931957615
1970-01-01 00:00:00.000000003,-0.3813421702060933,-0.7304874789868216,-1.4009986587876317,0.5670441288114323
1970-01-01 00:00:00.000000003,-0.38695248045351355,-0.5575555090221198,-1.230592997133846,0.5626817658957468
1970-01-01 00:00:00.000000003,-0.3703922672453369,-0.43816025018387095,-1.1896612493996663,0.5617641549110537
1970-01-01 00:00:00.000000003,-0.298548203346584,-0.36660595632136017,-1.2340954470361112,0.562165296434512
1970-01-01 00:00:00.000000003,-0.21924528743097602,-0.3156808438011107,-1.236396093883594,0.56226816562329
1970-01-01 00:00:00.000000003,-0.13884033073131488,-0.264108109032685,-1.2559303705449782,0.5627934827810396
1970-01-01 00:00:00.000000003,-0.048766326779429534,-0.1857574686990637,-1.2942432794485004,0.5636860909578779
1970-01-01 00:00:00.000000003,0.06957385383689173,-0.14554462347700733,-1.3328392521995034,0.5635794855574695
1970-01-01 00:00:00.000000003,0.138178043233802,-0.13585575419994014,-1.3343249189578996,0.562101220184767
1970-01-01 00:00:00.000000003,0.11963446411997314,-0.1257785379458556,-1.2971513576882572,0.5609852515175389
1970-01-01 00:00:00.000000003,0.09054971586113904,-0.08574453118763045,-1.2643414994745155,0.5599704000500882
1970-01-01 00:00:00.000000003,0.07851030967141537,0.007967258959461359,-1.1427780650440307,0.5565562030252535
1970-01-01 00:00:00.000000003,0.05214360709139494,0.08699719446921299,-1.054529585338185,0.5542333431186631
1970-01-01 00:00:00.000000003,0.04275786944974242,0.18333660347794642,-0.9871411273183037,0.5511732630580873
1970-01-01 00:00:00.000000003,0.005439922849166231,0.28321894108191453,-0.9281530106094416,0.5486221912070486
1970-01-01 00:00:00.000000003,-0.024734713800247048,0.4453560435962178,-0.8412089212741466,0.5444567275054756
1970-01-01 00:00:00.000000003,-0.07119346046878605,0.5796026691948056,-0.6962794306136797,0.5409674747304085
1970-01-01 00:00:00.000000003,-0.07781481142398013,0.6297731300328925,-0.532478599925842,0.5385717856956934
1970-01-01 00:00:00.000000003,-0.054369006494902825,0.6607566840097414,-0.44415792506760404,0.5380051714805424
1970-01-01 00:00:00.000000003,0.00798446828672257,0.7113604559382672,-0.4590822591913253,0.5393205520978739
1970-01-01 00:00:00.000000004,0.12643456011309634,0.7613788645332031,-0.48565983488844733,0.5401025634825632
1970-01-01 00:00:00.000000004,0.2452120914797147,0.7915842670746177,-0.4580179021803487,0.5402136326585172
1970-01-01 00:00:00.000000004,0.35533499269026997,0.8050820846023178,-0.43713778586011903,0.540400846529027
1970-01-01 00:00:00.000000004,0.45338669433294393,0.8828853467269764,-0.4074489865038489,0.5389121432750058
1970-01-01 00:00:00.000000004,0.5136493203783212,1.0081348305634252,-0.33867229620641587,0.5365891655442948
1970-01-01 00:00:00.000000004,0.5724301123329061,1.1185053727616894,-0.2049527167931989,0.5317952108079158
1970-01-01 00:00:00.000000004,0.5473761694596295,1.0971679915239183,-0.03939329968822427,0.5285888739019415
1970-01-01 00:00:00.000000004,0.4825683089304876,0.9921536387712099,0.12845686559825736,0.5282772150423959
1970-01-01 00:00:00.000000004,0.47282102636676127,0.9331582956027739,0.24990671114519974,0.5281235626575504
1970-01-01 00:00:00.000000004,0.5011744506792987,0.9473481829329946,0.3632521757514463,0.5263364072515546
1970-01-01 00:00:00.000000004,0.5205035931154842,0.9340281235429008,0.5966875140986742,0.522794503200034
1970-01-01 00:00:00.000000004,0.5131405029164025,0.9007289667452206,0.8766285189326363,0.5194825832800245
1970-01-01 00:00:00.000000004,0.5167212259599809,0.8489166360613483,1.0355451545658028,0.5175474929547069
1970-01-01 00:00:00.000000004,0.500564408514733,0.7827274184597619,1.0957978658926266,0.5180565281564291
1970-01-01 00:00:00.000000004,0.5110802221796162,0.7832020229079548,1.0494755850908521,0.5195067179353898
1970-01-01 00:00:00.000000004,0.5509521173555544,0.8257557220538883,0.9520714535592694,0.521702968208763
1970-01-01 00:00:00.000000004,0.6378147030050274,0.9170944063813959,0.8113455948437736,0.5224149476463474
1970-01-01 00:00:00.000000004,0.6876157759094179,1.0745364059030023,0.5930027628818183,0.5232933640125953
1970-01-01 00:00:00.000000004,0.7174621321368674,1.2123721339655198,0.3167125839311487,0.5245390517703373
1970-01-01 00:00:00.000000004,0.7058769771837728,1.2443149993287637,0.04304079142191755,0.5251144120600209
1970-01-01 00:00:00.000000004,0.5757845269115087,1.2052949519817664,-0.08344911146869893,0.5257617680316751
1970-01-01 00:00:00.000000004,0.43116454612579286,1.099539566561236,0.2547240613055244,0.5223937772882905
1970-01-01 00:00:00.000000004,0.346519271710794,0.8651066324987362,1.093832054045,0.5127530961900821
1970-01-01 00:00:00.000000004,0.2380391259956142,0.39295247712406806,1.9133543641289146,0.507602376174131
1970-01-01 00:00:00.000000004,0.16601840083579633,-0.24197605197521294,2.580149475609363,0.5069743487959028
1970-01-01 00:00:00.000000004,0.11864502254492448,-0.8991568056292604,3.027830552149431,0.5089037062515595
1970-01-01 00:00:00.000000004,0.03570117951062206,-1.5510365703837088,3.1554965620563893,0.5186964397380942
1970-01-01 00:00:00.000000004,0.08450162250989017,-1.9920764816875671,2.907330736416377,0.5337038698310678
1970-01-01 00:00:00.000000004,0.33521546711537314,-2.1279432877383075,2.1995184686281,0.5494427832538267
1970-01-01 00:00:00.000000004,0.6426454526485227,-2.001658781561918,1.1904014222271386,0.563034373817839
1970-01-01 00:00:00.000000004,0.8692013191343559,-1.7979820426385726,0.3101817032995504,0.5723966717335045
1970-01-01 00:00:00.000000004,0.9834933773049331,-1.6548270978596267,-0.4264661613193582,0.5817546249174885
1970-01-01 00:00:00.000000004,1.0932702684200744,-1.4810874231898543,-0.9235058825407336,0.5872899675309415
1970-01-01 00:00:00.000000004,1.1961121734236029,-1.3212940320539754,-1.2449533710679896,0.589363384741171
1970-01-01 00:00:00.000000004,1.2438315285419186,-1.2301433998985782,-1.4765270939260746,0.5902790529603612
1970-01-01 00:00:00.000000004,1.2297328660468259,-1.2038478368328136,-1.432548236561215,0.5879505636741723
1970-01-01 00:00:00.000000004,1.1610865666515486,-1.273900573804106,-1.202427672443438,0.5852833771363516
1970-01-01 00:00:00.000000004,1.103239886752739,-1.3742880773606516,-0.965819340894205,0.5829297876354999
1970-01-01 00:00:00.000000004,1.0537639499139828,-1.457069346379098,-0.7498863631456832,0.5796786476873323
1970-01-01 00:00:00.000000004,0.966112217728318,-1.5094790865426928,-0.5740072757069199,0.5765484783655687
1970-01-01 00:00:00.000000004,0.857517758165241,-1.514232681075126,-0.4636767717426683,0.5728131674922835
1970-01-01 00:00:00.000000004,0.6991517580031575,-1.4969681423486036,-0.31743040120803256,0.5682917941739667
1970-01-01 00:00:00.000000004,0.5117448216900342,-1.4126352807349833,-0.11567217927203276,0.563386746917781
1970-01-01 00:00:00.000000004,0.36485157287110437,-1.2799555449216995,0.0585104534374056,0.5584288552911547
1970-01-01 00:00:00.000000004,0.25011752400281906,-1.1560607905709812,0.18555806366189886,0.5553455776340925
1970-01-01 00:00:00.000000004,0.20352546508893246,-1.1168573734459992,0.26838569248266153,0.5537797579889228
1970-01-01 00:00:00.000000004,0.17893519050823437,-1.140447875348196,0.1694960504927619,0.5563978953003984
1970-01-01 00:00:00.000000004,0.20097616872745333,-1.1326222434465318,-0.1493793116693303,0.5626260227413707
1970-01-01 00:00:00.000000004,0.29555853574329305,-1.0580661575085668,-0.5704509253650848,0.5678408490269873
1970-01-01 00:00:00.000000004,0.36166376570051667,-0.9328417372911488,-1.000473401194337,0.5724487630916856
1970-01-01 00:00:00.000000004,0.41522099925417966,-0.7441125965181007,-1.3077827540476483,0.5738734973936632
1970-01-01 00:00:00.000000004,0.432911671509627,-0.5575448033674563,-1.4590073927620482,0.573838821978118
1970-01-01 00:00:00.000000004,0.46223920636245897,-0.4573195713964828,-1.4831393275209057,0.573101809133043
1970-01-01 00:00:00.000000004,0.49319656218908753,-0.41830616660812636,-1.4639769925729569,0.5727370724542674
1970-01-01 00:00:00.000000004,0.5330033210781131,-0.4568230949019713,-1.4141156398279648,0.5719725693639188
1970-01-01 00:00:00.000000004,0.53257162139434,-0.517145914246216,-1.3183738012832145,0.5703433719811993
1970-01-01 00:00:00.000000004,0.4837554150260221,-0.5656832226694642,-1.2415436277424161,0.5687814313156486
1970-01-01 00:00:00.000000004,0.4052368428801886,-0.5264953192612462,-1.2234983691939536,0.5676106422201609
1970-01-01 00:00:00.000000004,0.34508581703502245,-0.3917430674599797,-1.2849650105701385,0.5657028286636702
1970-01-01 00:00:00.000000004,0.2684994393435815,-0.24225888925408606,-1.412248303295664,0.5657239347138315
1970-01-01 00:00:00.000000004,0.23892381808730498,-0.0929106176165026,-1.53940285362895,0.5662293235043953
1970-01-01 00:00:00.000000004,0.257737581549772,0.026134136143911097,-1.6091668221505915,0.5659793125510093
1970-01-01 00:00:00.000000004,0.28764962798156724,0.09768238841247837,-1.6089512495266363,0.5654118003940185
1970-01-01 00:00:00.000000004,0.3267593988086651,0.1737109124510986,-1.5200963536105023,0.5636094496563597
1970-01-01 00:00:00.000000004,0.3756911634766216,0.19915652203274903,-1.3270060236913594,0.5597372047040323
1970-01-01 00:00:00.000000004,0.36952644645402005,0.16007345134270232,-1.102508017146617,0.5569029363728747
1970-01-01 00:00:00.000000004,0.36101918560037344,0.14890088568681123,-0.9146362178006971,0.5537658889409666
1970-01-01 00:00:00.000000004,0.33200417357435835,0.2140831913547213,-0.7388371343186877,0.5496583842975171
1970-01-01 00:00:00.000000004,0.28524534017098246,0.3392750558222381,-0.5760366338722971,0.545989852134349
1970-01-01 00:00:00.000000004,0.2776264857441973,0.49556659245836654,-0.5149287036206734,0.5423404900533467
1970-01-01 00:00:00.000000004,0.2505133598103036,0.6818452062431561,-0.43621609819639096,0.5390752351062886
1970-01-01 00:00:00.000000004,0.26069793071623243,0.8845377236096033,-0.29262220017912866,0.5340241954299819
1970-01-01 00:00:00.000000004,0.2628696718431461,1.0478836613892664,-0.11737297646694456,0.5278379617871413
1970-01-01 00:00:00.000000004,0.20703676585406755,1.1613527093248748,0.12658341099591908,0.5216819383579046
1970-01-01 00:00:00.000000004,0.13095360135854872,1.2154408291466743,0.4419264121210762,0.5154253027513752
1970-01-01 00:00:00.000000004,0.04509409012875748,1.2189812110266798,0.8688612496644856,0.5092823594313557
1970-01-01 00:00:00.000000004,-0.00830951387781774,1.1662574343603638,1.2365328946067171,0.5054535577926819
1970-01-01 00:00:00.000000004,-0.006513000909439889,1.082134139916559,1.579691527930306,0.5011779142952498
1970-01-01 00:00:00.000000004,-0.031924615437883525,0.972500938451581,1.8362749545763806,0.49853631335468085
1970-01-01 00:00:00.000000004,-0.06883295954861658,0.9122107952996397,1.9865518426554778,0.4971717334154246
1970-01-01 00:00:00.000000004,-0.08964030559456938,0.9254506390009322,2.068884901483744,0.49441018333477404
1970-01-01 00:00:00.000000004,-0.1657144529244976,0.9154469550365697,2.2138309947166457,0.4934433040452945
1970-01-01 00:00:00.000000004,-0.16620291031366125,0.903531809390231,2.4414666182694504,0.4915232784027086
1970-01-01 00:00:00.000000004,-0.11626977819450296,0.8895036443527838,2.6153594444116197,0.4883265487917338
1970-01-01 00:00:00.000000004,-0.12488558675442807,0.8532548659469372,2.6634266586562556,0.4845314068968707
1970-01-01 00:00:00.000000004,-0.28882232049647566,0.7373810499012581,2.6361636529940355,0.484074341221276
1970-01-01 00:00:00.000000004,-0.4944562070685199,0.6570339448678488,2.4889924356635227,0.4875258596691942
1970-01-01 00:00:00.000000004,-0.6062152181545568,0.514243219142631,2.3283398675330558,0.4918812175697169
1970-01-01 00:00:00.000000004,-0.6825029966296101,0.13540050374172208,2.034051519487541,0.5021841365824964
1970-01-01 00:00:00.000000004,-0.690799214958307,-0.3402651503458836,1.8592156264008113,0.5113045280387247
1970-01-01 00:00:00.000000004,-0.7012152120830969,-0.6601801496270345,1.8271498067879333,0.5164671240274111
1970-01-01 00:00:00.000000004,-0.7156464188805992,-0.9438620514580628,1.5145659949993737,0.5250942489381435
1970-01-01 00:00:00.000000004,-0.7224617252342181,-1.1239458381778804,0.7662814597579358,0.5372765889760198
1970-01-01 00:00:00.000000004,-0.7643692469139187,-1.139027825077571,0.18868117273202067,0.5460709977923011
1970-01-01 00:00:00.000000004,-0.7815676336922305,-1.0841307174744448,-0.37621507455128567,0.5533646629689768
1970-01-01 00:00:00.000000005,-0.7962131218537325,-1.0177005875772147,-0.981687226461513,0.5606254516360737
1970-01-01 00:00:00.000000005,-0.8228940782456327,-0.9622661345926443,-1.447821027391855,0.5660911338334987
1970-01-01 00:00:00.000000005,-0.8580390788832895,-0.91834779280534,-1.8143432594997333,0.5700220055980166
1970-01-01 00:00:00.000000005,-0.9109651456304265,-0.8851289116216124,-2.091451619571017,0.5735479669536561
1970-01-01 00:00:00.000000005,-0.9430277154119532,-0.8697948733977983,-2.29451252133731,0.5771606398418762
1970-01-01 00:00:00.000000005,-0.9187628153462492,-0.8325389088996767,-2.343592695317079,0.5776326601070476
1970-01-01 00:00:00.000000005,-0.8919651892452595,-0.8534378281596575,-2.227172413490009,0.575288611892999
1970-01-01 00:00:00.000000005,-0.920572847852815,-0.8939025532573242,-1.9736825707593908,0.572589349268475
1970-01-01 00:00:00.000000005,-0.9205101154389407,-0.8992773686652864,-1.679603255890747,0.5683271495894026
1970-01-01 00:00:00.000000005,-0.9276638674895062,-0.895790984783659,-1.384809922369032,0.5640886956779161
1970-01-01 00:00:00.000000005,-0.9329153702471401,-0.9384218416268677,-1.11160726920649,0.5617746026917415
1970-01-01 00:00:00.000000005,-0.8972651428360786,-1.0330986657772652,-0.9700862728416965,0.5633752404743888
1970-01-01 00:00:00.000000005,-0.7766202764195494,-1.0889339100680377,-0.9644138732280547,0.5667147045187928
1970-01-01 00:00:00.000000005,-0.5897172160687679,-1.0877748981592974,-1.038746296415327,0.5693133795442499
1970-01-01 00:00:00.000000005,-0.41203392120433063,-1.0655316600984892,-1.1162794498512696,0.5712528134212284
1970-01-01 00:00:00.000000005,-0.25499444885242734,-1.0156170474925714,-1.1848359725616027,0.5715250499470408
1970-01-01 00:00:00.000000005,-0.15811727454334365,-0.9480847939613999,-1.2162479810724878,0.5690169534991736
1970-01-01 00:00:00.000000005,-0.18682839499956053,-0.8596671440069936,-1.180854270937336,0.5659875300996579
1970-01-01 00:00:00.000000005,-0.2558874766936606,-0.714607447062663,-1.118496687070809,0.5620165964671457
1970-01-01 00:00:00.000000005,-0.34215802772637555,-0.5352588194669888,-1.1190811727565986,0.5589852718419696
1970-01-01 00:00:00.000000005,-0.41097173243181495,-0.2636902971106853,-1.1230045959219985,0.5553257148121626
1970-01-01 00:00:00.000000005,-0.44735370966580423,-0.017489941202151832,-1.1351536558179993,0.5527478795165615
1970-01-01 00:00:00.000000005,-0.43516890197969266,0.17218237593899297,-1.1454236198775756,0.550637113532186
1970-01-01 00:00:00.000000005,-0.4052118144398822,0.3481808644857363,-1.1095173079457665,0.547270548894015
1970-01-01 00:00:00.000000005,-0.40280229684736557,0.49604276873831965,-1.0442018910956876,0.5440591002794306
1970-01-01 00:00:00.000000005,-0.4092985874456424,0.6437390037220305,-0.9851686393646594,0.5421398610345284
1970-01-01 00:00:00.000000005,-0.36762867840307295,0.7808711804103327,-0.9093905230962875,0.5407275864174433
1970-01-01 00:00:00.000000005,-0.2749185237558933,0.8721240010185782,-0.8860343505734731,0.5408956960088509
1970-01-01 00:00:00.000000005,-0.13711432109751592,0.9412881841157806,-0.838725605362989,0.5393171329568098
1970-01-01 00:00:00.000000005,-0.0547025497166334,1.0098983851548797,-0.7923155791798553,0.5389578989831734
1970-01-01 00:00:00.000000005,0.047883197040303076,1.053154266726452,-0.8266089808326214,0.5407817813601293
1970-01-01 00:00:00.000000005,0.1961287436815747,1.1042715904842086,-0.8471221292760364,0.5422045618759825
1970-01-01 00:00:00.000000005,0.36445407812618,1.1552853043267672,-0.9025818816407741,0.5428976073817637
1970-01-01 00:00:00.000000005,0.49293701962035413,1.2139789584305818,-0.8970413429327909,0.5426277596344915
1970-01-01 00:00:00.000000005,0.5945262053877404,1.2565526392814481,-0.9331283115620723,0.5435075588427933
1970-01-01 00:00:00.000000005,0.7018368671472572,1.3222835075369306,-0.9380818638747476,0.5424671246001203
1970-01-01 00:00:00.000000005,0.7601355749819392,1.3301842549250593,-0.7599998223467315,0.5392365861806127
1970-01-01 00:00:00.000000005,0.7648023789257141,1.312917600534547,-0.611687114392122,0.538196517482081
1970-01-01 00:00:00.000000005,0.8059664420441285,1.3630948616193683,-0.511048364128912,0.537622878058008
1970-01-01 00:00:00.000000005,0.9032368864858168,1.4962353511303255,-0.43102702914657526,0.5342624681368374
1970-01-01 00:00:00.000000005,0.9453860314349578,1.6274449608805515,-0.2844960808474922,0.5306986937285137
1970-01-01 00:00:00.000000005,0.9881174597054121,1.62658279269026,-0.06856295369001816,0.5274560526895136
1970-01-01 00:00:00.000000005,1.009344738267993,1.5521643516965733,0.19517024115710938,0.5235382289392438
1970-01-01 00:00:00.000000005,0.9655337550940041,1.3955943675135105,0.4518991293282725,0.5228653831771548
1970-01-01 00:00:00.000000005,0.9761500692190275,1.2565267929181008,0.633749472456143,0.5225199287046048
1970-01-01 00:00:00.000000005,0.9956042543113841,1.1658804144406536,0.7945880001530373,0.5214736551234077
1970-01-01 00:00:00.000000005,1.0056882720290365,1.1337357071678773,0.9816178418641974,0.5198096599265114
1970-01-01 00:00:00.000000005,1.0359081455134802,1.1478122432046587,1.1619222942929275,0.5172653171158024
1970-01-01 00:00:00.000000005,1.0658689523732026,1.1229564421039233,1.4060456867908633,0.513165075056948
1970-01-01 00:00:00.000000005,1.0398652028787174,1.042932676011376,1.6722322314704783,0.510162281942672
1970-01-01 00:00:00.000000005,1.0120108388575506,0.9813218214508684,1.9393205741597117,0.5073621387536308
1970-01-01 00:00:00.000000005,1.003149177976731,0.9670012548238757,2.203668022503532,0.5039098061779304
1970-01-01 00:00:00.000000005,1.0043649576206957,0.9779674343694323,2.409971409011294,0.4995075937369177
1970-01-01 00:00:00.000000005,0.9483036361634082,0.9003626890152683,2.5778032366658796,0.4960880306941047
1970-01-01 00:00:00.000000005,0.8229922018008226,0.6309865407800823,2.7398773527046836,0.49508019685192045
1970-01-01 00:00:00.000000005,0.6377152561546576,0.21210580627714515,2.724717180590772,0.4979587686487246
1970-01-01 00:00:00.000000005,0.38771247419668065,-0.1522237461351397,2.5793925484082063,0.5027621719364728
1970-01-01 00:00:00.000000005,0.13418745790207864,-0.44254855761894113,2.548480020737782,0.5072678580537984
1970-01-01 00:00:00.000000005,-0.021010329864929435,-0.781332049989563,2.7448232710986167,0.5097748452135757
1970-01-01 00:00:00.000000005,-0.10106306020977396,-1.1975009216151002,3.01766416940905,0.5136184233077075
1970-01-01 00:00:00.000000005,-0.07325233604868862,-1.6921893669483956,3.3411127696154512,0.5179756408750354
1970-01-01 00:00:00.000000005,0.017708520374240224,-2.238305804857267,3.445686791342454,0.5260796515633267
1970-01-01 00:00:00.000000005,0.1402379573033047,-2.687754303538358,2.996743657290247,0.5415376021050122
1970-01-01 00:00:00.000000005,0.3308856014991811,-2.9193972620516613,2.128055084120957,0.5581483240095245
1970-01-01 00:00:00.000000005,0.4803509871101136,-2.8904940185802763,0.9562213672518146,0.5749944895391466
1970-01-01 00:00:00.000000005,0.5949156275035687,-2.554053064218461,-0.2401899929246281,0.5876406590555495
1970-01-01 00:00:00.000000005,0.6797444240155857,-2.067689241901728,-1.1901017028003182,0.5936023684879168
1970-01-01 00:00:00.000000005,0.699892095716886,-1.670502690246911,-1.7895022058026728,0.5937266571102779
1970-01-01 00:00:00.000000005,0.5883545125234536,-1.4318451601365305,-2.0224196192435104,0.5921051982286977
1970-01-01 00:00:00.000000005,0.4571338523653353,-1.345209143677,-1.9217200240097059,0.588270774937737
1970-01-01 00:00:00.000000005,0.32839416193272924,-1.3978469199596493,-1.623066229835709,0.5832101143838099
1970-01-01 00:00:00.000000005,0.18294295265544652,-1.526889211247939,-1.2812996975688498,0.5792203875214892
1970-01-01 00:00:00.000000005,0.05642724527827714,-1.6088743779632952,-1.0027381987518318,0.5760773445785762
1970-01-01 00:00:00.000000005,-0.03166915300062177,-1.61579488176057,-0.7457075567301398,0.5728416182113113
1970-01-01 00:00:00.000000005,-0.06972615478256416,-1.6397332460927672,-0.5035116494825991,0.5695501207169491
1970-01-01 00:00:00.000000005,-0.10422511146930517,-1.6937515701819632,-0.3858557867378465,0.5693124238192769
1970-01-01 00:00:00.000000005,-0.09312412916155334,-1.6244674881509853,-0.4475029317699954,0.5700265731835717
1970-01-01 00:00:00.000000005,-0.046333493244681764,-1.47094598062969,-0.5007987417870707,0.5683792715128967
1970-01-01 00:00:00.000000005,-0.033333173504280576,-1.3499552460899034,-0.5829443537201687,0.5683820905361601
1970-01-01 00:00:00.000000005,-0.0016922820808394322,-1.2369203980171604,-0.747773542876947,0.56991202885474
1970-01-01 00:00:00.000000005,0.055496240213633065,-1.097312802747041,-0.9073586063310048,0.5698749762789912
1970-01-01 00:00:00.000000005,0.07489272456844162,-0.9390942888302003,-1.04947784073745,0.5691929081115329
1970-01-01 00:00:00.000000005,0.06588151743222613,-0.7886544510482459,-1.2089645489600147,0.5689616774633042
1970-01-01 00:00:00.000000005,0.04602368052587296,-0.629675627397183,-1.3676647191076896,0.5687222355837143
1970-01-01 00:00:00.000000005,0.025351602215330872,-0.4824317115474505,-1.4878270898193664,0.5677440505360024
1970-01-01 00:00:00.000000005,-0.013583501602766095,-0.39032284881972096,-1.5480089704509346,0.5670744545633943
1970-01-01 00:00:00.000000005,-0.044035247240629294,-0.2850338314117899,-1.5371637371826397,0.565567187959649
1970-01-01 00:00:00.000000005,-0.054614251284224306,-0.24723180970157477,-1.3970531438833016,0.5626480000549485
1970-01-01 00:00:00.000000005,-0.08094433865085697,-0.2559633773532756,-1.2990094944890525,0.5612400568121948
1970-01-01 00:00:00.000000005,-0.09987020716107642,-0.24561563705357464,-1.2580394655378218,0.5600468657683797
1970-01-01 00:00:00.000000005,-0.1294745941419178,-0.17822671526364448,-1.2206239672025427,0.5585070168744295
1970-01-01 00:00:00.000000005,-0.14881123824574466,-0.08051292231124499,-1.2128148961772465,0.5566849327055741
1970-01-01 00:00:00.000000005,-0.1760654624951821,0.03762011429146363,-1.2421359281516815,0.5562780577182788
1970-01-01 00:00:00.000000005,-0.15497197578143707,0.13907100801247713,-1.2820401640864394,0.5566872156304442
1970-01-01 00:00:00.000000005,-0.08578198100287367,0.2486216173138317,-1.3416239869137672,0.5566508696829063
1970-01-01 00:00:00.000000005,-0.01585750822258164,0.35626591108801314,-1.409254230958232,0.5564891075458411
1970-01-01 00:00:00.000000005,0.043963787971902146,0.4070334692726667,-1.421764761748357,0.5560801113757323
1970-01-01 00:00:00.000000005,0.08482006271904008,0.4310737261189092,-1.4309583694024832,0.5561594565546343
1970-01-01 00:00:00.000000005,0.12391846504215777,0.5261302559997685,-1.419938092056812,0.5554479257720549
1970-01-01 00:00:00.000000005,0.182815066305162,0.5857549182230709,-1.3460583837832154,0.5532958617498567
1970-01-01 00:00:00.000000006,0.20511075792154412,0.6565205642328455,-1.3063702418803056,0.5518579597945519
1970-01-01 00:00:00.000000006,0.22610063408360634,0.7928063301954882,-1.2734321328533016,0.5504246569455504
1970-01-01 00:00:00.000000006,0.28454080352339567,0.9353425641851912,-1.1402051320189772,0.5467495809859461
1970-01-01 00:00:00.000000006,0.3276149628574343,0.9921296083351124,-0.9814197261286465,0.5435503253162123
1970-01-01 00:00:00.000000006,0.34992734731736486,0.962581684693879,-0.7477026496234397,0.5405836164936
1970-01-01 00:00:00.000000006,0.36213558335486695,0.9321898912003388,-0.521937800903505,0.5378709229224856
1970-01-01 00:00:00.000000006,0.3739758488555073,0.9587665702028372,-0.34239678228362597,0.5352020850118581
1970-01-01 00:00:00.000000006,0.3949195623417409,1.0226392553376735,-0.15464356969298299,0.5317667135698694
1970-01-01 00:00:00.000000006,0.4159356098742228,1.0561408405226314,0.07066791718136309,0.527196288093678
1970-01-01 00:00:00.000000006,0.3899195101754507,1.0129729079344458,0.332486802750859,0.5233921242312883
1970-01-01 00:00:00.000000006,0.3505370209410167,0.9066345969417029,0.7689826803261327,0.5179475794961949
1970-01-01 00:00:00.000000006,0.2944312256436362,0.7166821004081163,1.3055664569713235,0.5127630031933528
1970-01-01 00:00:00.000000006,0.2497543339458354,0.5754167624176396,1.6129463062397993,0.5093377451753184
1970-01-01 00:00:00.000000006,0.1820416504497388,0.5351736649378236,1.7095869915729438,0.5060088867206959
1970-01-01 00:00:00.000000006,0.037752112781998116,0.6716943021809186,1.8433245775070133,0.5013738976715775
1970-01-01 00:00:00.000000006,-0.08376333761682761,0.8906764334079424,1.9752805405773888,0.4972398799836433
1970-01-01 00:00:00.000000006,-0.1259529270529976,0.8993705690770448,2.0120511873259868,0.4979536212410698
1970-01-01 00:00:00.000000006,-0.09543810128217167,0.6481522624401155,1.855924847992134,0.5043808144039009
1970-01-01 00:00:00.000000006,-0.04443466668461042,0.315588021477064,1.6877672131326218,0.511225462446027
1970-01-01 00:00:00.000000006,-0.022531159332521318,0.03772890974797275,1.6287944988960144,0.5147608540569693
1970-01-01 00:00:00.000000006,-0.06657927819046539,-0.21892620732905194,1.6176655080125084,0.5163484381556664
1970-01-01 00:00:00.000000006,-0.1830488366848237,-0.41361107312741135,1.8332996519466978,0.5128220007617889
1970-01-01 00:00:00.000000006,-0.39318404744413904,-0.5726520604763554,2.2573458011830208,0.5068158791581089
1970-01-01 00:00:00.000000006,-0.6180739433367196,-0.7683907269046881,2.644640812824401,0.5018601594474638
1970-01-01 00:00:00.000000006,-0.850869101693774,-1.017638673044348,2.8042150379816975,0.5007169089400625
1970-01-01 00:00:00.000000006,-1.0952650850665016,-1.2720502996263565,2.7549683583477775,0.5043491177113457
1970-01-01 00:00:00.000000006,-1.273179913229906,-1.483109012507924,2.424541041767658,0.5123692637364178
1970-01-01 00:00:00.000000006,-1.3667160913674714,-1.6303727589233938,1.849160048543177,0.5221908724469078
1970-01-01 00:00:00.000000006,-1.44362788983533,-1.6432269526532464,1.1465087946685872,0.5315624082113336
1970-01-01 00:00:00.000000006,-1.5236580828665471,-1.5804269364760108,0.5129054337469273,0.5373717656081296
1970-01-01 00:00:00.000000006,-1.677842807201465,-1.5142112181390706,-0.03397296944158097,0.5426139673789168
1970-01-01 00:00:00.000000006,-1.8415751359913939,-1.4200315958789789,-0.5469312512696966,0.547499301133318
1970-01-01 00:00:00.000000006,-1.9864092257992652,-1.316690227788054,-0.9732191720349184,0.5508683961367554
1970-01-01 00:00:00.000000006,-2.1291445174866896,-1.2038999200503802,-1.3032817593250066,0.5537016190179508
1970-01-01 00:00:00.000000006,-2.2299805099850225,-1.0813281183284313,-1.6081088344964785,0.5574044027024718
1970-01-01 00:00:00.000000006,-2.24310169400955,-0.9787066205074886,-1.852404117770136,0.5605194983693395
1970-01-01 00:00:00.000000006,-2.2062316890559273,-0.9081207896071343,-1.9711724995305642,0.5633014891470911
1970-01-01 00:00:00.000000006,-2.1282053758343085,-0.9051720851805926,-1.983870755850546,0.5850529124174526
1970-01-01 00:00:00.000000006,-2.0178065555020717,-0.9299801963521215,-1.991792594517434,0.5883979291532625
1970-01-01 00:00:00.000000006,-1.8596358286348211,-0.9187328123378021,-2.0089688921312994,0.5909770478219157
1970-01-01 00:00:00.000000006,-1.6609933523809828,-0.9037451886928962,-2.028306944952009,0.5937683792265072
1970-01-01 00:00:00.000000006,-1.4241074398673463,-0.8315065565016663,-2.1044378957042253,0.5953753862748936
1970-01-01 00:00:00.000000006,-1.21620771843073,-0.6860302866539997,-2.1806146888639986,0.5959940695061072
1970-01-01 00:00:00.000000006,-1.025745705185161,-0.5940843564365385,-2.1749318769039245,0.5974167862221942
1970-01-01 00:00:00.000000006,-0.7942616236131574,-0.5412080335792225,-2.229506683988651,0.6010239311588521
1970-01-01 00:00:00.000000006,-0.49816816730764424,-0.5491894487552396,-2.3024054893424184,0.6032979256264399
1970-01-01 00:00:00.000000006,-0.2716991657142477,-0.6250054573188515,-2.273539902763254,0.6036471553608179
1970-01-01 00:00:00.000000006,-0.15176449438793696,-0.6708701626014342,-2.178084149013106,0.603988474480351
1970-01-01 00:00:00.000000006,-0.0331819571154107,-0.5930477193716039,-2.1392909070423567,0.6032083382693153
1970-01-01 00:00:00.000000006,0.0761989542597899,-0.4265093710253299,-2.1678614517239816,0.6012710173100916
1970-01-01 00:00:00.000000006,0.14547806305986102,-0.21009232468192604,-2.180355315874768,0.5974475718459319
1970-01-01 00:00:00.000000006,0.14764437908249653,0.06362139036996443,-2.142127291138127,0.5931436773990929
1970-01-01 00:00:00.000000006,0.15865202913328974,0.34387738420745295,-1.9910740253181733,0.5871647065784572
1970-01-01 00:00:00.000000006,0.17235563135821608,0.5380237632494201,-1.7999156124343916,0.5809846493498096
1970-01-01 00:00:00.000000006,0.1492772232071768,0.6570103030262352,-1.6324014309110448,0.5773923744781468
1970-01-01 00:00:00.000000006,0.16165425526881105,0.7628396936047747,-1.4633377470179711,0.5739202058183981
1970-01-01 00:00:00.000000006,0.19212418195772912,0.8364025522641619,-1.230976610612694,0.5689197796924755
1970-01-01 00:00:00.000000006,0.17840313898947915,0.8459895181538593,-0.9970704388985023,0.5665996156170992
1970-01-01 00:00:00.000000006,0.2215506891783231,0.838210748807469,-0.8570289287294408,0.5658916219990259
1970-01-01 00:00:00.000000006,0.3013216040956783,0.884160355367389,-0.7942509810768178,0.5646593031885796
1970-01-01 00:00:00.000000006,0.36231582718644456,0.9140692522304183,-0.707797154226252,0.5635854393234021
1970-01-01 00:00:00.000000006,0.4236552428701396,0.9529341980661399,-0.6590474398197492,0.5630977708679112
1970-01-01 00:00:00.000000006,0.4940314322280956,0.9840434935621466,-0.6675943229001894,0.5626692412293847
1970-01-01 00:00:00.000000006,0.5335183674572241,1.0450345084455397,-0.6872048981516456,0.5614915917715889
1970-01-01 00:00:00.000000006,0.53328102928111,1.189905981496579,-0.6789201801650905,0.5593469527450634
1970-01-01 00:00:00.000000006,0.5344561593710558,1.3447546716913463,-0.6313122865765414,0.5569292811867733
1970-01-01 00:00:00.000000006,0.5558099470021542,1.4413244618092378,-0.5436572497620604,0.554323416049681
1970-01-01 00:00:00.000000006,0.5685839004777116,1.460211436334033,-0.4082278178231365,0.5527340604429651
1970-01-01 00:00:00.000000006,0.6015337486235476,1.414079381527455,-0.29879876914482517,0.5529167473405765
1970-01-01 00:00:00.000000006,0.6709091723595525,1.3929070768499399,-0.23636373714445055,0.5527187988076927
1970-01-01 00:00:00.000000006,0.7301908008287811,1.3718772447326353,-0.15555658244362872,0.5516818408912338
1970-01-01 00:00:00.000000006,0.7594507443793457,1.3506366962921013,-0.010805823472637106,0.5492745397289037
1970-01-01 00:00:00.000000006,0.750069983200606,1.358708166771421,0.1271939602997348,0.5458508125188763
1970-01-01 00:00:00.000000006,0.6903095148361296,1.4326097232656358,0.29316866829485677,0.5405487841225308
1970-01-01 00:00:00.000000006,0.5736299464548885,1.5541565291605466,0.5207622514211989,0.5350939956616502
1970-01-01 00:00:00.000000006,0.4802110393546547,1.6512893852301505,0.6390849412385492,0.5323873890154571
1970-01-01 00:00:00.000000006,0.44300330445726155,1.7183515682829262,0.6722258582490506,0.5307856730975249
1970-01-01 00:00:00.000000006,0.41472441705416374,1.7213839035468408,0.7381941766238008,0.5297321988680836
1970-01-01 00:00:00.000000006,0.401709108362933,1.758532652323409,1.008535735435199,0.525227990294775
1970-01-01 00:00:00.000000006,0.39087254655268866,1.8708774668552326,1.6041504377965947,0.5170287658732505
1970-01-01 00:00:00.000000006,0.46450819789061576,1.823955494019177,2.372322626324177,0.5070706986467042
1970-01-01 00:00:00.000000006,0.5221038818195927,1.4463570019205783,3.2689966032142,0.498041696958188
1970-01-01 00:00:00.000000006,0.48977084492834205,0.774792773587063,4.1876948762098465,0.49088980408736865
1970-01-01 00:00:00.000000006,0.3113395975915308,-0.04628144325490785,4.77943572626666,0.490379154328176
1970-01-01 00:00:00.000000006,0.040456872169834054,-0.7790715165129003,4.852389957946648,0.4983930568424427
1970-01-01 00:00:00.000000006,-0.1797583026128743,-1.1970102131370135,4.526732427749199,0.5115981389865569
1970-01-01 00:00:00.000000006,-0.2047480534835821,-1.3303598157411431,3.829230013727043,0.5283265873523026
1970-01-01 00:00:00.000000006,-0.00890457953377561,-1.4373711696905571,3.147811585064256,0.5422788308213149
1970-01-01 00:00:00.000000006,0.21899705626288432,-1.7921518187136223,2.84819273019813,0.5534372611258623
1970-01-01 00:00:00.000000006,0.4233092503407337,-2.2892030253924296,2.664917040470066,0.5657775988741758
1970-01-01 00:00:00.000000006,0.6613800910073078,-2.6678211405000174,2.453076088875607,0.5747921039712357
1970-01-01 00:00:00.000000006,0.8180424919187442,-2.863398303009314,1.946706824270049,0.5859041425603042
1970-01-01 00:00:00.000000006,0.9599451472043329,-2.796011932649767,1.205929274517409,0.5962663223710726
1970-01-01 00:00:00.000000006,1.079110817887434,-2.5431555670304844,0.4491518992038919,0.6027803420749493
1970-01-01 00:00:00.000000006,1.1206358601141626,-2.196530622426425,-0.1561702412654468,0.6051861375118439
1970-01-01 00:00:00.000000006,1.0871444024815744,-1.8986534084853168,-0.5512305833732887,0.6054886698549063
1970-01-01 00:00:00.000000007,1.0232191142747842,-1.711552200204845,-0.6214963033410446,0.6022926241553387
1970-01-01 00:00:00.000000007,0.9153519769350953,-1.6243947266757868,-0.5403083364652138,0.5989989218213434
1970-01-01 00:00:00.000000007,0.8098870622363794,-1.6236671458933198,-0.4433905070716537,0.5978420082813961
1970-01-01 00:00:00.000000007,0.7603778847406155,-1.6645479599553201,-0.3811651019808976,0.5965310233772809
1970-01-01 00:00:00.000000007,0.6899036842066031,-1.7372413993844393,-0.26618087289669956,0.594107465533464
1970-01-01 00:00:00.000000007,0.5646020218342958,-1.8445599023533796,-0.15930854515883075,0.5945059362098083
1970-01-01 00:00:00.000000007,0.5065039757323934,-1.9301119446718145,-0.1493858269067401,0.597042300728748
1970-01-01 00:00:00.000000007,0.5351400130795183,-1.9478706998865711,-0.3035168774241108,0.5999535564778222
1970-01-01 00:00:00.000000007,0.5725090928488027,-1.9155921632670043,-0.5487650745456526,0.6022339822834508
1970-01-01 00:00:00.000000007,0.5611320219331044,-1.8326873991554928,-0.8227098261414573,0.6045197434548071
1970-01-01 00:00:00.000000007,0.5377325673560659,-1.685433071622699,-1.032865688965107,0.6050591024173283
1970-01-01 00:00:00.000000007,0.506634475799697,-1.554980916318427,-1.1956391575774703,0.6048261092644137
1970-01-01 00:00:00.000000007,0.45702029530691096,-1.4232837399810894,-1.3736236366328383,0.604739245827981
1970-01-01 00:00:00.000000007,0.3965235129517339,-1.2463947183857593,-1.5149136867239332,0.6041443419887018
1970-01-01 00:00:00.000000007,0.35640616248553325,-1.0871568165897374,-1.6368290650686614,0.6031002968240582
1970-01-01 00:00:00.000000007,0.30831289957221314,-0.9369710713000025,-1.7596028118927818,0.6031573996104123
1970-01-01 00:00:00.000000007,0.2989898091751194,-0.793088008660981,-1.9544727561870996,0.6038490616188124
1970-01-01 00:00:00.000000007,0.2961801048420969,-0.5784894001529755,-2.113245842765399,0.6024084956034248
1970-01-01 00:00:00.000000007,0.2660230123782629,-0.3911720769289614,-2.1682112799382667,0.5998595073264541
1970-01-01 00:00:00.000000007,0.21821855341687885,-0.23296286581208095,-2.17826490445089,0.5977174824401295
1970-01-01 00:00:00.000000007,0.1896261062893663,-0.09552130424095168,-2.091637144479488,0.5955419834257133
1970-01-01 00:00:00.000000007,0.2191065777672215,0.009921637663388869,-1.9399040101382723,0.59167552552353
1970-01-01 00:00:00.000000007,0.22393499659565883,0.06971715824136136,-1.8294594921649627,0.5897343119108925
1970-01-01 00:00:00.000000007,0.2535455639098326,0.12404282596801784,-1.7039010872010685,0.586477556297608
1970-01-01 00:00:00.000000007,0.23790368442475238,0.11574866032084673,-1.5895603448381561,0.5851946946626518
1970-01-01 00:00:00.000000007,0.23997033351277278,0.11875400996687922,-1.596645216157102,0.585087675978429
1970-01-01 00:00:00.000000007,0.23851752811908222,0.20829664923049196,-1.6521734509579957,0.5835850663129283
1970-01-01 00:00:00.000000007,0.19687012368995863,0.40943491147653677,-1.6078585674886468,0.5796139758031669
1970-01-01 00:00:00.000000007,0.14940640101382383,0.6022200489011662,-1.5042337829702936,0.5754918377501381
1970-01-01 00:00:00.000000007,0.12385804826745497,0.7110538308476485,-1.395906150716581,0.5729385345556551
1970-01-01 00:00:00.000000007,0.13518063297935748,0.7689318210147356,-1.2625338493480058,0.570272501394337
1970-01-01 00:00:00.000000007,0.1403597818037843,0.7926241950524937,-1.1999889231772944,0.5706633307061252
1970-01-01 00:00:00.000000007,0.2188252526972179,0.860542588703002,-1.1585459331385368,0.5699840400838465
1970-01-01 00:00:00.000000007,0.30645588999683043,0.9360037374733126,-1.0867732340184526,0.5666092582148778
1970-01-01 00:00:00.000000007,0.30615491755972335,0.9901922923831051,-0.8556974160530093,0.5608253701369242
1970-01-01 00:00:00.000000007,0.23035856700218185,1.025486205677589,-0.5407589506057362,0.5556992534015373
1970-01-01 00:00:00.000000007,0.16235923398308227,1.0635857824088113,-0.12914372880485736,0.5624304623139847
1970-01-01 00:00:00.000000007,0.09793445726725622,0.9876484078756746,0.3501967613899382,0.5566305139209096
1970-01-01 00:00:00.000000007,0.0348370396256414,0.8089376130085137,0.7904726691073043,0.5529985926541879
1970-01-01 00:00:00.000000007,0.0005678052547879696,0.6514835010789178,1.0403816622319846,0.5525366417963781
1970-01-01 00:00:00.000000007,0.021040766933293972,0.5876301794047961,1.1063454744388062,0.5523927954600585
1970-01-01 00:00:00.000000007,0.030337025389016732,0.5236174564709386,1.1400322612361424,0.5515437455750571
1970-01-01 00:00:00.000000007,-0.019054479928079168,0.3809799042939601,1.2554643379204578,0.5506158903794016
1970-01-01 00:00:00.000000007,-0.10058740382846061,0.3647413080531441,1.3594062112033618,0.5473754395854434
1970-01-01 00:00:00.000000007,-0.21970280412171356,0.6419614140443546,1.6234293654737326,0.5338357756604848
1970-01-01 00:00:00.000000007,-0.5502377381488782,0.9919131813623244,2.1218829668053094,0.5202756097950352
1970-01-01 00:00:00.000000007,-0.8096372568519598,1.2541199108582566,2.5318361663895024,0.5084199132548443
1970-01-01 00:00:00.000000007,-1.0624771691168031,1.5327821542529299,2.9011512681535674,0.5009085868575964
1970-01-01 00:00:00.000000007,-1.1445296286257225,1.4854730940954344,3.0287229138813645,0.5009755683543186
1970-01-01 00:00:00.000000007,-1.1331912139282496,1.1719881828943721,3.2213642032139007,0.5028173516091206
1970-01-01 00:00:00.000000007,-1.122345789951097,0.7093650899298966,3.499267818771234,0.5066389672987179
1970-01-01 00:00:00.000000007,-1.0644664928365208,0.18500791580909043,3.713005574205729,0.5109622323820614
1970-01-01 00:00:00.000000007,-1.0364301231906932,-0.3676000585319378,3.8484339893359674,0.5162814078989346
1970-01-01 00:00:00.000000007,-1.0547280200012443,-0.8926679895114817,3.6622536445253355,0.5265660838786158
1970-01-01 00:00:00.000000007,-1.0652457331499663,-1.2730100676024818,2.9938400035236636,0.5428172438287664
1970-01-01 00:00:00.000000007,-1.014892041281126,-1.4282107296900188,1.9718195566791015,0.5602814018930903
1970-01-01 00:00:00.000000007,-0.9578981923319765,-1.4275536463147518,0.8564140145253567,0.5762953913274436
1970-01-01 00:00:00.000000007,-0.9217048580161507,-1.4066225042604437,-0.1395259479466262,0.5891981768252219
1970-01-01 00:00:00.000000007,-0.9507672177859077,-1.4124623511187306,-0.984822991485763,0.601235796881542
1970-01-01 00:00:00.000000007,-0.9724520688964379,-1.3947753330289372,-1.6156091792526344,0.6096427782222567
1970-01-01 00:00:00.000000007,-1.002149546146606,-1.3720208071264735,-2.0121740147992746,0.6139588449849764
1970-01-01 00:00:00.000000007,-1.0674094866033295,-1.381584401852588,-2.1948871627945246,0.6158368902348605
1970-01-01 00:00:00.000000007,-1.148371313879717,-1.4569421233727486,-2.2759634611322315,0.6178419072064175
1970-01-01 00:00:00.000000007,-1.208737924520602,-1.5314683184594513,-2.331741677023549,0.6206680114200871
1970-01-01 00:00:00.000000007,-1.2019242018479124,-1.5409813848166956,-2.32934072828784,0.6223042876811699
1970-01-01 00:00:00.000000007,-1.1338560367224344,-1.5139385311809204,-2.249367446337727,0.6230270927113938
1970-01-01 00:00:00.000000007,-0.9962608513147364,-1.5432325197096006,-2.111453885472248,0.6219424492144983
1970-01-01 00:00:00.000000007,-0.8957371038648327,-1.5824859509749511,-1.9390339114096369,0.6206613824128915
1970-01-01 00:00:00.000000007,-0.8123902013917063,-1.5785733155045185,-1.887146881478399,0.6216185133726225
1970-01-01 00:00:00.000000007,-0.6836805918710711,-1.4603039290155335,-1.9352422498756425,0.6221169136089163
1970-01-01 00:00:00.000000007,-0.5436777039932192,-1.282758834142736,-2.0475199313917987,0.6228008841697725
1970-01-01 00:00:00.000000007,-0.3867655773499646,-1.1269426211706433,-2.050553926035232,0.621137726972123
1970-01-01 00:00:00.000000007,-0.2746826941112953,-1.0527519605922249,-1.9754960946870568,0.6202465172794417
1970-01-01 00:00:00.000000007,-0.15364384316866112,-0.9334991620364723,-1.923979477732341,0.6197681886852617
1970-01-01 00:00:00.000000007,0.005264353668016204,-0.7775471327562148,-1.8477715224498255,0.6180616551884396
1970-01-01 00:00:00.000000007,0.16701371697072812,-0.6417210452273876,-1.797299251259018,0.6168376748860476
1970-01-01 00:00:00.000000007,0.32732021778244813,-0.6006457383133585,-1.731032911473762,0.6152197131342422
1970-01-01 00:00:00.000000007,0.4192571512855664,-0.5858975310202742,-1.7007730003195338,0.6142997342810141
1970-01-01 00:00:00.000000007,0.4677502382611795,-0.45842742730438196,-1.6796779252239853,0.611422080712297
1970-01-01 00:00:00.000000007,0.4669381095928957,-0.21013277793431023,-1.5690207524643451,0.6059954695442242
1970-01-01 00:00:00.000000007,0.45087074477559297,0.004769037134580895,-1.4639557772567702,0.6007710073678222
1970-01-01 00:00:00.000000007,0.4147363952613541,0.1896425545985449,-1.3570394594379043,0.5959562997470196
1970-01-01 00:00:00.000000007,0.36775325243059476,0.33624301039879034,-1.2054465541939852,0.59110095550386
1970-01-01 00:00:00.000000007,0.3128079077963696,0.4826719480334353,-1.0962642819350537,0.5879115170513437
1970-01-01 00:00:00.000000007,0.30397569190393553,0.6170503491404664,-0.9725382954159594,0.5840495638484225
1970-01-01 00:00:00.000000007,0.28845517257211223,0.6977678377569795,-0.8921893352980277,0.5818958621833838
1970-01-01 00:00:00.000000007,0.28935666450468084,0.7945430627226486,-0.7947119652061232,0.5793893038571045
1970-01-01 00:00:00.000000007,0.30114003605608325,0.8899385421976628,-0.6799900388241685,0.5770478247310683
1970-01-01 00:00:00.000000007,0.3344356096129478,0.9288485347389234,-0.6199681249217484,0.5763417183359139
1970-01-01 00:00:00.000000007,0.38583129214268086,0.9009697928887862,-0.5971514369275195,0.5765652638036224
1970-01-01 00:00:00.000000007,0.4252753561028715,0.8524957378789461,-0.5479608075006328,0.5764690653120323
1970-01-01 00:00:00.000000007,0.4452087874866777,0.8241536890401684,-0.49005180639215434,0.5762268551481585
1970-01-01 00:00:00.000000007,0.465143263936582,0.8633254221405577,-0.46976640915257817,0.5757163759527019
1970-01-01 00:00:00.000000007,0.49382368456093767,0.9607638600093267,-0.46851008947301814,0.573635243158727
1970-01-01 00:00:00.000000007,0.4834972110207577,1.1043896937561388,-0.40291511097403787,0.5699148813072996
1970-01-01 00:00:00.000000007,0.44549865407436173,1.2290249745719168,-0.2889308036605039,0.5657224516333601
1970-01-01 00:00:00.000000007,0.38891064565345035,1.3064153177131828,-0.17108588983200293,0.5621108071504863
1970-01-01 00:00:00.000000008,0.3215842386521678,1.3612665312615655,-0.013310294226019176,0.5587360653368213
1970-01-01 00:00:00.000000008,0.2714779018269909,1.3469181330868667,0.21084505246727936,0.5532888600109798
1970-01-01 00:00:00.000000008,0.13538697895099694,1.2931596833642955,0.49376333212301515,0.5480885725695948
1970-01-01 00:00:00.000000008,-0.029294473988854958,1.237575662136314,0.7899472592413326,0.5446737400847844
1970-01-01 00:00:00.000000008,-0.1258706853309235,1.125363179206412,1.08879265228319,0.54247119093932
1970-01-01 00:00:00.000000008,-0.16348199343245914,0.9559897986692566,1.4162139746372484,0.5411968338388085
1970-01-01 00:00:00.000000008,-0.14275799625417337,0.7760861407393773,1.7387094187983974,0.5399568749138844
1970-01-01 00:00:00.000000008,-0.09974387775411031,0.6212206339931754,1.9018249656187325,0.5409122178648208
1970-01-01 00:00:00.000000008,-0.03432949376308206,0.5992956402068599,1.7129893160378837,0.5474864668962778
1970-01-01 00:00:00.000000008,0.16198336830547538,0.7429571993595214,1.282082115171604,0.5548067324316602
1970-01-01 00:00:00.000000008,0.42263107766042896,0.9557801830452098,0.8984592341404077,0.5579155456330391
1970-01-01 00:00:00.000000008,0.6068288064065596,1.2309899134466882,0.6441993772049504,0.5571839665754368
1970-01-01 00:00:00.000000008,0.702150331713866,1.465842140593432,0.6798186109713076,0.5513350088113192
1970-01-01 00:00:00.000000008,0.6793465598844352,1.4267669545575137,1.2909221910018873,0.5392691396412144
1970-01-01 00:00:00.000000008,0.4901067090337161,0.9472185321864987,2.3154334458066996,0.5296734575580228
1970-01-01 00:00:00.000000008,0.29407871995846546,0.03321044712896168,3.360857878430032,0.527380043405918
1970-01-01 00:00:00.000000008,0.16126282405514805,-1.1096423901581223,4.118623341350564,0.5308705802776958
1970-01-01 00:00:00.000000008,-0.005128765426967323,-2.1398637677877,4.445663551645763,0.5402056340319555
1970-01-01 00:00:00.000000008,-0.1364811405785562,-2.7975543464995813,4.2834175466952455,0.5541953285247986
1970-01-01 00:00:00.000000008,-0.11585861514431409,-2.879471075568619,3.721242721258275,0.5680895445995007
1970-01-01 00:00:00.000000008,0.09925827678947767,-2.5359235915219727,2.8523770296093494,0.5768522743223854
1970-01-01 00:00:00.000000008,0.2669058695109329,-2.139497243013146,1.7439057307056556,0.5882793109459141
1970-01-01 00:00:00.000000008,0.42655648737209295,-1.8204643951526642,0.8931152741236486,0.5971154922270968
1970-01-01 00:00:00.000000008,0.5760574552290569,-1.5758777696773272,0.30737032706431316,0.6013914319466522
1970-01-01 00:00:00.000000008,0.6391155029892779,-1.3975423032361567,-0.013423360488174595,0.6015350495610234
1970-01-01 00:00:00.000000008,0.595712603126126,-1.329774342755121,-0.09181098530123093,0.5984337774742687
1970-01-01 00:00:00.000000008,0.4277829834617177,-1.3477769498269179,-0.056885241319872624,0.5951537398989172
1970-01-01 00:00:00.000000008,0.19939662027450955,-1.319952679426942,0.04616009280938771,0.5913566192707099
1970-01-01 00:00:00.000000008,-0.018809944179240794,-1.205851060572796,0.1383020813010611,0.5869581108674716
1970-01-01 00:00:00.000000008,-0.21437824528969,-1.0407628514592244,0.1352592068985855,0.5841642750598443
1970-01-01 00:00:00.000000008,-0.36029335822228753,-0.8725906645288943,0.03585176925811972,0.5880213763751917
1970-01-01 00:00:00.000000008,-0.44074670911188374,-0.7251752219912554,-0.12325156809968163,0.716811552229499
1970-01-01 00:00:00.000000008,-0.49725925384324565,-0.6156184882725011,-0.2721222669870262,0.7219004996311943
1970-01-01 00:00:00.000000008,-0.5379435325956344,-0.5635369931167417,-0.391062672300493,0.7219770309096926
1970-01-01 00:00:00.000000008,-0.6077925217011565,-0.5139150513002603,-0.4506046105470249,0.721932734357177
1970-01-01 00:00:00.000000008,-0.6579183379681532,-0.4750490895435541,-0.43814151002244844,0.7218152240282278
1970-01-01 00:00:00.000000008,-0.6656345782042603,-0.47023261949517803,-0.5370384131785579,0.7237441861329104
1970-01-01 00:00:00.000000008,-0.6453084833915607,-0.42777577026708313,-0.7684397792394441,0.7272217929669385
1970-01-01 00:00:00.000000008,-0.59805602447537,-0.3750640773395733,-1.0061865259099367,0.7303814491983337
1970-01-01 00:00:00.000000008,-0.5497238757113397,-0.32262776693088024,-1.2722698693583274,0.7338920112059996
1970-01-01 00:00:00.000000008,-0.5018589966610554,-0.29751825997341946,-1.5567325769441263,0.7375583480318425
1970-01-01 00:00:00.000000008,-0.47472270617838114,-0.26422783963000795,-1.813372295411647,0.740808923222588
1970-01-01 00:00:00.000000008,-0.45705926240194616,-0.2215810998402643,-2.039267088973805,0.7438230140219728
1970-01-01 00:00:00.000000008,-0.4297612553582416,-0.17922424382040758,-2.2076014946443725,0.7461381924548144
1970-01-01 00:00:00.000000008,-0.39203574669641933,-0.1361900018850941,-2.3346897849986052,0.7476797885310688
1970-01-01 00:00:00.000000008,-0.35440546910730913,-0.05569754250757957,-2.3868144357484233,0.7479124873010032
1970-01-01 00:00:00.000000008,-0.3053875779138546,0.06912240850223808,-2.422533925887017,0.7472115477652315
1970-01-01 00:00:00.000000008,-0.24810721568153307,0.12431228990766245,-2.319291845361378,0.7435971450473043
1970-01-01 00:00:00.000000008,-0.27513040151566087,0.08334112389207265,-2.1523141939827677,0.7404311982468235
1970-01-01 00:00:00.000000008,-0.35088530885976643,0.0026571587307183103,-1.9164322886209257,0.7392924360167582
1970-01-01 00:00:00.000000008,-0.349121842338675,-0.10732959186135918,-1.6870893524809127,0.7392209453543791
1970-01-01 00:00:00.000000008,-0.2784025920478394,-0.24483581060445106,-1.4792598999807576,0.739881541781849
1970-01-01 00:00:00.000000008,-0.1670152773333502,-0.3630944408517185,-1.3627850933924408,0.7422116612100551
1970-01-01 00:00:00.000000008,0.0007039029191155954,-0.4790411207948361,-1.236264650018036,0.7439944073341583
1970-01-01 00:00:00.000000008,0.18080185029222018,-0.5344244402467644,-1.2297690767324596,0.7467168420217101
1970-01-01 00:00:00.000000008,0.3838208996384155,-0.4875935085498645,-1.2546751644404373,0.7446737094173553
1970-01-01 00:00:00.000000008,0.4317098386639385,-0.3653640025329669,-1.131224075092737,0.7391977251609018
1970-01-01 00:00:00.000000008,0.37475031882509574,-0.22246031715030523,-0.8836006203735289,0.732927237464343
1970-01-01 00:00:00.000000008,0.315910680683379,-0.08131063278782802,-0.41623874725509563,0.7240797389612147
1970-01-01 00:00:00.000000008,0.2659342424312589,0.06437210463992409,-0.06754668275307564,0.7190127120968433
1970-01-01 00:00:00.000000008,0.3225969478723459,0.23274610067314733,0.005866955529427502,0.7171402551083382
1970-01-01 00:00:00.000000008,0.43195941567268614,0.4253231302381518,-0.06849500124928425,0.7138128173787976
1970-01-01 00:00:00.000000008,0.4255017490486368,0.5422621727312474,-0.06394823228580386,0.7115776959409095
1970-01-01 00:00:00.000000008,0.4052976718456737,0.5604041054757744,0.1865413015028274,0.7079216698434232
1970-01-01 00:00:00.000000008,0.3984749923497627,0.5267395056842317,0.5386542034317193,0.7048863452485044
1970-01-01 00:00:00.000000008,0.46031695406789885,0.42490505518346455,0.8704646983385729,0.7018402838985833
1970-01-01 00:00:00.000000008,0.5047718326951438,0.2875623754303458,1.0557580428707976,0.7011548360217118
1970-01-01 00:00:00.000000008,0.5293627421273757,0.19975960361466427,0.9954829813517562,0.7043089357138386
1970-01-01 00:00:00.000000008,0.5956548728604643,0.1324702709980919,0.8488058024591234,0.7061979019318523
1970-01-01 00:00:00.000000008,0.5842110492085615,0.1071747527468662,0.6525107244576264,0.7077595807066416
1970-01-01 00:00:00.000000008,0.5114709762362818,0.20095814184071129,0.45869384657019796,0.7075089906682905
1970-01-01 00:00:00.000000008,0.40461051432527223,0.5098185133262229,0.42334656931161185,0.700594728558509
1970-01-01 00:00:00.000000008,0.21331162317123578,0.9291163635617137,0.5866381704377319,0.6880114508532789
1970-01-01 00:00:00.000000008,-0.08808813139480695,1.2615642154818603,0.8511249451489572,0.6754434819692429
1970-01-01 00:00:00.000000008,-0.4388765030580882,1.3835222927072888,1.3941401868429113,0.6638555254224915
1970-01-01 00:00:00.000000008,-0.7385222819868584,1.1353754424776907,2.3324978544724186,0.6549815841482087
1970-01-01 00:00:00.000000008,-0.8780708434331062,0.5370360999069392,3.3487233296290304,0.6505568171431696
1970-01-01 00:00:00.000000008,-0.8927715232168679,-0.2611439255954487,4.207288864906252,0.6487974229596462
1970-01-01 00:00:00.000000008,-0.9451724222688658,-1.1659817634106087,4.670016350413219,0.6534020551881519
1970-01-01 00:00:00.000000008,-1.0572968030033942,-1.909465412157281,4.444050870584353,0.668444466301546
1970-01-01 00:00:00.000000008,-1.0713404325646856,-2.2093960319097232,3.499545488290537,0.6892749927272369
1970-01-01 00:00:00.000000008,-0.9430449534892189,-1.8431771395874075,1.694727623077983,0.7075187719991057
1970-01-01 00:00:00.000000008,-0.964843471363208,-1.3636606072144963,0.2008264645507961,0.7209461058318217
1970-01-01 00:00:00.000000008,-1.0219059771351366,-1.1216818623858358,-0.4184356873883251,0.7264916031256518
1970-01-01 00:00:00.000000008,-1.0587758518811867,-0.9519756562171143,-0.7788160030496186,0.7285893243941451
1970-01-01 00:00:00.000000008,-1.1115084907725343,-0.9123007651925551,-0.940236304667678,0.7292683706473777
1970-01-01 00:00:00.000000008,-1.191435458042423,-1.0259243642586273,-0.9533435832544439,0.7303654476557109
1970-01-01 00:00:00.000000008,-1.2711009990306272,-1.160324155426762,-0.922707528838683,0.7324197552678536
1970-01-01 00:00:00.000000008,-1.29314264780841,-1.2283664414685165,-0.8852983045945639,0.7339174602191799
1970-01-01 00:00:00.000000008,-1.2636644657527012,-1.217590885902782,-0.9423678168941426,0.7358186738178163
1970-01-01 00:00:00.000000008,-1.1942942673714767,-1.1559564482800369,-1.0680017219207303,0.7383058873358311
1970-01-01 00:00:00.000000008,-1.0858615611080586,-1.0652369659668839,-1.2156824232742416,0.7409246607883653
1970-01-01 00:00:00.000000008,-0.9464072169236074,-0.9919489000306012,-1.3919309736885692,0.7446408115926659
1970-01-01 00:00:00.000000008,-0.767936068820859,-0.9470285902589165,-1.5960991217166887,0.749220121661463
1970-01-01 00:00:00.000000008,-0.5615971770305441,-0.9234279936994957,-1.7983502694013693,0.7531856413749055
1970-01-01 00:00:00.000000008,-0.37621936697557656,-0.931564645260352,-1.9053955577531696,0.7552429146755087
1970-01-01 00:00:00.000000008,-0.24864101799945806,-0.975556363570684,-1.8940687251748691,0.7561222444705764
1970-01-01 00:00:00.000000008,-0.15205400588579807,-0.9285863460162209,-1.7545891968363971,0.754416636009352
1970-01-01 00:00:00.000000009,-0.059256114651156946,-0.8197997529581273,-1.7033643634986937,0.7540902785385064
1970-01-01 00:00:00.000000009,0.0813423933822893,-0.6723299270648507,-1.7025715608399448,0.7541860661661103
1970-01-01 00:00:00.000000009,0.26092979966993857,-0.5524719821524073,-1.7354314835393896,0.7540579284343174
1970-01-01 00:00:00.000000009,0.4131494464578272,-0.45849614078665263,-1.8681610444600854,0.7557835766713601
1970-01-01 00:00:00.000000009,0.560122647194568,-0.33775509400147496,-1.965747991797166,0.7557554916255667
1970-01-01 00:00:00.000000009,0.665720604812884,-0.17344071752187826,-1.9695840543321232,0.7515535017976344
1970-01-01 00:00:00.000000009,0.6464432842973517,-0.0004865989782034674,-1.86836379505913,0.7453348618690117
1970-01-01 00:00:00.000000009,0.5327876031574936,0.16436413601267183,-1.7221768213621051,0.7410374844153799
1970-01-01 00:00:00.000000009,0.47516237660184746,0.2976497632194589,-1.521078889818596,0.7364968340927636
1970-01-01 00:00:00.000000009,0.4494067731599939,0.34640584252728956,-1.3727268321254136,0.733091532551222
1970-01-01 00:00:00.000000009,0.4116618626904684,0.3636218868313732,-1.2342316757535594,0.7297765714516534
1970-01-01 00:00:00.000000009,0.34381748136174145,0.36252059982109947,-1.0603929153193812,0.7264995193921431
1970-01-01 00:00:00.000000009,0.26745122147327355,0.39878254140635305,-0.9220288048016942,0.7245468100516617
1970-01-01 00:00:00.000000009,0.2479782563683735,0.42586344357772576,-0.8131293888990693,0.7220079022774262
1970-01-01 00:00:00.000000009,0.21009324360976028,0.43526034238507627,-0.6967347882803412,0.7198845834790897
1970-01-01 00:00:00.000000009,0.17275883523413516,0.46575234237876256,-0.6091233531107157,0.718950518064834
1970-01-01 00:00:00.000000009,0.18371478909021113,0.5521541410732165,-0.5874945064772825,0.7183687683505443
1970-01-01 00:00:00.000000009,0.2331048589386862,0.6178827801490839,-0.5777550082249087,0.7169676657982783
1970-01-01 00:00:00.000000009,0.24579674091637832,0.5935386756882449,-0.5490329628590538,0.7171040857865795
1970-01-01 00:00:00.000000009,0.26514761787426816,0.6151085171177163,-0.5386879352853552,0.7167778289709639
1970-01-01 00:00:00.000000009,0.2838825079135799,0.7291095233409176,-0.5308230529947101,0.7151036581276836
1970-01-01 00:00:00.000000009,0.29552321131469006,0.8292313446977108,-0.5351517639611681,0.7138917969345544
1970-01-01 00:00:00.000000009,0.3079341300123552,0.9497843096267783,-0.6286270478273236,0.7141105100822003
1970-01-01 00:00:00.000000009,0.34601985238926386,1.0960754400073356,-0.6566481025945413,0.7127105249142938
1970-01-01 00:00:00.000000009,0.38374326525592023,1.2091406922402306,-0.5359836005563351,0.7084499091200998
1970-01-01 00:00:00.000000009,0.3584244037900845,1.228408677142339,-0.38722368576306676,0.707610572839254
1970-01-01 00:00:00.000000009,0.3287492484270598,1.2052756644693141,-0.17167384118008416,0.7589057562535525
1970-01-01 00:00:00.000000009,0.2804947483575714,1.1686713304576362,0.1066670408292795,0.7556371539477192
1970-01-01 00:00:00.000000009,0.1737194310270061,1.0874001717340773,0.54023385741784,0.7500025551946579
1970-01-01 00:00:00.000000009,0.08511420562352517,1.070746016721655,1.1092598198116206,0.7421997876798252
1970-01-01 00:00:00.000000009,0.03171350342993415,1.1510015436443781,1.4880405413896707,0.7358062170669419
1970-01-01 00:00:00.000000009,0.0016375016488633098,1.2484127809148318,1.55995191694776,0.7348404333784512
1970-01-01 00:00:00.000000009,0.04684623087588296,1.3214116549776136,1.395929330121402,0.7383088390853588
1970-01-01 00:00:00.000000009,0.17338708420784657,1.353076036069001,1.303514128918361,0.7410275955270704
1970-01-01 00:00:00.000000009,0.3234377027711437,1.3193724533455575,1.1566832851345061,0.7453226156182918
1970-01-01 00:00:00.000000009,0.48959798340063165,1.2677801925698882,0.924734558022129,0.7486382554882144
1970-01-01 00:00:00.000000009,0.5630373243664322,1.0725052588868371,0.9729622943083973,0.7478780364214915
1970-01-01 00:00:00.000000009,0.4822362133647121,0.6233467747247536,1.5287323656546505,0.7457089462546747
1970-01-01 00:00:00.000000009,0.40397308611569677,-0.002752904363949163,2.2922010153217056,0.7438081904218299
1970-01-01 00:00:00.000000009,0.3572118303392095,-0.6591631079873737,2.8992071325954,0.7437795207113085
1970-01-01 00:00:00.000000009,0.2985246419123958,-1.2557897046795585,3.275252871369673,0.7452554164116529
1970-01-01 00:00:00.000000009,0.1840892076051288,-1.7405397974915777,3.2892395152548968,0.7528910842850296
1970-01-01 00:00:00.000000009,0.1538389653243878,-1.9246536924899973,2.8483451756155964,0.7650902353997717
1970-01-01 00:00:00.000000009,0.28250885077491966,-1.7233680903662505,2.117822035738303,0.7744423218934768
1970-01-01 00:00:00.000000009,0.43334455757092905,-1.3384206155453917,1.35071392117195,0.7808718285900433
1970-01-01 00:00:00.000000009,0.559133653494139,-1.0541791116912456,0.7112632535724249,0.787061708718344
1970-01-01 00:00:00.000000009,0.6831427958771509,-0.9209777875643542,0.30683153783740086,0.7913871603716971
1970-01-01 00:00:00.000000009,0.7774051725216443,-0.9678706121836264,0.16753880840009724,0.7928974026927411
1970-01-01 00:00:00.000000009,0.7842743292013402,-1.154320793454373,0.27392423690440415,0.7922059012840744
1970-01-01 00:00:00.000000009,0.711854353193298,-1.3747977764298038,0.5524086226734611,0.7888102076444895
1970-01-01 00:00:00.000000009,0.5549485268236772,-1.5529406355043347,0.8033871099250441,0.7861034807757117
1970-01-01 00:00:00.000000009,0.38864655483253346,-1.5735270179408394,0.8701157095491275,0.7852113785586963
1970-01-01 00:00:00.000000009,0.2800445235157321,-1.429785603762814,0.6922402930369094,0.7852622264571713
1970-01-01 00:00:00.000000009,0.19297764396591358,-1.277653489523052,0.32340299657951815,0.7880547709295909
1970-01-01 00:00:00.000000009,0.13110310020512256,-1.1362825237597134,-0.029783295790045204,0.7909479192542297
1970-01-01 00:00:00.000000009,0.08849360435837396,-1.0444767765077814,-0.27005410742930774,0.7931921654286149
1970-01-01 00:00:00.000000009,0.06669112848220998,-1.0128291387052895,-0.4599163015561644,0.7951570915760464
1970-01-01 00:00:00.000000009,0.037275794136067214,-1.0473533133481425,-0.6431293794002331,0.7987612033241104
1970-01-01 00:00:00.000000009,0.043706799685030946,-1.1039130713527756,-0.742779691908349,0.8013478895292868
1970-01-01 00:00:00.000000009,0.06128170668621618,-1.1608317919365063,-0.8144544808849019,0.8032548762194979
1970-01-01 00:00:00.000000009,0.07129256149570286,-1.1869413593623268,-0.9458873404134361,0.8062929609802955
1970-01-01 00:00:00.000000009,0.11013947834488627,-1.1611755630961587,-1.249094362527723,0.8102196590112124
1970-01-01 00:00:00.000000009,0.12946133242605384,-1.036695270115385,-1.651556873716515,0.8158966474535797
1970-01-01 00:00:00.000000009,0.21522654147182818,-0.8456198754092796,-2.108964373208216,0.8211219178579793
1970-01-01 00:00:00.000000009,0.3290079951870824,-0.6937826863197896,-2.4392225232899434,0.8238090553398176
1970-01-01 00:00:00.000000009,0.3979244136996613,-0.5994925170497848,-2.7130236174449816,0.8268979555049378
1970-01-01 00:00:00.000000009,0.4641749533880745,-0.5347463375049933,-2.854646211205145,0.8283599208254891
1970-01-01 00:00:00.000000009,0.5206444239765435,-0.41834590797955457,-2.9421113974884774,0.8272878354013163
1970-01-01 00:00:00.000000009,0.5281206426506235,-0.3140224795521868,-2.8857908225929414,0.8231375744134272
1970-01-01 00:00:00.000000009,0.4507685591398584,-0.2571281921463537,-2.6711079647377876,0.8187147625569304
1970-01-01 00:00:00.000000009,0.38299008823033714,-0.21510036385202658,-2.3207858807799804,0.8136546001836077
1970-01-01 00:00:00.000000009,0.3659363481781458,-0.2603468937432304,-1.949876078206559,0.8083494215281721
1970-01-01 00:00:00.000000009,0.32334624684199953,-0.3876227295326415,-1.6492251931145658,0.8065780597721532
1970-01-01 00:00:00.000000009,0.33413227048220645,-0.48826038699250146,-1.3619977192411303,0.8046198499781325
1970-01-01 00:00:00.000000009,0.37355187901292963,-0.5307031135909994,-1.1100086207220596,0.8010177363238841
1970-01-01 00:00:00.000000009,0.3675899980931347,-0.4828805951621569,-1.000391955452148,0.7988573565816321
1970-01-01 00:00:00.000000009,0.3696744591927271,-0.3460010365254522,-0.9895022572241574,0.7973580516545434
1970-01-01 00:00:00.000000009,0.3996920445740969,-0.16207177345268878,-1.019093372027743,0.7950408966759751
1970-01-01 00:00:00.000000009,0.41172289016636443,-0.02370019724387939,-1.0197821380716385,0.7931380490626261
1970-01-01 00:00:00.000000009,0.4229368394977552,0.07556736669094512,-0.9616234370834966,0.7912425878505013
1970-01-01 00:00:00.000000009,0.4446565904608908,0.16514720389366108,-0.8429225571885082,0.7896951699077436
1970-01-01 00:00:00.000000009,0.5230432741768903,0.2705492471935459,-0.6601434982505818,0.7858243494267881
1970-01-01 00:00:00.000000009,0.5766833585871016,0.37677521063202196,-0.49385915527725815,0.7828102459280535
1970-01-01 00:00:00.000000009,0.6486285226306202,0.4639307457791918,-0.36250438832724413,0.7797568375513729
1970-01-01 00:00:00.000000009,0.6987058078747497,0.535530827209243,-0.15758342775524967,0.7749555107746741
1970-01-01 00:00:00.000000009,0.6917921680366241,0.5031825253709344,0.11553277543607487,0.7699781308779708
1970-01-01 00:00:00.000000009,0.62454006208446,0.43232475185110397,0.4088957585743904,0.7645366579882308
1970-01-01 00:00:00.000000009,0.48855417624422975,0.4383283606115349,0.6933952920751293,0.7594094618194971
1970-01-01 00:00:00.000000009,0.3699993495887591,0.5474151335207675,0.9576512763145245,0.7525482010111982
1970-01-01 00:00:00.000000009,0.23392987196171916,0.6594237541377236,1.2307326781055816,0.745090716183981
1970-01-01 00:00:00.000000009,0.06934223696500737,0.7621442301955228,1.5272490345339267,0.7381743789666119
1970-01-01 00:00:00.000000009,-0.08311923125720917,0.8487909040542196,1.6853116972232558,0.7340931998399373
1970-01-01 00:00:00.000000009,-0.19799460159675722,0.9370981502933612,1.758054761518934,0.73238522874923
1970-01-01 00:00:00.000000009,-0.23738142531383452,1.0247666762994045,1.8540743862208373,0.730370739834719
1970-01-01 00:00:00.000000009,-0.23572020019613668,1.1044287508705208,1.924780307523661,0.7286066288807374
1970-01-01 00:00:00.000000009,-0.21573460195312477,1.2103973233339294,2.0305816430472787,0.725751207087039
1970-01-01 00:00:00.000000009,-0.1952370371423613,1.3130336206923345,2.137658696299636,0.7215658450286531
1970-01-01 00:00:00.000000009,-0.2330756004345284,1.333582845435386,2.278275567119185,0.7167542597754787
1970-01-01 00:00:00.000000009,-0.36069462114059386,1.156116262453456,2.5881946723087217,0.7113674663122108
1970-01-01 00:00:00.000000009,-0.5922687735379287,0.7336572028461854,2.9550815472545624,0.7104235337050455
1970-01-01 00:00:00.000000010,-0.8003899018220413,0.2753229049683589,3.3217017941392815,0.7109178753114103
1970-01-01 00:00:00.000000010,-0.9598933423238811,-0.19012493030433283,3.590680732902191,0.7123281791117858
1970-01-01 00:00:00.000000010,-1.1182295674303455,-0.5826191865407427,3.702754830864449,0.7161750383639512
1970-01-01 00:00:00.000000010,-1.2196435424425118,-0.8119590098405097,3.61233379689314,0.7211871941826727
1970-01-01 00:00:00.000000010,-1.262529057868474,-0.987597709861546,3.432934054541823,0.7267108148723009
1970-01-01 00:00:00.000000010,-1.273818617005442,-1.1368758276176354,3.043189004539652,0.7344633771856072
1970-01-01 00:00:00.000000010,-1.2812265024455336,-1.1852598061247612,2.255958897718627,0.7447454398415039
1970-01-01 00:00:00.000000010,-1.353623269696513,-1.1024949937121864,1.380345177901991,0.7544626835862877
1970-01-01 00:00:00.000000010,-1.463654661792228,-1.0651884400496785,0.7802774896897465,0.760818842055445
1970-01-01 00:00:00.000000010,-1.608005114343697,-1.0466695572900204,0.29807037406026493,0.766724623262409
1970-01-01 00:00:00.000000010,-1.7243087134697999,-0.9834368197690677,-0.020924603050789855,0.7703540140539795
1970-01-01 00:00:00.000000010,-1.7981462134425785,-0.8845159475176291,-0.24142602747441147,0.7725976261647911
1970-01-01 00:00:00.000000010,-1.8274492092376384,-0.8296760140921345,-0.42876038964353647,0.7767548825227379
1970-01-01 00:00:00.000000010,-1.749165087670206,-0.8027340229515643,-0.6211020828826367,0.7819418529801423
1970-01-01 00:00:00.000000010,-1.5824364821880377,-0.7607549670007683,-0.8826082095883234,0.7872180275530113
1970-01-01 00:00:00.000000010,-1.3885990276534284,-0.7886978003776771,-1.0103672903105925,0.7900524176552398
1970-01-01 00:00:00.000000010,-1.2504857960168168,-0.9036145426256701,-1.0168375282268338,0.7928235907218756
1970-01-01 00:00:00.000000010,-1.129128581293266,-1.044618569046156,-1.1299696903446577,0.7986160543172346
1970-01-01 00:00:00.000000010,-0.9682726024227315,-1.1303200769591004,-1.5715773664174926,0.8087318615174698
1970-01-01 00:00:00.000000010,-0.7548367481763574,-1.0622224980864128,-2.1408181921644873,0.8171004584301784
1970-01-01 00:00:00.000000010,-0.48557818995384827,-0.902475630089461,-2.5833020807390707,0.7683474983945081
1970-01-01 00:00:00.000000010,-0.24263623304299262,-0.8268738652540609,-2.8805923387154673,0.770515772143923
1970-01-01 00:00:00.000000010,-0.056186888661256214,-0.7994568533963451,-3.0690291862046797,0.7737283527126835
1970-01-01 00:00:00.000000010,0.09939830177241137,-0.7183335985979247,-3.1930681109615398,0.774765453795268
1970-01-01 00:00:00.000000010,0.21429336358579126,-0.5833355074689698,-3.131595008478291,0.7716418258855616
1970-01-01 00:00:00.000000010,0.26571997659860364,-0.43809376927478033,-3.016365784162816,0.7676833037518025
1970-01-01 00:00:00.000000010,0.28767017607101886,-0.3024530004054358,-2.8675379013730584,0.7630387628051887
1970-01-01 00:00:00.000000010,0.27907324339320455,-0.1700786820312028,-2.599098993268956,0.756909976476489
1970-01-01 00:00:00.000000010,0.25436218707826336,-0.07579613308169122,-2.3442596355333998,0.7518940082627907
1970-01-01 00:00:00.000000010,0.2391921070613378,-0.036825596613081754,-2.106319851571466,0.7483076860276391
1970-01-01 00:00:00.000000010,0.25051750808882056,0.008459164504184186,-1.8494222169204853,0.7438557793065632
1970-01-01 00:00:00.000000010,0.2526587028812015,0.05366292368346788,-1.5396401198242191,0.7387263655543939
1970-01-01 00:00:00.000000010,0.2483964033569926,0.1099037402828301,-1.301397053000049,0.7357081808428623
1970-01-01 00:00:00.000000010,0.30029269210565385,0.1566573041043678,-1.1051610710256783,0.7328018822017222
1970-01-01 00:00:00.000000010,0.3538563408386285,0.18695364816767,-0.970841687060692,0.7315409410836167
1970-01-01 00:00:00.000000010,0.4290647968673883,0.2419261308482057,-1.0067295451875238,0.7341265863288223
1970-01-01 00:00:00.000000010,0.6107219233409847,0.37150351593766734,-0.9344044017986595,0.7308166458457871
1970-01-01 00:00:00.000000010,0.6989905384745414,0.4005578506978948,-0.8603002521472004,0.7243000275839245
1970-01-01 00:00:00.000000010,0.5049086268606735,0.49016557317023923,-1.247095285911002,0.7363793440323307
1970-01-01 00:00:00.000000010,0.7818667894254858,0.7883505669774095,-0.8568345253710089,0.7268683282152616
1970-01-01 00:00:00.000000010,0.929532428741015,0.7593553848701058,-0.42338124945594763,0.7176092922774323
1970-01-01 00:00:00.000000010,0.8632639391154262,0.6664316844270682,-0.12227235002795092,0.7152575480344495
1970-01-01 00:00:00.000000010,0.8632867540537765,0.7374025546390245,0.12513025867956196,0.7119350894784094
1970-01-01 00:00:00.000000010,0.9150342331152631,0.8302552656658073,0.3376073092153424,0.7082959675692377
1970-01-01 00:00:00.000000010,0.9714486342041736,0.8612036153073217,0.42198108710423005,0.708258156707971
1970-01-01 00:00:00.000000010,1.0805799019471969,0.8506875725693251,0.48432726753631994,0.7076076133308437
1970-01-01 00:00:00.000000010,1.1504258796832854,0.8021132371096212,0.5996075294215639,0.7063879211173718
1970-01-01 00:00:00.000000010,1.1811158748072461,0.7819677304458481,0.6806739279012995,0.7049522827410009
1970-01-01 00:00:00.000000010,1.1796167784663771,0.8204252854127896,0.7879983243980222,0.7012216382215571
1970-01-01 00:00:00.000000010,1.1098247482400807,0.9723745384720673,0.9481403936178824,0.6953796368610385
1970-01-01 00:00:00.000000010,1.0051850080862337,1.1860446826170976,1.0641497325688793,0.6908741111579686
1970-01-01 00:00:00.000000010,0.9505623455426206,1.4166621924355443,1.149732685987863,0.688539789497519
1970-01-01 00:00:00.000000010,1.0187515595383407,1.483074822144834,1.3978730981056335,0.6834286391246662
1970-01-01 00:00:00.000000010,1.02556942594227,1.1792831070412508,1.8957660644305074,0.6814466932821507
1970-01-01 00:00:00.000000010,1.061557120904584,0.7113498505924808,2.3915914241416356,0.6839009869643866
1970-01-01 00:00:00.000000010,1.2100667196308308,0.315437965673015,2.715477494110942,0.686643186321005
1970-01-01 00:00:00.000000010,1.3757546081063616,0.022572002827226337,2.8933976971021154,0.6870499487984745
1970-01-01 00:00:00.000000010,1.4232499837676849,-0.24892320775699892,3.113331009227088,0.6852642376661331
1970-01-01 00:00:00.000000010,1.3435357686951377,-0.4904095661172285,3.4196285981782357,0.682661639183498
1970-01-01 00:00:00.000000010,1.2186811994242508,-0.6700116693887459,3.5387645496047275,0.6832115531551776
1970-01-01 00:00:00.000000010,1.1308294490892086,-0.792138108393247,3.4347816401350597,0.6863058198393609
1970-01-01 00:00:00.000000010,1.071286542092148,-0.9874210947323984,3.1806358965384263,0.6918298698515142
1970-01-01 00:00:00.000000010,0.9983789497988688,-1.2776088071944685,3.0330102085895123,0.6982114331859848
1970-01-01 00:00:00.000000010,0.956141574664833,-1.5759203550555836,2.892736079841062,0.7064632954801449
1970-01-01 00:00:00.000000010,1.012495273049239,-1.796635124806492,2.546469601618954,0.7163913241251314
1970-01-01 00:00:00.000000010,1.1249884032534305,-1.9582903352021006,2.08688084338829,0.7255282602634165
1970-01-01 00:00:00.000000010,1.199429107352476,-2.0795512712058914,1.546965824309227,0.7350124822788598
1970-01-01 00:00:00.000000010,1.2434933929797836,-2.179207476405267,0.9415829239125445,0.7446833970649198
1970-01-01 00:00:00.000000010,1.254597424131698,-2.2430425458998093,0.3917811671659726,0.7519354091578798
1970-01-01 00:00:00.000000010,1.196523933989101,-2.2990790859896753,-0.02962923353136159,0.755922951945166
1970-01-01 00:00:00.000000010,1.04045790433502,-2.3479183464756646,-0.20759604316697147,0.7566468475547757
1970-01-01 00:00:00.000000010,0.8317463107985541,-2.3739145948085625,-0.35466225793215894,0.7588317309258986
1970-01-01 00:00:00.000000010,0.6924102960870236,-2.331321513596153,-0.7018307212419597,0.7627522120512548
1970-01-01 00:00:00.000000010,0.6030305146932592,-2.261878731389402,-1.034879674702577,0.7598536602035574
1970-01-01 00:00:00.000000010,0.2918951155818888,-2.1214330321633112,-0.8719492939732172,0.7357559400466032
1970-01-01 00:00:00.000000010,-0.7612100435655917,-1.774305032615148,1.4847568418305712,0.7125529503070048
1970-01-01 00:00:00.000000010,-0.7903134365715143,-1.1808048747938673,0.8143819970504613,0.7216598167417752
1970-01-01 00:00:00.000000010,-0.4181742889204787,-1.0135810088223673,-0.9025973434712106,0.7305958045652441
1970-01-01 00:00:00.000000010,-0.736563525370151,-1.0761727946339639,-1.0748007019970727,0.7286246001432991
1970-01-01 00:00:00.000000010,-1.1913459717359252,-1.1112336538963685,-1.685170818051468,0.7386073165495265
1970-01-01 00:00:00.000000010,-1.4178479900530494,-1.006301038441368,-2.253976563265942,0.7490958936679455
1970-01-01 00:00:00.000000010,-1.382363649498067,-0.9075959867908872,-2.520897992899271,0.7527683345621069
1970-01-01 00:00:00.000000010,-1.3224307766078083,-0.9307923991023278,-2.99227103920411,0.7581354701666111
1970-01-01 00:00:00.000000010,-1.3562501338437716,-1.0420178759968042,-3.338639152636546,0.7631583977589598
1970-01-01 00:00:00.000000010,-1.4348493906404474,-1.1519200611866325,-3.0992158903579097,0.7633995857974311
1970-01-01 00:00:00.000000010,-1.4035473392636109,-1.2582924334508034,-2.5386585444355476,0.7646498862105616
1970-01-01 00:00:00.000000010,-1.0549779529322432,-1.053390975460976,-2.425980142877806,0.7652201332592177
1970-01-01 00:00:00.000000010,-0.6211448695499403,-0.6834539553029217,-2.712995364572579,0.7605917853283645
1970-01-01 00:00:00.000000010,-0.5155473058919501,-0.526962696693052,-2.9519915795569687,0.7581493164788925
1970-01-01 00:00:00.000000010,-0.6087370974297769,-0.6078058952409071,-3.054044323297021,0.7606608446177112
1970-01-01 00:00:00.000000010,-0.6670741233670191,-0.7616545547745655,-3.1350632294257452,0.7663235330835768
1970-01-01 00:00:00.000000010,-0.5949478451166608,-0.7332237817919828,-3.11901956931773,0.7682059753666439
1970-01-01 00:00:00.000000010,-0.44228901780805974,-0.6107264153734796,-2.9038040039174975,0.7643870648986969
1970-01-01 00:00:00.000000010,-0.3179574165568831,-0.47928424769318123,-2.756583350855898,0.7618380873443834
1970-01-01 00:00:00.000000010,-0.17752554048234287,-0.2415468316240491,-2.685545028473386,0.7581308589654382
1970-01-01 00:00:00.000000010,-0.05850743198795116,0.13659439897817366,-2.574057812791208,0.7512578347041825
1970-01-01 00:00:00.000000010,0.015900201259891313,0.5333182164226634,-2.460293304501286,0.7440414152828319
1970-01-01 00:00:00.000000011,0.068677602691825,0.7956422364780552,-2.071216616699197,0.7349932948240089
1970-01-01 00:00:00.000000011,0.11322463483793811,0.9584204177012735,-1.4531570971605945,0.7246639190292649
1970-01-01 00:00:00.000000011,0.1723777492726077,1.1028000684034016,-0.8929339796897845,0.716511670760628
1970-01-01 00:00:00.000000011,0.2904939152550897,1.292651867874808,-0.6805899157793492,0.7111097550393425
1970-01-01 00:00:00.000000011,0.37735660234472557,1.4096971502779663,-0.6220969602910935,0.7088366262105837
1970-01-01 00:00:00.000000011,0.44739087802508,1.4326861164210851,-0.4525130852893592,0.7054822042846396
1970-01-01 00:00:00.000000011,0.46122652845032347,1.5225903088262662,-0.3459940267866712,0.7034333300570207
1970-01-01 00:00:00.000000011,0.5093921611146399,1.723897550159492,-0.0926803096793733,0.6983511603737215
1970-01-01 00:00:00.000000011,0.6056545929996482,1.9427583839110334,0.5137405038745975,0.6866509633118703
1970-01-01 00:00:00.000000011,0.6622441985823702,2.1985247784847664,1.1816198773398545,0.6736589369405305
1970-01-01 00:00:00.000000011,0.7030848975356294,2.463647295464042,1.6862328445878623,0.6628651192162412
1970-01-01 00:00:00.000000011,0.735227064329459,2.6386251208521747,1.9153398483402508,0.656860328553247
1970-01-01 00:00:00.000000011,0.7510473112137621,2.7453417982167325,1.9940538912709171,0.6529627072408501
1970-01-01 00:00:00.000000011,0.7071031383799062,2.800277394538209,1.9887891795131112,0.6522948553357287
1970-01-01 00:00:00.000000011,0.6906814134137838,2.6885879436939852,2.2796940449621226,0.6499266010502862
1970-01-01 00:00:00.000000011,0.6965098750136981,2.4230579905831924,2.6944109398479696,0.6416724032532022
1970-01-01 00:00:00.000000011,0.6686746882451474,2.185808846667327,2.9212323755481986,0.6389750747522953
1970-01-01 00:00:00.000000011,0.5406826757799865,1.857982593651804,3.1930649241705913,0.6367720826269434
1970-01-01 00:00:00.000000011,0.3403918999389325,1.5469718906495562,3.608771285775959,0.6330376082443812
1970-01-01 00:00:00.000000011,0.1229814363215436,1.3225960600894195,3.9060973979835163,0.6294966895255568
1970-01-01 00:00:00.000000011,-0.11982772406023143,1.1681281594202015,3.860864887434455,0.6302951799520863
1970-01-01 00:00:00.000000011,-0.34301003903753435,1.195504019721829,3.5658943382125767,0.6290286879975481
1970-01-01 00:00:00.000000011,-0.6996909697732492,1.1250305613072125,3.4328324325431283,0.6299453275707095
1970-01-01 00:00:00.000000011,-0.9986014361174165,0.9213408333650301,3.611601038244007,0.6324305975546909
1970-01-01 00:00:00.000000011,-1.0831484777209825,0.6760008277970164,4.005224488293434,0.6324254380053118
1970-01-01 00:00:00.000000011,-1.051442536575351,0.2596139142109824,4.458392542735294,0.6339043689962753
1970-01-01 00:00:00.000000011,-0.9498218736662624,-0.27334831076481825,4.764450998895153,0.6379851015807413
1970-01-01 00:00:00.000000011,-0.8577095268309922,-0.8468134880746687,4.724989244220214,0.6468139338211245
1970-01-01 00:00:00.000000011,-0.8058857711820185,-1.5155482576323418,4.135326204669511,0.6629744645595355
1970-01-01 00:00:00.000000011,-0.8517420076075556,-2.154620956212835,3.0971867936422917,0.6837808644230516
1970-01-01 00:00:00.000000011,-1.007906058255538,-2.5176944534911185,1.8802403302954462,0.7025477248369371
1970-01-01 00:00:00.000000011,-1.270570595476619,-2.6496469094884367,0.8427845028937094,0.7204058280841772
1970-01-01 00:00:00.000000011,-1.3663943705979524,-2.5574727898324072,0.09024056069896999,0.7256246896510908
1970-01-01 00:00:00.000000011,-1.6331766622475796,-2.2997028075341803,-0.5538737555691384,0.7357921442986377
1970-01-01 00:00:00.000000011,-1.5790693722121356,-1.9493982503961165,-0.9597271978713575,0.7377837129574565
1970-01-01 00:00:00.000000011,-1.5039299409205529,-1.7941348849476313,-1.0688455187441703,0.7361989171170051
1970-01-01 00:00:00.000000011,-1.5089404824034023,-1.905621559368908,-1.0624797244002222,0.7381248763736884
1970-01-01 00:00:00.000000011,-1.4958103800290143,-2.118442616374065,-1.0789024384230075,0.7442930899623843
