time,ax,ay,az,speed
1970-01-01 00:00:00.000000000,-0.2463643740547613,0.665148270061713,2.549312956187647,0.8610269739823083
1970-01-01 00:00:00.000000000,-0.2743631146600549,0.7407804758854241,2.3331794683080544,0.7474991317412693
1970-01-01 00:00:00.000000000,-0.5054926884518562,0.7527592285337171,2.3633673378187225,0.7467366106735737
1970-01-01 00:00:00.000000000,-0.6680982213671413,0.6576092103735356,2.5516291686460617,0.746732250246567
1970-01-01 00:00:00.000000000,-0.7475004734145205,0.5673161770438311,2.845246941117057,0.7381132494286111
1970-01-01 00:00:00.000000000,-0.7856889085040425,0.4521948990063424,3.0623055707108393,0.7330451914751417
1970-01-01 00:00:00.000000000,-0.8220033405922729,0.0711514241103568,3.266208796058574,0.7417646263358895
1970-01-01 00:00:00.000000000,-0.8916284353196264,-0.3344209575681407,3.5720174133292066,0.7497375880051566
1970-01-01 00:00:00.000000000,-0.9367684406459175,-0.8493373855683142,3.9294412567117303,0.7607825206377632
1970-01-01 00:00:00.000000000,-0.9535601120990866,-1.3745113603674946,4.246073610296385,0.773019939576048
1970-01-01 00:00:00.000000000,-0.9774095544043029,-1.5920427067110898,4.1349728589334855,0.7896348635111585
1970-01-01 00:00:00.000000000,-1.0798858105096882,-1.5863318528740515,3.4225034488656605,0.8298836211358649
1970-01-01 00:00:00.000000000,-1.235858267280368,-1.469793948321018,2.2917436330065897,0.8947986576771892
1970-01-01 00:00:00.000000000,-1.2914794622443382,-1.2343253627907986,1.0683540313148563,0.9519119031036001
1970-01-01 00:00:00.000000000,-1.3753543753362834,-0.9277903931179725,-0.016984333592924204,0.9944755579853163
1970-01-01 00:00:00.000000000,-1.5581130274827621,-0.6883275645004139,-0.8992433514297631,1.0350682273467202
1970-01-01 00:00:00.000000000,-1.7199646504165111,-0.5521396076327192,-1.407671914250209,1.06573319908936
1970-01-01 00:00:00.000000000,-1.730509245262925,-0.6369708475987632,-1.5254273393416136,1.0806515200029803
1970-01-01 00:00:00.000000000,-1.6941579308724384,-0.9183310080797867,-1.551123978519254,1.0980524883979674
1970-01-01 00:00:00.000000000,-1.6561708386539018,-1.1229685799677083,-1.5699222900904903,1.1102158352826723
1970-01-01 00:00:00.000000000,-1.62921155447262,-1.170918712758133,-1.6058759156337992,1.1171293804771083
1970-01-01 00:00:00.000000000,-1.5576970230955025,-1.1783466536194156,-1.7252374211396073,1.1242198264344545
1970-01-01 00:00:00.000000000,-1.4803014548062106,-1.2528280581849953,-1.8339215783545137,1.1368711879869662
1970-01-01 00:00:00.000000000,-1.3384821442289927,-1.328875511509239,-1.9715097885659956,1.1488900330326388
1970-01-01 00:00:00.000000000,-1.1701273897950006,-1.3613024857826093,-2.131334446145504,1.15712034862888
1970-01-01 00:00:00.000000000,-1.0280578030651317,-1.36270681495269,-2.2609354676940705,1.1653965475683736
1970-01-01 00:00:00.000000000,-0.8330859010417361,-1.331576865787288,-2.313718529441647,1.1672434658226916
1970-01-01 00:00:00.000000000,-0.5781565008983763,-1.2847730268397706,-2.4043692927661438,1.163724942061289
1970-01-01 00:00:00.000000000,-0.3914344250956867,-1.2115443388664195,-2.45850185522408,1.157532867805029
1970-01-01 00:00:00.000000000,-0.26575075828358846,-1.126655855792263,-2.4249125315226556,1.148383133388588
1970-01-01 00:00:00.000000000,-0.15756779668056234,-0.9262951593655571,-2.482267887728552,1.1391327197986485
1970-01-01 00:00:00.000000000,-0.040110223209526064,-0.620621973188625,-2.5836289632590552,1.1293441530169006
1970-01-01 00:00:00.000000000,0.15082762253072596,-0.31947144587460885,-2.764687449413216,1.122638460463128
1970-01-01 00:00:00.000000000,0.3906275902497478,-0.06873332023751008,-3.126558425709406,1.1267204026286644
1970-01-01 00:00:00.000000000,0.6402188006550353,0.04541231498772837,-3.570649529214844,1.1390053039894863
1970-01-01 00:00:00.000000000,0.8141801948686798,0.05306680383765007,-3.772777884159904,1.143076161971683
1970-01-01 00:00:00.000000000,0.8801190436582789,0.03756295017111094,-3.644181781560295,1.132675008740946
1970-01-01 00:00:00.000000000,0.8785997156431937,0.12635525563903321,-3.4549078131114355,1.1128238568432318
1970-01-01 00:00:00.000000000,0.7988898407445628,0.2894087101488563,-3.2229494143823896,1.0874012620451556
1970-01-01 00:00:00.000000000,0.6461875378791053,0.4961843080357534,-3.0062219855574166,1.0639669859843701
1970-01-01 00:00:00.000000000,0.489002870830948,0.7484531474898015,-2.8041586549945783,1.0390452781588726
1970-01-01 00:00:00.000000000,0.3120939103939937,0.9987510958993198,-2.6693612775857556,1.0354083239683542
1970-01-01 00:00:00.000000000,0.21563747567572328,1.1942280081605992,-2.5421942734520506,1.4018334133082062
1970-01-01 00:00:00.000000000,0.14471226452314462,1.485199905623401,-2.4800893244330706,1.4021157681469467
1970-01-01 00:00:00.000000000,0.2298801226512991,1.4803194149054724,-2.0960675150066086,1.3776694495007928
1970-01-01 00:00:00.000000000,0.26827641403333263,1.4460303463704107,-1.6511275311993068,1.355792569527706
1970-01-01 00:00:00.000000000,0.3606825560213351,1.3262850877915324,-1.2205906766787837,1.3407422300503498
1970-01-01 00:00:00.000000000,0.5405158309100094,1.0085194767511139,-0.9099682863777545,1.3373272461890329
1970-01-01 00:00:00.000000000,0.7045756375772373,0.8578071101113877,-0.6444867298977266,1.3193868942835691
1970-01-01 00:00:00.000000000,0.6735321310457928,1.0522445732849741,-0.3412013438322102,1.2843181281031326
1970-01-01 00:00:00.000000000,0.5058317966889438,1.3358052657632231,0.21505934360838402,1.2384386132885352
1970-01-01 00:00:00.000000000,0.3680564226050297,1.6968890071437583,0.8301950260803828,1.1841429871163154
1970-01-01 00:00:00.000000000,0.25536283585390035,2.0270585130074976,1.4970669464511874,1.1285097763483751
1970-01-01 00:00:00.000000000,0.16221285365032145,2.240153582929639,2.047075266972601,1.0903108647678605
1970-01-01 00:00:00.000000000,0.18521425310979805,1.8706921105103829,2.687569146226644,1.0717146084086808
1970-01-01 00:00:00.000000000,0.17614447561634466,1.873297226358081,3.1220555066540157,1.0489745393809733
1970-01-01 00:00:00.000000000,0.21822013427817938,1.8929913826493239,3.2925879149234527,1.0334834879763939
1970-01-01 00:00:00.000000000,0.15900299665627793,1.8344446966903796,3.1247927877958404,1.050281379105427
1970-01-01 00:00:00.000000000,0.17509311456123583,1.5444790683035157,2.9842809958764858,1.0798045397896263
1970-01-01 00:00:00.000000000,0.297961770965157,1.26987074387562,2.8541746972402215,1.1060489431926688
1970-01-01 00:00:00.000000000,0.5192910016143655,1.2200490152881822,2.8064538285595404,1.1097620769696013
1970-01-01 00:00:00.000000000,0.7376914068608464,0.8256097147120911,3.0742357196743266,1.109911332400669
1970-01-01 00:00:00.000000000,0.8678029679818668,0.2064342380894849,3.8329315587986956,1.0910920056070201
1970-01-01 00:00:00.000000000,0.7953648329273016,-0.38497186672675426,4.781829787459802,1.0647133901652979
1970-01-01 00:00:00.000000000,0.5607867547785806,-1.0370511945880172,5.340096147739756,1.068020125586963
1970-01-01 00:00:00.000000000,0.21698953143925648,-1.6296161084380791,5.386560480225147,1.1058514310013248
1970-01-01 00:00:00.000000000,-0.07303883327272959,-1.9441613985254493,5.11545915305382,1.1566179977705917
1970-01-01 00:00:00.000000000,-0.08394377097201225,-2.117994917746374,4.475583386230572,1.2158083944143936
1970-01-01 00:00:00.000000000,0.15819897636402191,-1.9939131009020796,3.473080554896249,1.2662240827498177
1970-01-01 00:00:00.000000000,0.4284733489059016,-1.9717598339442186,2.5434905686336546,1.3163679641033872
1970-01-01 00:00:00.000000000,0.702996871170825,-2.006704646850419,1.6880625669538216,1.3608358683902495
1970-01-01 00:00:00.000000000,0.886522381847492,-2.093290908280946,1.1501734618556656,1.3904023567766788
1970-01-01 00:00:00.000000000,0.9613395923276649,-2.131615848544201,0.7471549313400524,1.4087889443781787
1970-01-01 00:00:00.000000000,0.8939925409787828,-2.038956155845054,0.4443905308931886,1.4165071396087718
1970-01-01 00:00:00.000000000,0.7042322875953307,-1.932697001357204,0.2388927606910897,1.4226343345809005
1970-01-01 00:00:00.000000000,0.4734928868103778,-1.8095477789355203,0.09002910963016782,1.427162147546668
1970-01-01 00:00:00.000000000,0.242150103418889,-1.694920658037791,-0.0779344288125011,1.4391431726503885
1970-01-01 00:00:00.000000000,0.14148043785322745,-1.5229346611528136,-0.5138833606356769,1.4583059925530306
1970-01-01 00:00:00.000000000,0.0887507827441878,-1.4671868391415808,-1.0897879544041635,1.4904741318352352
1970-01-01 00:00:00.000000000,0.06216196004884604,-1.444576167018856,-1.7638575796257738,1.5292565472565025
1970-01-01 00:00:00.000000000,0.05140919015472653,-1.373999105617899,-2.371996130742091,1.5600503604471545
1970-01-01 00:00:00.000000000,0.020508449774035487,-1.2600361030156408,-2.886674368761915,1.5836939180726555
1970-01-01 00:00:00.000000000,-0.014378110169347175,-1.0966864389045834,-3.267922588929832,1.598201816021518
1970-01-01 00:00:00.000000000,-0.029784376765798926,-0.9028026567769981,-3.649540441712375,1.613677356746696
1970-01-01 00:00:00.000000000,0.05365915065964805,-0.7283864200647955,-3.969070463294604,1.6199128417561486
1970-01-01 00:00:00.000000000,0.1076589210243914,-0.6169969454176929,-4.118728327687159,1.6188302618312662
1970-01-01 00:00:00.000000000,0.10454005042247,-0.5071412693552313,-4.063204547400908,1.6101212161529337
1970-01-01 00:00:00.000000000,0.11673363158790709,-0.4280373731985134,-3.9400144981623524,1.6004496798801657
1970-01-01 00:00:00.000000000,0.17263831433016796,-0.40230228681419106,-3.919621382792191,1.5978128124090543
1970-01-01 00:00:00.000000000,0.25490907661991596,-0.23422167550918277,-3.939860141951367,1.5886261020469936
1970-01-01 00:00:00.000000000,0.34267268650752336,0.013346782886308278,-4.021572715074626,1.578348829287063
1970-01-01 00:00:00.000000000,0.45123233011694563,0.2737443414191027,-3.963443637083959,1.5541789682904676
1970-01-01 00:00:00.000000000,0.46910706486235754,0.5383456501534012,-3.7058102714682555,1.518305680886775
1970-01-01 00:00:00.000000000,0.3676771604150183,0.7107690059610005,-3.3942528993206387,1.4874823604979266
1970-01-01 00:00:00.000000000,0.19301273474138975,0.8686744548163773,-2.97276106616622,1.4582021481872045
1970-01-01 00:00:00.000000000,0.07713905279058315,0.9403560760009605,-2.42338108524754,1.4291175940835563
1970-01-01 00:00:00.000000000,0.0861363353574652,0.9495906895892313,-2.0298771431376945,1.4048511360556766
1970-01-01 00:00:00.000000001,0.08120038398869861,0.9880691019488463,-1.8438252204296592,1.3895667900674533
1970-01-01 00:00:00.000000001,0.046351368783818965,1.130118388041649,-1.6015604834510773,1.3635226723847798
1970-01-01 00:00:00.000000001,-0.0790008983424446,1.3382719790436106,-1.3351632288815027,1.336917119796719
1970-01-01 00:00:00.000000001,-0.20689185147450143,1.4795503790165343,-0.9715213634687897,1.307792046614528
1970-01-01 00:00:00.000000001,-0.35517373688623977,1.5640659730475914,-0.44143586613102154,1.2761730090475556
1970-01-01 00:00:00.000000001,-0.444486759682988,1.744644349447818,0.047166434110636174,1.241519805456099
1970-01-01 00:00:00.000000001,-0.45597070784754784,1.9009168855630632,0.5745150106378272,1.2026743133939375
1970-01-01 00:00:00.000000001,-0.44908505660385734,1.919368958215799,1.0539962505715277,1.1681712052482418
1970-01-01 00:00:00.000000001,-0.5516659482284092,1.8733920393284487,1.5847308078583044,1.1375224329806564
1970-01-01 00:00:00.000000001,-0.7166149654467469,1.8681913155337058,2.189710773483933,1.0991368487179445
1970-01-01 00:00:00.000000001,-1.0041097240185795,1.7515566761612966,2.7212432722875644,1.0711828300906978
1970-01-01 00:00:00.000000001,-1.4563254339681948,1.5777299074036812,2.937748544862562,1.0749176819202608
1970-01-01 00:00:00.000000001,-1.86867304750993,1.382883397867719,3.1337000131311523,1.085554307493101
1970-01-01 00:00:00.000000001,-2.140254879745411,1.2599585298037559,3.421988504457499,1.0831124667796603
1970-01-01 00:00:00.000000001,-2.3245731568033667,1.1965187283901764,3.8205114287778352,1.067231268721458
1970-01-01 00:00:00.000000001,-2.4815078657320657,1.0131045468622628,4.4488774826753135,1.0474163504381815
1970-01-01 00:00:00.000000001,-2.5457578979493007,0.6231623702380031,5.265038936802748,1.0270956780638238
1970-01-01 00:00:00.000000001,-2.5236546231234414,0.03368052037999297,6.178574881814875,1.003795179708288
1970-01-01 00:00:00.000000001,-2.602326163217181,-0.6402803412265794,6.879990850950428,0.997109304418648
1970-01-01 00:00:00.000000001,-2.8337804156556117,-1.2989645082500663,6.853463319094194,1.0386684164500315
1970-01-01 00:00:00.000000001,-3.0828273231480527,-1.7139979449662657,6.13128220115162,1.1129285278982173
1970-01-01 00:00:00.000000001,-3.2264759522438857,-1.879192364428196,4.790943753410331,1.2084166298197836
1970-01-01 00:00:00.000000001,-3.242875731160538,-2.0785138644823653,3.4198811710400165,1.3082296589558395
1970-01-01 00:00:00.000000001,-3.0875531021139615,-2.3095006572759735,2.2270291839897682,1.3931926329147586
1970-01-01 00:00:00.000000001,-2.8482371133673805,-2.242755146498137,1.2451555321545027,1.4414473168206041
1970-01-01 00:00:00.000000001,-2.671004603419269,-1.9103660285678543,0.4766924537876989,1.458634342454636
1970-01-01 00:00:00.000000001,-2.6590863152892603,-1.6446039560205405,-0.18193561107325695,1.4824307498751355
1970-01-01 00:00:00.000000001,-2.6155337130185257,-1.4131706074470884,-0.5581837762259655,1.4959932323208847
1970-01-01 00:00:00.000000001,-2.4621032282899065,-1.2587581948709259,-0.8867820968479002,1.5098579245758588
1970-01-01 00:00:00.000000001,-2.1915369531145386,-1.1698047070829516,-1.2314368916823193,1.521893829819487
1970-01-01 00:00:00.000000001,-1.9231193757205054,-1.2158040990958743,-1.5018491813019166,1.539667429430313
1970-01-01 00:00:00.000000001,-1.6044453557165326,-1.2419932458445975,-1.903578280808362,1.5622666390672477
1970-01-01 00:00:00.000000001,-1.2537736833230912,-1.2263772023887136,-2.3031280642043264,1.581395313312103
1970-01-01 00:00:00.000000001,-0.8906284558178612,-1.2542565001489128,-2.6649447342067045,1.5995686904685034
1970-01-01 00:00:00.000000001,-0.5333169705854861,-1.2320451257943765,-2.993876583539217,1.611689656782156
1970-01-01 00:00:00.000000001,-0.21437396675321724,-1.1550224526594646,-3.3137835777122744,1.6202186378967665
1970-01-01 00:00:00.000000001,0.06274390948364283,-1.0617990962169828,-3.5865180148979854,1.6242027178318998
1970-01-01 00:00:00.000000001,0.2692200469318914,-0.9711878650130863,-3.7298375443473164,1.6238471753577262
1970-01-01 00:00:00.000000001,0.45403717758304685,-0.8593788464970715,-3.8182012698403778,1.6187925810731074
1970-01-01 00:00:00.000000001,0.5986990095563511,-0.7947472428596754,-3.924302993794669,1.6190734127715698
1970-01-01 00:00:00.000000001,0.733848139296709,-0.6688606045992,-4.208043456500649,1.6243528214814937
1970-01-01 00:00:00.000000001,0.8198424770246557,-0.46917103712777475,-4.6475522875319255,1.6319979630268566
1970-01-01 00:00:00.000000001,0.8434589832259461,-0.21106003933064788,-4.988170948341257,1.5755166903708924
1970-01-01 00:00:00.000000001,0.736668811082621,0.2616083937580179,-5.292004899124192,1.5584421980233376
1970-01-01 00:00:00.000000001,0.48671740428038757,0.897964753848805,-5.522483244960385,1.5363318417891354
1970-01-01 00:00:00.000000001,0.2096722486426229,1.411831529350692,-5.3866511456152235,1.5113402019526825
1970-01-01 00:00:00.000000001,0.14739275177725977,1.520217239117171,-4.8683669861534025,1.4790154139088794
1970-01-01 00:00:00.000000001,0.16879475590749904,1.7363357534433734,-4.206955653896187,1.4348089026958335
1970-01-01 00:00:00.000000001,0.349402031812437,1.5713614022371387,-3.2589223706604074,1.3817693597401688
1970-01-01 00:00:00.000000001,0.3887220724811134,1.2728807744653072,-2.7014896864288844,1.365853580272984
1970-01-01 00:00:00.000000001,0.449064550236183,1.2441243587311257,-2.483594312514498,1.3544132605136978
1970-01-01 00:00:00.000000001,0.5192306762258703,1.3000007001380365,-2.3740329625996077,1.3452593449381303
1970-01-01 00:00:00.000000001,0.623566710823881,1.310463264575776,-2.1607269580949846,1.3325888748740706
1970-01-01 00:00:00.000000001,0.7613321816334973,1.3572235668400674,-1.9408787825328453,1.3197875025722328
1970-01-01 00:00:00.000000001,1.0006188853938955,1.4214315408922797,-1.656141669505589,1.2989632978407877
1970-01-01 00:00:00.000000001,1.2950086612432086,1.3759900391355109,-1.1703842922340617,1.26721464349134
1970-01-01 00:00:00.000000001,1.5290035961409887,1.139540634997872,-0.5349931015827095,1.235504298135075
1970-01-01 00:00:00.000000001,1.6442436633566666,0.8451233785525234,0.17908682224644318,1.205348781379533
1970-01-01 00:00:00.000000001,1.6705458961841728,0.6371252937855492,0.8286720101019206,1.1776786094559446
1970-01-01 00:00:00.000000001,1.662779591569851,0.5122733114396687,1.3500712082877802,1.157418534191657
1970-01-01 00:00:00.000000001,1.7214067530908717,0.3511195719866868,1.7801160705693786,1.1399183730983444
1970-01-01 00:00:00.000000001,1.7596219818639827,0.06087564019124936,2.305983205075872,1.123729149932382
1970-01-01 00:00:00.000000001,1.7663362944222734,-0.22087386230782535,2.9680338909944606,1.0978032020695783
1970-01-01 00:00:00.000000001,1.6992588881690536,-0.39057972212290015,3.714822052154343,1.0612786088042756
1970-01-01 00:00:00.000000001,1.534188553739221,-0.4957978874656478,4.161142264717757,1.0461310856690895
1970-01-01 00:00:00.000000001,1.4283288520366744,-0.5336757509042109,4.098306583770585,1.0569792952847998
1970-01-01 00:00:00.000000001,1.4213110967219742,-0.4978289318231747,3.90875395221296,1.068359444623858
1970-01-01 00:00:00.000000001,1.4845390009612829,-0.3041276979968518,3.7916278363039932,1.0527345223623916
1970-01-01 00:00:00.000000001,1.3038425864729728,-0.1905285476327638,3.7382879944538487,1.0389941280980117
1970-01-01 00:00:00.000000001,0.8534629377882748,-0.46382097019382285,4.018470131843978,1.0368601566563411
1970-01-01 00:00:00.000000001,0.2629585999023244,-0.9140610258283879,4.678982187105546,1.035237825873522
1970-01-01 00:00:00.000000001,-0.2512295038255836,-1.2508167760080795,5.279058871170097,1.040002195571473
1970-01-01 00:00:00.000000001,-0.472108135628508,-1.5011093349386364,5.46248992593824,1.0621351484857353
1970-01-01 00:00:00.000000001,-0.35195148768982504,-1.7368432209390365,5.250461175558544,1.0903699624177963
1970-01-01 00:00:00.000000001,-0.16087619758836594,-2.057238543295649,4.886380901262096,1.1247040263927839
1970-01-01 00:00:00.000000001,-0.06037513463345423,-2.314114454711826,4.176306151849688,1.1815528459973357
1970-01-01 00:00:00.000000001,0.07818350770231257,-2.3658681839889972,3.1818687486141313,1.245637467948275
1970-01-01 00:00:00.000000001,0.31633598155425025,-2.370231989571086,2.1782445841518627,1.3051844145044256
1970-01-01 00:00:00.000000001,0.626375740449155,-2.4320368243643387,1.329093733552104,1.353131536215497
1970-01-01 00:00:00.000000001,0.8948717429903887,-2.5447394257763953,0.7073090642446072,1.3898210082819795
1970-01-01 00:00:00.000000001,1.0963840242500047,-2.697577062206,0.3466016104446336,1.4108173992686126
1970-01-01 00:00:00.000000001,1.153569232116885,-2.737099611546773,0.2036760599992998,1.4154215166876942
1970-01-01 00:00:00.000000001,1.0831968498901412,-2.7517528715652424,0.1050115875281109,1.4183542317691076
1970-01-01 00:00:00.000000001,0.9142653396182645,-2.678914990320544,0.012949733653906774,1.4218867739507512
1970-01-01 00:00:00.000000001,0.7505422110751871,-2.531224276686244,-0.20764118846943494,1.4307473577826886
1970-01-01 00:00:00.000000001,0.6451963176378661,-2.3402450413490166,-0.5453663834696192,1.4426184275191873
1970-01-01 00:00:00.000000001,0.5816829538870876,-2.12702750684949,-0.9888868323225652,1.458745620601391
1970-01-01 00:00:00.000000001,0.553982462655072,-1.959872929584459,-1.5249533752369109,1.4835691451994177
1970-01-01 00:00:00.000000001,0.5911984282960397,-1.7865970953657704,-2.1819098025089025,1.5109968988263573
1970-01-01 00:00:00.000000001,0.6137224621713759,-1.7073630564916507,-2.815725703703658,1.5446638143903586
1970-01-01 00:00:00.000000001,0.6788315388040567,-1.6004112954066976,-3.380890062987656,1.5671513266938066
1970-01-01 00:00:00.000000001,0.6684838884799698,-1.3573804980833422,-3.8219445755571524,1.5752145302266056
1970-01-01 00:00:00.000000001,0.5735055985540553,-1.096440392689308,-4.1091917169012815,1.57649385205702
1970-01-01 00:00:00.000000001,0.44824168782960433,-0.8248804921988264,-4.204602168448282,1.5721801901204107
1970-01-01 00:00:00.000000001,0.42080721719762393,-0.6467547412587866,-4.136488675782214,1.5613805390925608
1970-01-01 00:00:00.000000001,0.4633337700454544,-0.5874449073841393,-3.9305394632673045,1.5455780822612781
1970-01-01 00:00:00.000000001,0.5045575945411196,-0.5100526846379703,-3.783871758960075,1.5338638579151922
1970-01-01 00:00:00.000000001,0.5868286786587616,-0.43684262049393235,-3.736863071307624,1.5263121412743317
1970-01-01 00:00:00.000000001,0.6880870803154828,-0.35984878927855823,-3.686581886926108,1.511844338389717
1970-01-01 00:00:00.000000001,0.6666783359835705,-0.24342449838952324,-3.5151976840596757,1.4895662893640023
1970-01-01 00:00:00.000000002,0.5121165787506684,-0.10292144012756603,-3.364064355574132,1.476567804027632
1970-01-01 00:00:00.000000002,0.4080985684518514,0.14780268523910128,-3.3812828461480233,1.4714525921542283
1970-01-01 00:00:00.000000002,0.4758384524377506,0.3863168899143967,-3.387849542091441,1.4558062349459056
1970-01-01 00:00:00.000000002,0.5151633195374151,0.46960701999108106,-3.1538011127794165,1.4326005314050003
1970-01-01 00:00:00.000000002,0.46552485700763835,0.5623077153808514,-2.7455454374167236,1.4040742810034887
1970-01-01 00:00:00.000000002,0.427597869756965,0.6890963186065256,-2.249530674157486,1.3642311814821566
1970-01-01 00:00:00.000000002,0.2965430798869257,0.7839466797555076,-1.7511289720752392,1.3312525142532263
1970-01-01 00:00:00.000000002,0.16167662507356614,0.8064053651273987,-1.4520102415387377,1.318959136168511
1970-01-01 00:00:00.000000002,0.14524319183346646,0.8606530665141665,-1.331492661640779,1.3127301526048092
1970-01-01 00:00:00.000000002,0.2190557954665866,0.9480364045582813,-1.2314826489590902,1.3019950604428607
1970-01-01 00:00:00.000000002,0.31510597427185694,1.0240201071311807,-1.1308486096829076,1.2892578324025048
1970-01-01 00:00:00.000000002,0.3871864375154985,1.0537837041942864,-0.9481525962687442,1.271674733113767
1970-01-01 00:00:00.000000002,0.35995226445878725,0.9820340416458158,-0.6653773540419239,1.2602851996787938
1970-01-01 00:00:00.000000002,0.3419123664016134,0.8066043459081765,-0.4215670371977965,1.2619256863573936
1970-01-01 00:00:00.000000002,0.4593577405205209,0.5761563425748899,-0.18705960559855567,1.2520124791491642
1970-01-01 00:00:00.000000002,0.3895431377822369,0.5408458568355322,-0.08781336074150614,1.2440713063700406
1970-01-01 00:00:00.000000002,0.20851082868566062,0.5224921579122092,0.06190923150564502,1.2441542612480248
1970-01-01 00:00:00.000000002,0.19494396354978585,1.0018286564013308,0.4447488610012015,1.1939110994122375
1970-01-01 00:00:00.000000002,0.1589822116254657,1.5030697206113028,0.9224981712143021,1.128064681048245
1970-01-01 00:00:00.000000002,-0.09194533052516496,1.7395773196693316,1.37122528135037,1.082789910934138
1970-01-01 00:00:00.000000002,-0.5024479839924088,1.7439454899455835,1.8790120047308378,1.0461215961368937
1970-01-01 00:00:00.000000002,-1.1489698230836327,1.7844320506319429,2.5495799881526233,1.0104054290107696
1970-01-01 00:00:00.000000002,-1.8260176837198554,1.5139476404864496,3.787875438759724,0.9734838530019119
1970-01-01 00:00:00.000000002,-2.2207570211834478,1.184624394270381,5.4405270101280605,0.9015598562873741
1970-01-01 00:00:00.000000002,-2.6157813133965404,0.01870632158036145,7.904149151464365,0.8268586860019007
1970-01-01 00:00:00.000000002,-3.1550804588328174,-0.6659692155878707,8.485084575422459,0.8476402642551497
1970-01-01 00:00:00.000000002,-3.477006690688196,-0.3051907062654213,7.387818821129617,0.914543987553141
1970-01-01 00:00:00.000000002,-3.388979007730889,-0.7867461638806803,6.023457284775028,1.042912191855779
1970-01-01 00:00:00.000000002,-2.8010867346565727,-1.4268492825126244,4.505634303796265,1.1646227310313486
1970-01-01 00:00:00.000000002,-2.1521502162091495,-1.798897102175237,3.0679562795090134,1.2516200102538466
1970-01-01 00:00:00.000000002,-1.7471554902347943,-1.8856997829807223,2.086857936185147,1.2972213415388845
1970-01-01 00:00:00.000000002,-1.620729781060493,-1.7285828786898871,1.4136221571043164,1.3202014733887109
1970-01-01 00:00:00.000000002,-1.6319802140512234,-1.4578379980625005,0.9091402492151287,1.3368494860183766
1970-01-01 00:00:00.000000002,-1.5845423448075528,-1.2204347871505905,0.545772853551196,1.3477740334328132
1970-01-01 00:00:00.000000002,-1.4539526343498403,-1.0999223233658322,0.22070572830477003,1.3574594507835158
1970-01-01 00:00:00.000000002,-1.3503105695508344,-1.0632705339972572,-0.17252077959278603,1.3782596499300563
1970-01-01 00:00:00.000000002,-1.2200351685892732,-0.9691772390720808,-0.7395619218219649,1.40518705529435
1970-01-01 00:00:00.000000002,-1.0724124103877797,-0.8924535163232499,-1.3335897049745955,1.4342833501213959
1970-01-01 00:00:00.000000002,-0.9114071201336561,-0.8976310185614143,-1.7879234293978543,1.4603311835559147
1970-01-01 00:00:00.000000002,-0.7621767130082906,-0.9757482811929887,-2.07250718512551,1.5229254120086209
1970-01-01 00:00:00.000000002,-0.5741375128428093,-1.0500858306709966,-2.2722838260126337,1.5375204632838897
1970-01-01 00:00:00.000000002,-0.4012694711573501,-1.0565784418236046,-2.459165412115257,1.5414965813855057
1970-01-01 00:00:00.000000002,-0.354786548238996,-0.9914041911500835,-2.639054393683057,1.5503939211697682
1970-01-01 00:00:00.000000002,-0.24542811268938092,-0.9544123557728832,-2.7883808538715367,1.5574404332827423
1970-01-01 00:00:00.000000002,-0.10630648717742724,-0.9382478018514966,-3.0577470479822138,1.571358169959274
1970-01-01 00:00:00.000000002,0.05841381883218613,-0.9008742418841253,-3.293385389314854,1.5780129875797944
1970-01-01 00:00:00.000000002,0.15118401654987387,-0.8158047156674798,-3.544106450166526,1.5859232876761717
1970-01-01 00:00:00.000000002,0.2266126771546947,-0.7519171353513159,-3.773552819394939,1.5972305050920357
1970-01-01 00:00:00.000000002,0.36213953161551116,-0.6543298734056634,-4.010191608084438,1.6023071948499779
1970-01-01 00:00:00.000000002,0.4618717509675135,-0.4555262516869756,-4.292157403970317,1.6059057304007096
1970-01-01 00:00:00.000000002,0.5599916152222543,-0.276514628998913,-4.509694005970381,1.6068905987416757
1970-01-01 00:00:00.000000002,0.6564190063730526,-0.1679260428427976,-4.627138068789024,1.6039619036941795
1970-01-01 00:00:00.000000002,0.7072700339543603,-0.09648095582883781,-4.512026279405459,1.592467152557724
1970-01-01 00:00:00.000000002,0.7624524015426906,0.007558553555983255,-4.252953157066622,1.568648313084902
1970-01-01 00:00:00.000000002,0.7769587270331016,0.09265245200326422,-3.775618411230537,1.5345066305261772
1970-01-01 00:00:00.000000002,0.7620911512190087,0.151768732898074,-3.2810328637920336,1.5021205731164844
1970-01-01 00:00:00.000000002,0.7426455051279586,0.22743616157512922,-2.8399360858239877,1.476460448577998
1970-01-01 00:00:00.000000002,0.8209272040678556,0.3495892407422541,-2.5366598423437767,1.4542719292300634
1970-01-01 00:00:00.000000002,0.9790703672487738,0.3759329233652076,-2.2354200725585134,1.434720005161925
1970-01-01 00:00:00.000000002,1.16933369976141,0.45486150449708324,-1.9154203023573635,1.4188088041493938
1970-01-01 00:00:00.000000002,1.5768852474726525,0.6950946449738425,-1.6911611441725016,1.3942634334182502
1970-01-01 00:00:00.000000002,2.139432119288794,0.9722704082784146,-1.5863540918184311,1.367259176253851
1970-01-01 00:00:00.000000002,2.739283311078541,1.1482708556332677,-1.5483348578352298,1.3451775821543903
1970-01-01 00:00:00.000000002,3.2880768365479534,1.1731614563322963,-1.576568307220307,1.3260330840559036
1970-01-01 00:00:00.000000002,3.5689229185316322,1.1396895238371436,-1.4064083786146517,1.3016955254821463
1970-01-01 00:00:00.000000002,3.5754278819150382,1.0665274653226213,-0.928386137323283,1.2691966616428072
1970-01-01 00:00:00.000000002,3.390652899155568,0.9466812207851271,-0.36988814820248384,1.2381222994138879
1970-01-01 00:00:00.000000002,3.0466416013736017,0.8114291517536658,0.2589697917340885,1.209047858038754
1970-01-01 00:00:00.000000002,2.618735855049198,0.7520910687892354,0.9022577172481744,1.1777338394865247
1970-01-01 00:00:00.000000002,2.1532756893356964,0.8113196932927489,1.6682785617036433,1.1374345754631523
1970-01-01 00:00:00.000000002,1.7456564313102285,0.9776094593047203,2.4653322579399446,1.0884472868370878
1970-01-01 00:00:00.000000002,1.3802813871790829,1.1554165369240068,2.9669732316641184,1.053301777756169
1970-01-01 00:00:00.000000002,1.0220578123221329,1.1726916750240628,3.34699963437202,1.0361341295889814
1970-01-01 00:00:00.000000002,0.7194184888877497,1.1235663043909512,3.7683245120456275,1.0200061164402634
1970-01-01 00:00:00.000000002,0.4691728029344889,1.1758992360690146,4.1600628833975275,0.9977104864644974
1970-01-01 00:00:00.000000002,0.22465294802335845,1.2111497923255876,4.388810062540855,0.9849925205831951
1970-01-01 00:00:00.000000002,-0.02449958836926569,0.9323757048318174,4.745039353315499,0.9856968970205966
1970-01-01 00:00:00.000000002,-0.2272278955517515,0.10663530990613135,5.3708935487503195,1.0038435503743852
1970-01-01 00:00:00.000000002,-0.3531508549186221,-1.1022520106887335,5.970056789620709,1.0504280693942902
1970-01-01 00:00:00.000000002,-0.24830123609028737,-2.122754810337629,6.315324559173096,1.0837778910644336
1970-01-01 00:00:00.000000002,-0.24925086275863728,-2.554319460699099,6.201514715781084,1.1007621767022484
1970-01-01 00:00:00.000000002,-0.5933643760906564,-2.3322441048994857,5.63719929055459,1.1298061831635575
1970-01-01 00:00:00.000000002,-0.8426789843907171,-2.368952036988426,5.050185463791509,1.1827028829411836
1970-01-01 00:00:00.000000002,-0.7953821389547759,-2.4210818241825587,4.176187301421623,1.242929505482588
1970-01-01 00:00:00.000000002,-0.6138383777895072,-2.546125777353023,3.161003113180018,1.3119039833050956
1970-01-01 00:00:00.000000002,-0.3301987418818803,-2.6129323907335413,2.132278528054355,1.3712385969992473
1970-01-01 00:00:00.000000002,-0.08070014738036703,-2.5277352678746006,1.1358306488655487,1.4182304198813178
1970-01-01 00:00:00.000000002,0.09357990706218475,-2.3376741910676127,0.33339464212853315,1.4506071702381462
1970-01-01 00:00:00.000000002,0.22655252036041384,-2.0904706492614946,-0.3851780697057178,1.4785391978668039
1970-01-01 00:00:00.000000002,0.41036887029917196,-1.8201526542631843,-0.9483218394533723,1.4862106365238572
1970-01-01 00:00:00.000000002,0.4175095036935721,-1.6858319504136718,-1.351692530104492,1.4983458333369122
1970-01-01 00:00:00.000000002,0.355444879608826,-1.6417402031081536,-1.4918066695700551,1.5060754469993551
1970-01-01 00:00:00.000000002,0.3263890900509291,-1.5339247839471009,-1.5698587987275945,1.5042987648338042
1970-01-01 00:00:00.000000002,0.27092178993935606,-1.5993782018369478,-1.7195301344483689,1.5162207447687368
1970-01-01 00:00:00.000000002,0.19529197960735462,-1.533621737498812,-1.9917899032266764,1.530705051702555
1970-01-01 00:00:00.000000002,0.14652839344454538,-1.549502895283869,-2.299891437324822,1.5531002461760757
1970-01-01 00:00:00.000000003,0.1623481686308294,-1.6105479179647875,-2.6628703873426587,1.5767888918810575
1970-01-01 00:00:00.000000003,0.16148974536652694,-1.5918598757347264,-3.004178006896299,1.5950096282718973
1970-01-01 00:00:00.000000003,0.14680731893968246,-1.4842607756235315,-3.3145278476081597,1.6052578023381792
1970-01-01 00:00:00.000000003,0.08778545153829684,-1.3473615623592645,-3.6022543747826683,1.6141493182290425
1970-01-01 00:00:00.000000003,0.016259139636410402,-1.2329316687082899,-3.7847705321556475,1.6197223088430515
1970-01-01 00:00:00.000000003,-0.03802979517101951,-1.1715786983241316,-3.8163351989794307,1.619946594602464
1970-01-01 00:00:00.000000003,-0.06360773251595456,-1.1354101629503888,-3.7419968171961733,1.6144975481451111
1970-01-01 00:00:00.000000003,-0.07214817426505979,-1.085512648906289,-3.568595812887265,1.6018490373743026
1970-01-01 00:00:00.000000003,-0.07690309586576735,-0.9531094036808329,-3.3897681769214185,1.587127194428416
1970-01-01 00:00:00.000000003,-0.013514070713801507,-0.8020133109486774,-3.35871702446349,1.5783919313492567
1970-01-01 00:00:00.000000003,0.109113171040287,-0.6384734876998639,-3.4828149793591887,1.573610235863844
1970-01-01 00:00:00.000000003,0.21953920522634607,-0.5164875928265138,-3.5070041541135226,1.5607464807243816
1970-01-01 00:00:00.000000003,0.20309350087849395,-0.31099956140962365,-3.460605224499551,1.5436154805296014
1970-01-01 00:00:00.000000003,0.13829056638373427,0.03682482920739012,-3.262011512933631,1.5155756676442909
1970-01-01 00:00:00.000000003,0.13847278576797328,0.43018778894022114,-2.9887877857774154,1.48322416442608
1970-01-01 00:00:00.000000003,0.28108694737907725,0.7650381218498462,-2.7484660533853265,1.449648201159891
1970-01-01 00:00:00.000000003,0.46774772489222216,0.9971888147846985,-2.44844834184732,1.410003360298793
1970-01-01 00:00:00.000000003,0.5144540309996831,1.1819517618193036,-2.0867472920100187,1.3747131910185533
1970-01-01 00:00:00.000000003,0.5036543768268975,1.3224830151602827,-1.7367542815994093,1.3456058376546656
1970-01-01 00:00:00.000000003,0.4840431478074851,1.4097663828603757,-1.4209415758219681,1.3226999406382298
1970-01-01 00:00:00.000000003,0.47594748171531703,1.4486952295867805,-1.17118235807679,1.3061572467232074
1970-01-01 00:00:00.000000003,0.47685306732516003,1.5734181771577291,-1.082568731076443,1.2933378616920486
1970-01-01 00:00:00.000000003,0.48327147658414893,1.7083181783853778,-0.883450756273712,1.2700664233042873
1970-01-01 00:00:00.000000003,0.41139063001737397,1.8106366990166642,-0.5111376285446194,1.2392984069216442
1970-01-01 00:00:00.000000003,0.26360426252511715,1.9534455396930155,0.10730763019743031,1.196942187837265
1970-01-01 00:00:00.000000003,0.13080696605986647,2.014097237191007,0.9901480083714524,1.1412238088095017
1970-01-01 00:00:00.000000003,-0.05971539593391717,1.9250542222402123,1.874562953607926,1.0953537874242174
1970-01-01 00:00:00.000000003,-0.27937458009110366,1.8569493411405373,2.5176343168882847,1.0592898091188012
1970-01-01 00:00:00.000000003,-0.6085683800560956,1.7665842224847583,2.9055698363062175,1.0408560723425186
1970-01-01 00:00:00.000000003,-1.037604527132428,1.6026728047387893,3.194599402170522,1.0370510625487919
1970-01-01 00:00:00.000000003,-1.4959890535117508,1.3598374117735856,3.4528699286090774,1.04515730241464
1970-01-01 00:00:00.000000003,-1.865960789180296,1.2507791290135484,3.6707304861401857,1.0514166981408408
1970-01-01 00:00:00.000000003,-2.0451528254110714,1.3750940218419228,3.870748147425467,1.038367277266377
1970-01-01 00:00:00.000000003,-2.1527589805710026,1.4312102255374928,4.143920259166563,1.0203293324991576
1970-01-01 00:00:00.000000003,-2.2688129258982914,1.2848028652222485,4.5323196476234004,1.0091242773913713
1970-01-01 00:00:00.000000003,-2.343061906220806,1.047485640885818,5.0177287320876935,0.9964234421191578
1970-01-01 00:00:00.000000003,-2.4009637719743027,0.6101274943421433,5.559174174391823,0.9885054951020014
1970-01-01 00:00:00.000000003,-2.5186631067445155,-0.004475890268720473,6.149541379870559,0.9941711086424896
1970-01-01 00:00:00.000000003,-2.5752113786582953,-0.5534221629172869,6.405997450793515,1.0130475865542583
1970-01-01 00:00:00.000000003,-2.6274475207048464,-0.9603432867334472,6.0399690133188715,1.0670717297158312
1970-01-01 00:00:00.000000003,-2.5466936741631447,-1.202570528556743,5.09644195914514,1.20254394573106
1970-01-01 00:00:00.000000003,-2.3065721342600454,-1.3987304747308258,3.9242943931677354,1.2828196575418434
1970-01-01 00:00:00.000000003,-2.051205398121555,-1.6571296994295814,2.765529246129698,1.3604837405959642
1970-01-01 00:00:00.000000003,-1.845659368396798,-1.8863477384112166,1.702418923790736,1.4285393529570154
1970-01-01 00:00:00.000000003,-1.7586023632248344,-2.015346747914429,0.7086941859790311,1.4898656219535122
1970-01-01 00:00:00.000000003,-1.7461166459911532,-2.0551914012835044,-0.09485284836203453,1.5415298367338712
1970-01-01 00:00:00.000000003,-1.6854750928391384,-2.043786078586439,-0.8386860836002038,1.5833493209659588
1970-01-01 00:00:00.000000003,-1.6318136216453523,-1.9961175153903024,-1.4187562036833705,1.6106913774583058
1970-01-01 00:00:00.000000003,-1.6496334931702952,-1.90263308872266,-1.7689776676217481,1.6249459615885127
1970-01-01 00:00:00.000000003,-1.6941694282908246,-1.77679804215901,-1.9954629841412275,1.6319017663453528
1970-01-01 00:00:00.000000003,-1.7329733889436363,-1.6399751099529456,-2.17758396457378,1.6382150123048103
1970-01-01 00:00:00.000000003,-1.6990446364705347,-1.4853673099194045,-2.2821414426997366,1.6379405254868056
1970-01-01 00:00:00.000000003,-1.6110322604200387,-1.4271019882971798,-2.402394718745297,1.644893788364006
1970-01-01 00:00:00.000000003,-1.4227380559180154,-1.4423029702998356,-2.47843255961859,1.6491495070972295
1970-01-01 00:00:00.000000003,-1.2125637312886317,-1.5154479501300995,-2.515654131288342,1.652647505880694
1970-01-01 00:00:00.000000003,-1.0130898638053965,-1.563134656630537,-2.5325719585843354,1.6548645212150266
1970-01-01 00:00:00.000000003,-0.7959952265704932,-1.5848003287092707,-2.509401300303633,1.6539563600613294
1970-01-01 00:00:00.000000003,-0.5454972300670649,-1.5952972009762008,-2.5900861320701085,1.654008560935749
1970-01-01 00:00:00.000000003,-0.35361265209951914,-1.5980518477210917,-2.782752015662266,1.6653213780821243
1970-01-01 00:00:00.000000003,-0.11182070097026425,-1.4518441708974803,-3.1939597742152666,1.6808015068285669
1970-01-01 00:00:00.000000003,0.20022836738558247,-1.1533580138101567,-3.6307791354491763,1.685576401941096
1970-01-01 00:00:00.000000003,0.5216071252036762,-0.7383691517639159,-4.011623832699698,1.6760887387450707
1970-01-01 00:00:00.000000003,0.7600568454793644,-0.4650306477832915,-4.115485911410406,1.657272323159223
1970-01-01 00:00:00.000000003,0.859831610936046,-0.2673006675455934,-4.0563381045420615,1.6412960003443708
1970-01-01 00:00:00.000000003,0.9716618019146557,-0.059992429369710554,-3.9635479646472582,1.6206889756679734
1970-01-01 00:00:00.000000003,1.045851211127787,0.10759244477376104,-3.7493695707236046,1.598268055852411
1970-01-01 00:00:00.000000003,1.1392073649914771,0.23499537525092967,-3.4994235079003526,1.5734298122880708
1970-01-01 00:00:00.000000003,1.2044299888521248,0.3716034033082907,-3.1007444262789874,1.5395319351836292
1970-01-01 00:00:00.000000003,1.222859715212709,0.5438120224365911,-2.725160493268643,1.5103222889847856
1970-01-01 00:00:00.000000003,1.3104191775525493,0.7854830785450149,-2.5044270159090365,1.484206086422112
1970-01-01 00:00:00.000000003,1.4490545328884377,1.0326904524059701,-2.275909582148179,1.4525757414906046
1970-01-01 00:00:00.000000003,1.5367028976587465,1.265497054344341,-2.026793784163626,1.4245511947035683
1970-01-01 00:00:00.000000003,1.6535805151508924,1.503164479150238,-1.8300881260107211,1.398615322715961
1970-01-01 00:00:00.000000003,1.799338732567198,1.8250672079973211,-1.6304622928406625,1.364060186863758
1970-01-01 00:00:00.000000003,1.8961059195758172,2.1452902521606707,-1.320753665303941,1.3235241809399092
1970-01-01 00:00:00.000000003,1.9331778848781365,2.4938798457875135,-1.1337764249190692,1.2880772869116948
1970-01-01 00:00:00.000000003,1.8891611652148081,2.7288687186956118,-1.0018066729174921,1.2648400432205185
1970-01-01 00:00:00.000000003,1.8108698007565835,2.790480853988419,-0.5600984488589089,1.2383835179878333
1970-01-01 00:00:00.000000003,1.7804631052034625,2.6289902576122803,0.14402447234759275,1.2072652040228358
1970-01-01 00:00:00.000000003,1.7502908515057038,2.245608265553612,1.0021113662544618,1.1820034975905476
1970-01-01 00:00:00.000000003,1.7653422704347024,1.6912694875030647,1.8518189916906334,1.166540149040895
1970-01-01 00:00:00.000000003,1.8276762204049521,0.9899265544334548,2.568260066796857,1.1567135268689823
1970-01-01 00:00:00.000000003,1.7137799114530052,0.355787641843532,3.060242971467839,1.1546395790161603
1970-01-01 00:00:00.000000003,1.3546958547555092,-0.018862357991302092,3.4230980295015185,1.154227316185338
1970-01-01 00:00:00.000000003,0.8798823352103929,0.013457185449864295,3.49193231813179,1.1589007939976776
1970-01-01 00:00:00.000000003,0.5139359717520562,0.14206426260702587,3.3689324575261543,1.1668263621725363
1970-01-01 00:00:00.000000003,0.23086472220836002,0.13579865052171824,3.2827647806563873,1.1798060731940256
1970-01-01 00:00:00.000000003,0.04247003418717915,0.0076326898089556505,3.2488500085258636,1.1919453453469742
1970-01-01 00:00:00.000000003,-0.1363434410206481,-0.2511917039210433,3.364709771300811,1.2021169158843503
1970-01-01 00:00:00.000000003,-0.30666581895461303,-0.6347881464686378,4.003334365804672,1.191106275690263
1970-01-01 00:00:00.000000003,-0.44604540827333794,-1.1939490062457543,4.919457349911963,1.1727661151905375
1970-01-01 00:00:00.000000003,-0.5701279889165687,-1.6917654898675718,5.732083614117485,1.154522709704618
1970-01-01 00:00:00.000000003,-0.734932820558087,-2.0986063015585974,6.231913149880122,1.155334308405314
1970-01-01 00:00:00.000000003,-0.8239486030131211,-2.3350970042026398,5.915079080657486,1.195885608201789
1970-01-01 00:00:00.000000003,-0.7557645494671301,-2.3377946202276885,4.836440219556834,1.2656696476790468
1970-01-01 00:00:00.000000003,-0.5137005539875421,-2.1986882806393226,3.505476308682764,1.3347386833893022
1970-01-01 00:00:00.000000004,-0.23534037606142555,-2.1622520202290043,2.1759570516828237,1.4076860835883673
1970-01-01 00:00:00.000000004,0.05916851011543719,-2.155157053180134,1.0223232991171407,1.4706191288114985
1970-01-01 00:00:00.000000004,0.341183296125274,-2.0837389315161574,0.12002150859844238,1.5131542213917575
1970-01-01 00:00:00.000000004,0.5637101162834317,-1.9806795941911217,-0.40662806339420005,1.5305336952821584
1970-01-01 00:00:00.000000004,0.6690333622201524,-1.9377120035140234,-0.6420811121117126,1.5390280023078415
1970-01-01 00:00:00.000000004,0.745161959696394,-1.8485112688534338,-0.6905287317879315,1.5331299418148605
1970-01-01 00:00:00.000000004,0.7458106817067446,-1.8106755772187433,-0.8407779678524884,1.5377714479545517
1970-01-01 00:00:00.000000004,0.7146349336101245,-1.7565371194431745,-0.9772842036197972,1.5407656925186886
1970-01-01 00:00:00.000000004,0.635172517939428,-1.6558849072425845,-1.0859537893776299,1.5437183335056444
1970-01-01 00:00:00.000000004,0.5872778392287958,-1.5644904972550124,-1.205603230724614,1.5483685339365096
1970-01-01 00:00:00.000000004,0.5862798946321635,-1.557824458868009,-1.4377993804121658,1.5606404855061249
1970-01-01 00:00:00.000000004,0.5694833432744879,-1.532607434759834,-1.6508175829824625,1.5739613751014645
1970-01-01 00:00:00.000000004,0.5954574160900543,-1.4393551324224862,-2.001054212889276,1.5904121324096705
1970-01-01 00:00:00.000000004,0.6590526157424499,-1.3610315222344642,-2.4086965466151784,1.6069901613236477
1970-01-01 00:00:00.000000004,0.685233607464425,-1.2610521887713309,-2.7363087665837766,1.616640345416784
1970-01-01 00:00:00.000000004,0.6393075231118415,-1.1318755280013302,-2.9161381045566843,1.6186755544707947
1970-01-01 00:00:00.000000004,0.5576438482698849,-1.0396081384538904,-2.9894411276359847,1.6184528970566006
1970-01-01 00:00:00.000000004,0.4749179160391843,-0.9224148298151928,-3.033642961176439,1.6155563894471108
1970-01-01 00:00:00.000000004,0.40128573867727374,-0.7781916253083762,-3.0815181828799023,1.609844602214573
1970-01-01 00:00:00.000000004,0.30352625618160545,-0.6027005741489373,-3.181289497218861,1.6071806926595997
1970-01-01 00:00:00.000000004,0.22224383594203334,-0.44567720117918685,-3.264251566495626,1.603955118079532
1970-01-01 00:00:00.000000004,0.143165922373103,-0.2990543987115737,-3.321973339185488,1.602011297416512
1970-01-01 00:00:00.000000004,0.11860672037598265,-0.2042865011908297,-3.2545235286700396,1.595729317960002
1970-01-01 00:00:00.000000004,0.1639436031270609,-0.14379389529506292,-2.9772746967598622,1.576441868600467
1970-01-01 00:00:00.000000004,0.22986497669146602,-0.11990303769810819,-2.5736476497684984,1.5473211112815712
1970-01-01 00:00:00.000000004,0.21712764941565943,-0.04484568695972762,-2.2124694113955115,1.5208449145472454
1970-01-01 00:00:00.000000004,0.18379721871643506,0.11901545869895958,-1.953080488996799,1.4963118933587631
1970-01-01 00:00:00.000000004,0.1498894209278338,0.3307656134287357,-1.6982012499209642,1.4729530906876596
1970-01-01 00:00:00.000000004,0.19053591673255002,0.4722073285352149,-1.487802034210925,1.45484712281755
1970-01-01 00:00:00.000000004,0.29433126527273223,0.5339561711692078,-1.357329759626864,1.4439174824845367
1970-01-01 00:00:00.000000004,0.43512745746690146,0.5787365656315175,-1.2759742031162953,1.4359265198142512
1970-01-01 00:00:00.000000004,0.6021552094722136,0.6714917240326624,-1.2644131013622382,1.4265335186023154
1970-01-01 00:00:00.000000004,0.7446707376140937,0.8618519058961125,-1.3028676110184063,1.411664748045191
1970-01-01 00:00:00.000000004,0.7962409587266485,1.030650698971808,-1.2308714323252758,1.391429985378492
1970-01-01 00:00:00.000000004,0.7292180109071067,1.1562528863769392,-0.9901251417298151,1.368355120159512
1970-01-01 00:00:00.000000004,0.6079841912074158,1.2112588386769596,-0.7294257889083386,1.3481142073509231
1970-01-01 00:00:00.000000004,0.4276446959611204,1.3179927710921575,-0.43411414560417394,1.3218598344577628
1970-01-01 00:00:00.000000004,0.14629256817212086,1.5512810762000198,-0.06492104701556498,1.2897107613486507
1970-01-01 00:00:00.000000004,-0.14056999892712463,1.8026476410158785,0.41729723089147674,1.257256419614582
1970-01-01 00:00:00.000000004,-0.2790133098078089,1.9256813381928861,0.8874223880496197,1.2325630181604912
1970-01-01 00:00:00.000000004,-0.2357627105116229,1.8632598288820252,1.2156185851381756,1.2153307523597865
1970-01-01 00:00:00.000000004,-0.20159786292405873,1.7175193189156106,1.5194646879748748,1.1874269157986816
1970-01-01 00:00:00.000000004,-0.37748931128418584,1.571172840705578,1.6213390490495199,0.9274813760218743
1970-01-01 00:00:00.000000004,-0.8001917757881107,1.544065098007738,1.5966073542348829,0.922301109361569
1970-01-01 00:00:00.000000004,-1.3116162975139902,1.5987579203227156,1.467232630111669,0.9326348462568312
1970-01-01 00:00:00.000000004,-1.788936854272663,1.8003339594368875,1.6966088675113775,0.9145881030010422
1970-01-01 00:00:00.000000004,-2.2224842116540975,2.1292655819148854,2.460213390137051,0.8580636869097896
1970-01-01 00:00:00.000000004,-2.6240141055159425,2.250606516392508,3.5399224303164973,0.7917143623877332
1970-01-01 00:00:00.000000004,-3.0628866355553663,1.89026406889101,4.870845936616617,0.7491909604642212
1970-01-01 00:00:00.000000004,-3.313590209886274,1.1162497335853316,6.052644248252735,0.7439811147638205
1970-01-01 00:00:00.000000004,-3.2274483290306626,-0.04240521230454486,6.7596648159900985,0.775228342638669
1970-01-01 00:00:00.000000004,-3.0046131073117697,-1.1020445495883278,6.867451699699605,0.8241432073969563
1970-01-01 00:00:00.000000004,-2.884588660832727,-1.7649112208449513,6.109417481634364,0.9023378175113118
1970-01-01 00:00:00.000000004,-2.8348042695522633,-2.0729007616363657,4.814477956017188,0.9944486716943609
1970-01-01 00:00:00.000000004,-2.8013504062436674,-2.047536673693278,3.287360000473433,1.0814621425770767
1970-01-01 00:00:00.000000004,-2.7698119612351992,-1.749660565153395,1.9051709196942497,1.1437711955124354
1970-01-01 00:00:00.000000004,-2.769919387858075,-1.5278912550132133,0.8176621617064621,1.1935806213907965
1970-01-01 00:00:00.000000004,-2.801094895978357,-1.5725058665324396,0.10260490005114337,1.2416161904069547
1970-01-01 00:00:00.000000004,-2.76134325618093,-1.7077115786380066,-0.32527429760095833,1.2799252370185745
1970-01-01 00:00:00.000000004,-2.597579314140908,-1.775124467944335,-0.6244286465275778,1.3047606525409539
1970-01-01 00:00:00.000000004,-2.3285810388033736,-1.8238281300660006,-0.8874782328505525,1.3232464620772313
1970-01-01 00:00:00.000000004,-1.985643546487449,-1.7876891787733058,-1.1569377753729322,1.33125284330567
1970-01-01 00:00:00.000000004,-1.681254150004063,-1.709926001845582,-1.3659880072509465,1.3322471568404826
1970-01-01 00:00:00.000000004,-1.450011419172879,-1.6636468773720277,-1.5080724267172616,1.3338995397696898
1970-01-01 00:00:00.000000004,-1.2428727046201637,-1.536700780953319,-1.6801286078692599,1.3326924778839684
1970-01-01 00:00:00.000000004,-1.0705084755419905,-1.369787410571606,-1.8979131879567401,1.3340973155903866
1970-01-01 00:00:00.000000004,-0.8925118336581326,-1.2706419683116494,-2.1366101307943093,1.3426655339218756
1970-01-01 00:00:00.000000004,-0.6541594951758714,-1.235015408689683,-2.338030018336378,1.3482155801504674
1970-01-01 00:00:00.000000004,-0.4457700270173659,-1.260674812118605,-2.426101110096653,1.3510675390289344
1970-01-01 00:00:00.000000004,-0.26748149369096663,-1.3096565381973742,-2.423151973957916,1.3519691086430685
1970-01-01 00:00:00.000000004,-0.09018051437228256,-1.3701936203984109,-2.519144087954886,1.3597696478430474
1970-01-01 00:00:00.000000004,0.1003964830639412,-1.3991963960680176,-2.8073635843323324,1.3759993543078455
1970-01-01 00:00:00.000000004,0.298122211429546,-1.2910432558500504,-3.16260687143004,1.3870918907537768
1970-01-01 00:00:00.000000004,0.47349411375579353,-1.120707264317565,-3.4947576967129352,1.3915590983069674
1970-01-01 00:00:00.000000004,0.5820477848123539,-0.9872678503053328,-3.7150659094003844,1.3936019486501015
1970-01-01 00:00:00.000000004,0.6516173192166818,-0.8546189395955403,-3.88111610276646,1.3944124242736562
1970-01-01 00:00:00.000000004,0.7211598576358351,-0.6857046643572313,-3.9233300108770393,1.385085515852563
1970-01-01 00:00:00.000000004,0.7640673035717931,-0.5195798123369505,-3.9089670052008714,1.3705368441552792
1970-01-01 00:00:00.000000004,0.7304525544308216,-0.3352186663852955,-3.861047527191323,1.3549540333921024
1970-01-01 00:00:00.000000004,0.6510665617012583,-0.13871504118491038,-3.6967070900836974,1.3336443510095828
1970-01-01 00:00:00.000000004,0.5415776128157619,0.025267362993432574,-3.5146890964677264,1.316611407164394
1970-01-01 00:00:00.000000004,0.47818592448832364,0.17798223232525281,-3.342850124227267,1.299725187443673
1970-01-01 00:00:00.000000004,0.44523850285051936,0.30966073628787993,-3.212856431169042,1.2831896350111647
1970-01-01 00:00:00.000000004,0.3806721685843828,0.374051261780566,-2.9630799030038038,1.2654017268878053
1970-01-01 00:00:00.000000004,0.3149969111803974,0.42471130615145336,-2.6553129755696006,1.2454581200205832
1970-01-01 00:00:00.000000004,0.2578298273456394,0.4752823942527779,-2.3482420474312744,1.2219090583090206
1970-01-01 00:00:00.000000004,0.14176692611878974,0.6171815141933107,-1.7879541295550452,1.1831677845396917
1970-01-01 00:00:00.000000004,0.03420721434898004,0.8864616681137172,-1.3536762714078396,1.1492774581067202
1970-01-01 00:00:00.000000004,0.051688895385476545,1.1204773422324226,-1.20811138110127,1.1283305563940673
1970-01-01 00:00:00.000000004,0.1231512973851806,1.4172896241576822,-0.9644679663304553,1.0943237712260592
1970-01-01 00:00:00.000000004,0.1551912063133414,1.6840315232940612,-0.6698346965519821,1.0589134346755242
1970-01-01 00:00:00.000000004,0.14069304467939844,1.8531475747896846,-0.3194827705653504,1.025738189717751
1970-01-01 00:00:00.000000004,0.0704348167198012,1.9765583960573088,0.1694052913173412,0.9894362424305458
1970-01-01 00:00:00.000000004,-0.03111974078163615,2.05562065350295,0.685117170878928,0.958545045349311
1970-01-01 00:00:00.000000004,-0.07171704258960843,2.0890849646324545,1.1426440385237817,0.9329788528078464
1970-01-01 00:00:00.000000004,-0.04779673404336848,2.046635870815832,1.6132343485058533,0.9066596144020633
1970-01-01 00:00:00.000000004,-0.043303430822945466,1.7758185375448055,2.270418361283819,0.8803788808944178
1970-01-01 00:00:00.000000005,-0.12021470915306381,1.4212168155559914,2.958813578819333,0.8621354971062165
1970-01-01 00:00:00.000000005,-0.18643751016840232,1.0729182584726873,3.5934310428439464,0.8509754716760556
1970-01-01 00:00:00.000000005,-0.14149060051290918,0.7933626485973944,4.059611063358171,0.8378018782351262
1970-01-01 00:00:00.000000005,-0.14274652608193705,0.4360458872269192,4.354240301396621,0.8356610289391972
1970-01-01 00:00:00.000000005,-0.26971145645739614,-0.1264715783070104,4.648529189514264,0.8465111729838138
1970-01-01 00:00:00.000000005,-0.5245245071325513,-0.7385916025221118,5.018234714482663,0.8601406953147097
1970-01-01 00:00:00.000000005,-0.8444728636551972,-1.308302441223689,5.601007350083985,0.8623000037766586
1970-01-01 00:00:00.000000005,-1.1967564595794513,-1.8638350391006995,6.18070300920181,0.871511832768916
1970-01-01 00:00:00.000000005,-1.4179933646462421,-2.2648002841457293,6.5284172287142646,0.8967759660303766
1970-01-01 00:00:00.000000005,-1.2120212373743677,-2.4315548721158797,6.440779926801373,0.923470165466196
1970-01-01 00:00:00.000000005,-0.7055381476478699,-2.44957257549198,5.810249482413705,0.9523403437447368
1970-01-01 00:00:00.000000005,-0.290032221230036,-2.464996181169341,4.677864583367037,1.0094407553369578
1970-01-01 00:00:00.000000005,0.022870440826515445,-2.307974504406167,3.289444080170296,1.0777230167240626
1970-01-01 00:00:00.000000005,0.3447951011777626,-2.0319065881841945,1.9555344308438738,1.1353027005226006
1970-01-01 00:00:00.000000005,0.64383997927666,-1.9172344907647039,0.8962544384166332,1.189531937885457
1970-01-01 00:00:00.000000005,1.0038730875353383,-1.9697109181735681,0.2570491506944869,1.2235865213709558
1970-01-01 00:00:00.000000005,1.3121928380245513,-2.100809586705796,-0.041776656449644525,1.2392680070431599
1970-01-01 00:00:00.000000005,1.4905251326170468,-2.226069232134603,-0.10894018408657374,1.2405415142396439
1970-01-01 00:00:00.000000005,1.4896913771180234,-2.245941403952398,-0.14249003691174777,1.2402843091002982
1970-01-01 00:00:00.000000005,1.417057353131834,-2.151564389508797,-0.2255065274592563,1.2377322712367222
1970-01-01 00:00:00.000000005,1.280981167535619,-2.013126568211525,-0.36301565991459755,1.2394707135617316
1970-01-01 00:00:00.000000005,1.1477465092020558,-1.91143331397953,-0.5344966520119949,1.247209787849877
1970-01-01 00:00:00.000000005,1.065942161645964,-1.7567085632865376,-0.7295295984600284,1.2518710590311541
1970-01-01 00:00:00.000000005,1.0129094118480444,-1.5478710994814056,-0.9409757111332018,1.252948755963845
1970-01-01 00:00:00.000000005,0.9590528794389286,-1.331854562508543,-1.2228580419335766,1.2595150668924775
1970-01-01 00:00:00.000000005,0.9520948941748536,-1.1261374052310973,-1.5401267380552026,1.267835887848194
1970-01-01 00:00:00.000000005,0.9829103808681285,-0.9982391153062113,-1.7849476221320277,1.2754833231305938
1970-01-01 00:00:00.000000005,1.0360741008591703,-0.9395543283117365,-2.0166946797847083,1.2847913710996395
1970-01-01 00:00:00.000000005,1.0822545894795783,-0.9632329809160733,-2.259313963860517,1.2981916194512428
1970-01-01 00:00:00.000000005,1.0952663801478082,-1.00008525550136,-2.4171314435283815,1.31184640970176
1970-01-01 00:00:00.000000005,1.1628014427176232,-1.067958517175785,-2.5321246109609126,1.3205849976381385
1970-01-01 00:00:00.000000005,1.2023797428496217,-1.0794677883606294,-2.694906132531981,1.3270886011091905
1970-01-01 00:00:00.000000005,1.1720554948576016,-0.9845378038269521,-2.887207002668325,1.3317543517411612
1970-01-01 00:00:00.000000005,1.1158106905175647,-0.7816487940533717,-3.0382788185990286,1.3294961715129268
1970-01-01 00:00:00.000000005,1.0604892164873898,-0.5899005837512219,-3.1162420476425963,1.3225344856676948
1970-01-01 00:00:00.000000005,0.9807302683043793,-0.43558157147294774,-3.140171071994458,1.3168334919683968
1970-01-01 00:00:00.000000005,0.9263324191901382,-0.3226470203437361,-3.0702220705331644,1.3079377778505865
1970-01-01 00:00:00.000000005,0.8992377933034175,-0.20726184931962538,-2.9371987039126632,1.2939257931827262
1970-01-01 00:00:00.000000005,0.8749410129224239,-0.10094306521519938,-2.8116630890378196,1.278351638850913
1970-01-01 00:00:00.000000005,0.8020280822826452,0.0449596170023808,-2.664544171615316,1.2625421389820695
1970-01-01 00:00:00.000000005,0.7485955750948053,0.2635778093978008,-2.432304459457365,1.236824353480245
1970-01-01 00:00:00.000000005,0.6970464491948615,0.41482481509213603,-2.164492655379618,1.2027121380354309
1970-01-01 00:00:00.000000005,0.4694303180420446,0.5844952643659697,-1.8611941695162262,1.1120195944494518
1970-01-01 00:00:00.000000005,0.1947364130269465,0.8488544602749868,-1.6054427840725463,1.0861384916661794
1970-01-01 00:00:00.000000005,0.0004923287105558921,1.1521275360002519,-1.4182086275009234,1.0632864955594605
1970-01-01 00:00:00.000000005,-0.11792251427376979,1.4007344073042887,-1.2940447628799172,1.0467567260921942
1970-01-01 00:00:00.000000005,-0.1573064417515507,1.4801817114603044,-1.2085197200120859,1.0436398012550154
1970-01-01 00:00:00.000000005,-0.061211375087843134,1.4477298014258586,-1.2024296781445016,1.047090349175607
1970-01-01 00:00:00.000000005,0.10664177924118358,1.3966022533653775,-1.219002263561951,1.0478933948943492
1970-01-01 00:00:00.000000005,0.2509768385452901,1.275850486614852,-1.1953119908526533,1.0433652022278261
1970-01-01 00:00:00.000000005,0.2055894730175959,1.1900844847340477,-1.1656978899612114,1.0437051068358987
1970-01-01 00:00:00.000000005,0.0924024909772564,1.2286238064216861,-1.1563378328827876,1.040880329639169
1970-01-01 00:00:00.000000005,-0.04587141153260364,1.4213934048345156,-1.1167884816909872,1.030713351685212
1970-01-01 00:00:00.000000005,-0.14924837748720393,1.597667791601889,-1.0482815052822032,1.0190642754336812
1970-01-01 00:00:00.000000005,-0.22136979880187288,1.706889377823046,-0.945559751521917,1.0072889365112638
1970-01-01 00:00:00.000000005,-0.2913561789989133,1.7668468885228334,-0.7033303069071171,0.9882529313533552
1970-01-01 00:00:00.000000005,-0.4089923529046725,1.7560815088066577,-0.28625363845698015,0.9656595486230386
1970-01-01 00:00:00.000000005,-0.5367517934458214,1.730287353207528,0.05741557251930815,0.9495028274998131
1970-01-01 00:00:00.000000005,-0.642954198615841,1.6987489118245387,0.32354598050631006,0.9400031199804086
1970-01-01 00:00:00.000000005,-0.6774099658271967,1.6015795053126891,0.6439721404086802,0.9282420933093345
1970-01-01 00:00:00.000000005,-0.691892496797392,1.553912744160462,0.8237168230705532,0.9145628539946166
1970-01-01 00:00:00.000000005,-0.840419355951456,1.4617861349779608,0.9541036304543871,0.9046909545839131
1970-01-01 00:00:00.000000005,-1.1838291551672382,1.2635462585301904,1.2863145574835917,0.893340720137195
1970-01-01 00:00:00.000000005,-1.68264289340385,1.0317722563295675,1.9041988325949906,0.8753323421932552
1970-01-01 00:00:00.000000005,-2.2008288453510696,0.9154586608449836,2.698207921058034,0.84380095963801
1970-01-01 00:00:00.000000005,-2.6890026572308243,0.8163133195821665,3.328116769069203,0.8200097432108293
1970-01-01 00:00:00.000000005,-3.147735637589344,0.6080938695516274,3.8940377454884882,0.8115694508128588
1970-01-01 00:00:00.000000005,-3.4450228701767704,0.28585486477360744,4.494536065581851,0.8080135772787396
1970-01-01 00:00:00.000000005,-3.5474530997596134,-0.1136643644176652,4.984784181468006,0.8131597340401562
1970-01-01 00:00:00.000000005,-3.463563193043059,-0.6934705579063842,5.255958980198586,0.8406358300302234
1970-01-01 00:00:00.000000005,-3.1581815461530143,-1.3880449553868792,5.148104027561722,0.8880178625242019
1970-01-01 00:00:00.000000005,-2.770233042814057,-1.9980969291771713,4.528496072330179,0.9535072085659232
1970-01-01 00:00:00.000000005,-2.4203584665047275,-2.4233153949551607,3.5085466627946573,1.0259479482777796
1970-01-01 00:00:00.000000005,-2.244080143347294,-2.6105681817733535,2.273114375964437,1.0999523898534775
1970-01-01 00:00:00.000000005,-2.218925689937083,-2.602172719101124,1.0753942820693971,1.1646338136708558
1970-01-01 00:00:00.000000005,-2.2967295243393395,-2.5568391710739067,0.10378730279238603,1.2184310842231991
1970-01-01 00:00:00.000000005,-2.402674778757539,-2.441825478326318,-0.5324776851069635,1.2556793240040145
1970-01-01 00:00:00.000000005,-2.393155747617835,-2.314315427978762,-0.9225514849224877,1.275058421723604
1970-01-01 00:00:00.000000005,-2.2972370281353016,-2.2210240396203997,-1.0527453703204313,1.276579542093569
1970-01-01 00:00:00.000000005,-2.1929669458990784,-2.115451588593139,-0.9636914605503071,1.2624857100621076
1970-01-01 00:00:00.000000005,-2.129052802826926,-1.9936848636877234,-0.8144400758312226,1.245033060370445
1970-01-01 00:00:00.000000005,-2.0878858244147094,-1.8675441590743262,-0.6796950149915781,1.2319169339214924
1970-01-01 00:00:00.000000005,-1.988113292651993,-1.7572534513197617,-0.6145713489420574,1.2214925775896468
1970-01-01 00:00:00.000000005,-1.8709888834906012,-1.6386873121675425,-0.7241196920522635,1.2200088174711468
1970-01-01 00:00:00.000000005,-1.743690015094424,-1.5121819162116925,-0.9615382754768085,1.2258819972040491
1970-01-01 00:00:00.000000005,-1.5925699266498845,-1.36914791436015,-1.1663372346335588,1.2318960603066653
1970-01-01 00:00:00.000000005,-1.3523042454585836,-1.2850514877925276,-1.3598067759094439,1.2370863568762116
1970-01-01 00:00:00.000000005,-1.0800263624063502,-1.2852531861146523,-1.5064566449979597,1.2434390873550178
1970-01-01 00:00:00.000000005,-0.7879432816991512,-1.2840238596194296,-1.6817619613518244,1.2505441214733781
1970-01-01 00:00:00.000000005,-0.4879291603451906,-1.1801702639610836,-1.9478955518524135,1.2564873941555479
1970-01-01 00:00:00.000000005,-0.19311253269651393,-1.0214278912959787,-2.352272562629497,1.265775338840765
1970-01-01 00:00:00.000000005,0.06864647064943472,-0.8249859786946225,-2.740066816808339,1.2748580189612624
1970-01-01 00:00:00.000000005,0.35421694126804404,-0.6624893594356535,-3.038827317172402,1.2781097892169844
1970-01-01 00:00:00.000000005,0.6052594149725511,-0.5470556189275863,-3.2930996397060177,1.2812918391182766
1970-01-01 00:00:00.000000005,0.8186657472510421,-0.42936757863444047,-3.4462181819153392,1.2774290820317113
1970-01-01 00:00:00.000000005,0.9596603979751273,-0.2716471797193157,-3.480569447525278,1.2655296423013316
1970-01-01 00:00:00.000000005,1.0335755873567312,-0.07924094411009217,-3.453291571590217,1.2497510318616711
1970-01-01 00:00:00.000000005,1.0655651913485038,0.10159399408769695,-3.288850680069709,1.2292149653851845
1970-01-01 00:00:00.000000005,1.098674711075999,0.3070587788422458,-3.110896795927604,1.205847469983087
1970-01-01 00:00:00.000000005,1.1216949738572393,0.5085567033043813,-2.8857991413241257,1.1802448348901213
1970-01-01 00:00:00.000000006,1.1369625419140084,0.6361507428431303,-2.5935014873566953,1.154956046597768
1970-01-01 00:00:00.000000006,1.142478639815831,0.7624181929537807,-2.2938361778129988,1.1304877048237367
1970-01-01 00:00:00.000000006,1.15569493586734,0.912642542047481,-2.1265732384557388,1.1137285008621343
1970-01-01 00:00:00.000000006,1.2158441250818277,1.0072144269396373,-1.9953572758805005,1.1004802451458016
1970-01-01 00:00:00.000000006,1.293681590779566,0.9887356490916623,-1.7914845465488443,1.087841223923921
1970-01-01 00:00:00.000000006,1.353067505048551,0.9621091956595301,-1.601264383814018,1.0767083400048112
1970-01-01 00:00:00.000000006,1.4023661353625123,1.0306833960547712,-1.4001830540905391,1.057769160625564
1970-01-01 00:00:00.000000006,1.3906038070175502,1.1416907063034762,-1.1783298681463572,1.0404216474500654
1970-01-01 00:00:00.000000006,1.4253537429214138,1.250917222651215,-0.958771837348955,1.0215813111188248
1970-01-01 00:00:00.000000006,1.4749497830413325,1.3149769777460516,-0.7766070678086923,1.00619086730541
1970-01-01 00:00:00.000000006,1.5121902902133302,1.3264634315538573,-0.6866167384240394,1.0005888032693628
1970-01-01 00:00:00.000000006,1.572761984459785,1.2046018716946447,-0.5569786721538237,0.9967874605343974
1970-01-01 00:00:00.000000006,1.5802085141790458,0.994278606158463,-0.3053159077722991,0.991178575196759
1970-01-01 00:00:00.000000006,1.524458552356542,0.824435038427831,-0.003036293854303221,0.9805630557025076
1970-01-01 00:00:00.000000006,1.4041179866661846,0.7024184583768659,0.41028700069003665,0.9529893978353243
1970-01-01 00:00:00.000000006,1.0137748214720455,0.539205322753896,0.9791272974915998,0.9305071129380993
1970-01-01 00:00:00.000000006,0.5420513987623023,0.45751738992095764,1.3775421655257274,0.9291092275163555
1970-01-01 00:00:00.000000006,0.34202505551330964,0.5459731288966405,1.4467200954877666,0.9196653958687387
1970-01-01 00:00:00.000000006,0.07288965666468908,0.7712809564759009,1.1714242788315357,0.9213947692076147
1970-01-01 00:00:00.000000006,-0.26978181329675144,0.8239020625114765,1.3520247995224912,0.9102971813761478
1970-01-01 00:00:00.000000006,-0.6308759672823202,0.9073293882929173,1.766499965234623,0.8718982269877354
1970-01-01 00:00:00.000000006,-1.2987259128582842,0.8451045882230672,2.764587428638208,0.8340825561990214
1970-01-01 00:00:00.000000006,-1.8012840310698834,-0.05635941191321725,4.035506702353956,0.8384913268232713
1970-01-01 00:00:00.000000006,-1.8452380252917964,-1.1045862537277344,4.9563159910708965,0.8494201662620113
1970-01-01 00:00:00.000000006,-1.8311602649578254,-2.0232095239599244,5.529284971335907,0.8721275191071882
1970-01-01 00:00:00.000000006,-1.7635594005732464,-2.594259964361559,5.51218916382743,0.9078482205412417
1970-01-01 00:00:00.000000006,-1.6539862088929713,-2.73746464401152,4.83416732179539,0.9561337473775346
1970-01-01 00:00:00.000000006,-1.518425635888837,-2.737493138104001,3.8401208104936084,1.0195696865781556
1970-01-01 00:00:00.000000006,-1.2282307318272998,-2.6983207974207133,2.8256238489078265,1.0807915196889268
1970-01-01 00:00:00.000000006,-0.776217972317943,-2.6789294998270483,1.8899620024459065,1.132054679531556
1970-01-01 00:00:00.000000006,-0.2661102388754263,-2.7262627839524693,1.1098631310887657,1.1732121837006857
1970-01-01 00:00:00.000000006,0.21239201258885895,-2.8023723420895847,0.4541358617508284,1.2044820472674926
1970-01-01 00:00:00.000000006,0.5642216104534813,-2.8460471432578336,-0.006451554607909693,1.2215608438105707
1970-01-01 00:00:00.000000006,0.7353304332134972,-2.874133026317366,-0.21156033660989837,1.226442677252899
1970-01-01 00:00:00.000000006,0.7582619730311081,-2.9566923000149563,-0.15682526656322826,1.223258151394303
1970-01-01 00:00:00.000000006,0.6822744318901092,-3.0753868695147006,0.10845034397448788,1.2147140570455006
1970-01-01 00:00:00.000000006,0.5872100796383856,-3.231995038086707,0.43174269266970483,1.202793969709996
1970-01-01 00:00:00.000000006,0.4222882433326257,-3.2925348984408274,0.6945466184931337,1.1886818275904623
1970-01-01 00:00:00.000000006,0.16108862995247897,-3.157957485990233,0.8295057404703248,1.182119551138387
1970-01-01 00:00:00.000000006,-0.09302314687770932,-2.893618200261729,0.7808073972393572,1.1780537562861448
1970-01-01 00:00:00.000000006,-0.23351392381235456,-2.531911790243434,0.44011611582534527,1.183962679526977
1970-01-01 00:00:00.000000006,-0.2550055861430025,-2.1805551420615976,-0.11022727570563418,1.197192265298047
1970-01-01 00:00:00.000000006,-0.24726719208982012,-1.8887179312890456,-0.7118934457468276,1.2153962777573408
1970-01-01 00:00:00.000000006,-0.2335934041445326,-1.5705661842965664,-1.36663294101261,1.233578732702641
1970-01-01 00:00:00.000000006,-0.2459136731132009,-1.2324596634748082,-1.9030865803501908,1.2461475665638508
1970-01-01 00:00:00.000000006,-0.2449465915291435,-0.9820831046242282,-2.2929431035435286,1.2569758695267725
1970-01-01 00:00:00.000000006,-0.1862253957317417,-0.8326340706202228,-2.5552271245659437,1.264159681524558
1970-01-01 00:00:00.000000006,-0.09575204127104014,-0.7341431193137478,-2.6832955769289013,1.261037894550777
1970-01-01 00:00:00.000000006,-0.09487851540430922,-0.6352692536477562,-2.789792555311184,1.2586330486560429
1970-01-01 00:00:00.000000006,-0.1459076484749971,-0.5147053533539717,-2.7376820406513254,1.2462844750905293
1970-01-01 00:00:00.000000006,-0.26178879933199617,-0.293032293394369,-2.6588795487594985,1.2305994524097768
1970-01-01 00:00:00.000000006,-0.37054194814390634,-0.02897871492650475,-2.6838779224876266,1.2188972734473738
1970-01-01 00:00:00.000000006,-0.4533993089249768,0.16738061021160644,-2.6490507385735977,1.2072092306085653
1970-01-01 00:00:00.000000006,-0.524816059339989,0.2574767734134004,-2.6312704362259858,1.2057822158638158
1970-01-01 00:00:00.000000006,-0.5030901497701059,0.2712432966209737,-2.65850001485728,1.2064703024916383
1970-01-01 00:00:00.000000006,-0.4750096238831804,0.28173293797335963,-2.682589262300074,1.2053653341373378
1970-01-01 00:00:00.000000006,-0.48318623009388706,0.33227469542219423,-2.77468140048229,1.205931066085339
1970-01-01 00:00:00.000000006,-0.5280296618616557,0.4157136875012204,-2.7577787016464472,1.2016119793485496
1970-01-01 00:00:00.000000006,-0.5477616290362871,0.4725410324172536,-2.604797378665318,1.1889472217383863
1970-01-01 00:00:00.000000006,-0.5878727625727592,0.5004052192772274,-2.4142394908045532,1.1782827192068717
1970-01-01 00:00:00.000000006,-0.5901916662320943,0.4604258087072792,-2.157642952418231,1.1675207975929636
1970-01-01 00:00:00.000000006,-0.5518413404591367,0.37283524752073655,-1.90037659278622,1.1573311276110252
1970-01-01 00:00:00.000000006,-0.5105523282552434,0.3050213589700959,-1.7036295681922096,1.150123812628621
1970-01-01 00:00:00.000000006,-0.44589995588812953,0.23526260681653727,-1.4751005862587585,1.1393416556128437
1970-01-01 00:00:00.000000006,-0.3985468692343439,0.1922688570234844,-1.2288864288472026,1.1281094009716448
1970-01-01 00:00:00.000000006,-0.32726425110275686,0.13564945377516646,-1.025180071658085,1.1200737716856128
1970-01-01 00:00:00.000000006,-0.22112296021745104,0.09555958282993267,-0.8256823179971727,1.1099843025702425
1970-01-01 00:00:00.000000006,-0.10458943668219975,0.07283093538477947,-0.6398708615138078,1.0986827305691222
1970-01-01 00:00:00.000000006,-0.0009543528409162935,0.038499457747233685,-0.5332071576875171,1.0928818880905915
1970-01-01 00:00:00.000000006,0.0990128561379228,0.024948484715643218,-0.44842833512403896,1.088230988908386
1970-01-01 00:00:00.000000006,0.21626349902632278,0.05683052741406113,-0.4026369928225978,1.0818843903811892
1970-01-01 00:00:00.000000006,0.3241306393018757,0.09072917176970305,-0.3415170547803964,1.0747096477958535
1970-01-01 00:00:00.000000006,0.42370202012254965,0.15513837427752453,-0.3060422223385057,1.0683660441228684
1970-01-01 00:00:00.000000006,0.540358415938023,0.2659171198508865,-0.25371276223181516,1.0598924097554452
1970-01-01 00:00:00.000000006,0.7126166622098868,0.40070566410042757,-0.16812055551647898,1.0456195017846026
1970-01-01 00:00:00.000000006,0.8969465734632237,0.5394035835970397,-0.049274463976724386,1.0289105912716272
1970-01-01 00:00:00.000000006,1.0837860071983318,0.5795412484081888,0.004060183533469708,1.0221252980443005
1970-01-01 00:00:00.000000006,1.2867543886037758,0.4478569287342882,-0.0014537753094637784,1.0289279413410577
1970-01-01 00:00:00.000000006,1.5258946165605134,0.16675768879076597,0.11084974448415445,1.0338996596438492
1970-01-01 00:00:00.000000006,1.7216342732913914,-0.16822453329970236,0.2715716744654948,1.0343463472331547
1970-01-01 00:00:00.000000006,1.7451381667132877,-0.4267903087051478,0.2536152452617917,1.0462901749353395
1970-01-01 00:00:00.000000006,1.7111214160854316,-0.40679492829180364,0.274358821050377,1.0346159295749413
1970-01-01 00:00:00.000000006,1.4381418326037745,-0.2750718956330167,-0.06432621736107867,1.0407494632350214
1970-01-01 00:00:00.000000006,0.9733078694044519,-0.3972623793255543,-0.13828281532542747,1.05931213235113
1970-01-01 00:00:00.000000006,0.5760085507973403,-0.5843329087740847,0.4473696409573785,1.0481662277347592
1970-01-01 00:00:00.000000006,0.3417359626815533,-0.7357822265221051,1.361207052227322,1.0059286276464576
1970-01-01 00:00:00.000000006,0.08514526163009001,-0.8090773495301321,2.2779306269729247,0.9554252566186283
1970-01-01 00:00:00.000000006,-0.268161101501207,-0.6082728245947834,2.8939532622382615,0.9123953673595655
1970-01-01 00:00:00.000000006,-0.6282044114858629,-0.2572938704648701,2.7158024975242574,0.9070533862602052
1970-01-01 00:00:00.000000006,-0.9779452878005277,-0.09525760163261837,1.9261182472408285,0.9422588180964508
1970-01-01 00:00:00.000000006,-1.4366560602763039,-0.21853946876128125,1.1355120828325738,1.0008652873048833
1970-01-01 00:00:00.000000006,-1.876950911214325,-0.45969444182989666,0.8283216023307027,1.0475262323338483
1970-01-01 00:00:00.000000006,-2.098050371718501,-0.7913878554284416,1.1309937853138694,1.0549742710329295
1970-01-01 00:00:00.000000006,-2.258592657903369,-1.1841025299540742,1.9321857259277289,1.0312628904456307
1970-01-01 00:00:00.000000006,-2.4755617535656262,-1.5847558723870356,2.882645395679356,1.0045570320500585
1970-01-01 00:00:00.000000006,-2.6305160635449365,-1.8383817802559959,3.6651642016547203,0.9785098992522323
1970-01-01 00:00:00.000000007,-2.725246745426267,-1.874392407261795,4.003947836261161,0.9631787151297266
1970-01-01 00:00:00.000000007,-2.8027803653131946,-1.6954649524303862,3.7661756407786484,0.9728723527388535
1970-01-01 00:00:00.000000007,-2.766203279758227,-1.3218015434871602,3.014154229633761,1.006543253797179
1970-01-01 00:00:00.000000007,-2.463257385846844,-0.7710774636749439,1.8380878173809394,1.0467034379394493
1970-01-01 00:00:00.000000007,-2.006130603322688,-0.28667918990658287,0.5748276254813709,1.0858690365041483
1970-01-01 00:00:00.000000007,-1.5683270572531074,0.003480400987506139,-0.3450008645936206,1.1153102925692784
1970-01-01 00:00:00.000000007,-1.1821533351217723,0.11750916690374372,-0.9029918191746342,1.1351766933072789
1970-01-01 00:00:00.000000007,-0.8345422764654882,0.16270708472122514,-1.292338273813848,1.1487090861413192
1970-01-01 00:00:00.000000007,-0.5449349329905855,0.18376181340446482,-1.581961880964129,1.1589570054498826
1970-01-01 00:00:00.000000007,-0.2988728245000011,0.1984809187046918,-1.771013470712284,1.163557782617288
1970-01-01 00:00:00.000000007,-0.11664003672795761,0.21631059004408287,-1.944314229845663,1.1689994037451794
1970-01-01 00:00:00.000000007,0.037820257277231664,0.2902931062878235,-2.077082641318328,1.168622892411263
1970-01-01 00:00:00.000000007,0.13744651245063652,0.2942525570001272,-2.2142678084762313,1.1772766487383204
1970-01-01 00:00:00.000000007,0.28338358253409157,0.355939995231623,-2.5067341250238813,1.19006936614584
1970-01-01 00:00:00.000000007,0.4539638790812714,0.44201504001217523,-2.841665841410066,1.2012926430642852
1970-01-01 00:00:00.000000007,0.590412703240801,0.42926139445558575,-3.1174482836893924,1.2164359860547698
1970-01-01 00:00:00.000000007,0.7246790365753063,0.3674048474757704,-3.3600755810163667,1.232649897708064
1970-01-01 00:00:00.000000007,0.8621006238934552,0.29803484583158135,-3.547227045311159,1.2432852906107434
1970-01-01 00:00:00.000000007,0.9390146685761558,0.22155668305298187,-3.623033949308879,1.2488823219644485
1970-01-01 00:00:00.000000007,0.960128545290341,0.09075581416728058,-3.617929368460166,1.2541063001041663
1970-01-01 00:00:00.000000007,0.9449759192487306,-0.0005128976776979377,-3.5404221962568476,1.253433263813201
1970-01-01 00:00:00.000000007,0.892126493182664,-0.06411888035420771,-3.4329847593638614,1.2498856740695623
1970-01-01 00:00:00.000000007,0.806686073613279,-0.10308735898996889,-3.272556793671498,1.2418981290672984
1970-01-01 00:00:00.000000007,0.6769967465885735,-0.13587646146594123,-3.0926853188575745,1.2355358417629296
1970-01-01 00:00:00.000000007,0.5651455957087249,-0.07527388712578571,-2.9896436020183725,1.2286814921028482
1970-01-01 00:00:00.000000007,0.483669415730337,0.015694418646783087,-2.965479026061431,1.2218860346974532
1970-01-01 00:00:00.000000007,0.37752189817894943,0.0857549293150798,-2.991558362914083,1.219781863560958
1970-01-01 00:00:00.000000007,0.26249973259810033,0.1798113004353385,-2.9264741450438456,1.213155589129807
1970-01-01 00:00:00.000000007,0.1810237539160825,0.3095615120328066,-2.7328322236759846,1.1966390526440063
1970-01-01 00:00:00.000000007,0.1302180108469978,0.38397200323891784,-2.4043734154192187,1.17252999115328
1970-01-01 00:00:00.000000007,0.057582533390276525,0.3658266483935735,-1.8771059196673137,1.14062346157657
1970-01-01 00:00:00.000000007,-0.07597853339504171,0.34969921476901983,-1.1711347042168057,1.1014638629019766
1970-01-01 00:00:00.000000007,-0.21286960451807987,0.4103986151876868,-0.40918462936871886,1.0540559817009407
1970-01-01 00:00:00.000000007,-0.380172421206013,0.5205749538452185,0.16266126980809026,1.0183678816765294
1970-01-01 00:00:00.000000007,-0.5000593721012199,0.581946104028518,0.4878598795824593,0.9995064690670807
1970-01-01 00:00:00.000000007,-0.5630904584773188,0.594263998376003,0.6618496223694754,0.991409606692263
1970-01-01 00:00:00.000000007,-0.578018419538371,0.5638661072138274,0.7327641794836766,0.9900458468207702
1970-01-01 00:00:00.000000007,-0.5733812278779744,0.5128161755198692,0.7554785028122445,0.993332216697369
1970-01-01 00:00:00.000000007,-0.5265908765579287,0.5745610592406613,0.7075458238649007,0.9931231115325704
1970-01-01 00:00:00.000000007,-0.45751204598206074,0.8006747099929276,0.3986010275550049,0.9921427608033824
1970-01-01 00:00:00.000000007,-0.49944687739294324,0.8733931235775023,0.1344189331293592,0.9952771232742966
1970-01-01 00:00:00.000000007,-0.644527397835388,0.6825780095028366,0.13234854984095498,0.9027866306123155
1970-01-01 00:00:00.000000007,-0.7695554400975344,0.4422959333652085,0.5750747129425579,0.8901788578213572
1970-01-01 00:00:00.000000007,-0.8591008953191809,0.3584919512262249,1.2437484594765635,0.8552564446297356
1970-01-01 00:00:00.000000007,-1.011731380757863,0.4952077218789597,1.514354665060634,0.8341002735145112
1970-01-01 00:00:00.000000007,-1.1550959524952875,0.31387045605330577,1.5705814137082772,0.8413390110067435
1970-01-01 00:00:00.000000007,-1.2966912359138902,0.05026287734373905,1.9623117908462804,0.8271554636479953
1970-01-01 00:00:00.000000007,-1.6155282604577519,-0.030667123538817398,3.0879425833747347,0.7920983059195279
1970-01-01 00:00:00.000000007,-1.4571779771467779,-0.19695522303603913,4.468457950127271,0.7399529402319989
1970-01-01 00:00:00.000000007,-0.9050525849131579,-0.6099462436390126,4.987599724856857,0.7379428893366329
1970-01-01 00:00:00.000000007,-0.12065166060256963,-1.5501740177553027,4.918153958469849,0.7800585635160854
1970-01-01 00:00:00.000000007,0.5107733432576733,-2.2229403800495833,4.074369009533554,0.8445843354990514
1970-01-01 00:00:00.000000007,0.8031786120961275,-2.468256636345941,3.3407689061736336,0.8988122563927988
1970-01-01 00:00:00.000000007,1.116129522174474,-2.2966715561391426,2.4997087023061964,0.9207979864551575
1970-01-01 00:00:00.000000007,1.1397615942038561,-1.5951385491792107,1.8481028863253623,0.9086043623251128
1970-01-01 00:00:00.000000007,0.942122951322054,-1.1076763470722468,1.5634621531058106,0.9000468751470898
1970-01-01 00:00:00.000000007,0.7655880671844348,-0.6824663898143419,1.2450316794885565,0.8964518528003431
1970-01-01 00:00:00.000000007,0.6053615137524225,-0.3535684311076843,1.017740939892477,0.8936350514664778
1970-01-01 00:00:00.000000007,0.4691692257640432,-0.07427346191949577,0.7735814857819439,0.8954364791651276
1970-01-01 00:00:00.000000007,0.37379399420787923,0.10204537721542477,0.37281959415414434,0.9111444581230639
1970-01-01 00:00:00.000000007,0.30948187880854194,0.18912395519886366,-0.09782713515713651,0.9392233528174797
1970-01-01 00:00:00.000000007,0.35164370954952445,0.15614298434008997,-0.6123106722106719,0.9738617933320182
1970-01-01 00:00:00.000000007,0.4606253304452825,0.05794899873587903,-1.1533486377787046,1.0103915980962876
1970-01-01 00:00:00.000000007,0.5815128325981855,0.01821003615465374,-1.6683724931883435,1.0405755640907333
1970-01-01 00:00:00.000000007,0.685468718824847,0.033614566994961265,-2.0428160887513584,1.0591753761057014
1970-01-01 00:00:00.000000007,0.7560005149277818,0.032126084475823116,-2.344919091331807,1.074036556726699
1970-01-01 00:00:00.000000007,0.7870109046635727,0.09728758264213153,-2.5065015084175717,1.0774436785020147
1970-01-01 00:00:00.000000007,0.7726724566811061,0.27928983215961206,-2.6459704506447856,1.0757281023225258
1970-01-01 00:00:00.000000007,0.7694525861657185,0.42353321696704826,-2.704705327691991,1.0713445697028074
1970-01-01 00:00:00.000000007,0.7732779554908679,0.5028972720048489,-2.784283150984828,1.0714996799043912
1970-01-01 00:00:00.000000007,0.7796960472052452,0.49934388918444783,-2.876288986877768,1.0779317039333147
1970-01-01 00:00:00.000000007,0.8061883399981339,0.41187354047692687,-2.943033690213208,1.0892762849937987
1970-01-01 00:00:00.000000007,0.89465100528701,0.261606556955507,-2.945255795615919,1.0970269983591814
1970-01-01 00:00:00.000000007,0.9807774317531512,0.09645784682998261,-2.883918441908347,1.0995411744093417
1970-01-01 00:00:00.000000007,1.009525905026727,-0.021877815374967205,-2.7851752587384437,1.1000857420610326
1970-01-01 00:00:00.000000007,1.0347816981585483,-0.06820380242324935,-2.696858484498797,1.0958630749663565
1970-01-01 00:00:00.000000007,1.029084954485349,-0.0952023378327814,-2.555581310509062,1.0867739484475796
1970-01-01 00:00:00.000000007,0.9717819049658047,-0.05099114001791734,-2.3525687202019485,1.0724358663591986
1970-01-01 00:00:00.000000007,0.8996051520801804,0.033876746099816675,-2.148338946192723,1.0585637861985857
1970-01-01 00:00:00.000000007,0.8763336447154242,0.1270342959197118,-1.9912118157948309,1.0442915264063248
1970-01-01 00:00:00.000000007,0.8549434051190964,0.1661308084446095,-1.8442985155555387,1.0315231456813525
1970-01-01 00:00:00.000000007,0.7869518126050347,0.20048417421723902,-1.7128614620722098,1.022954203319672
1970-01-01 00:00:00.000000007,0.7323337288786064,0.2964045220088366,-1.603498333806141,1.0118371247347517
1970-01-01 00:00:00.000000007,0.6812877119146818,0.38343791112562225,-1.5005935595893225,1.001782309819871
1970-01-01 00:00:00.000000007,0.6408887199069531,0.3889411659027158,-1.3300056875858135,0.9929414821184898
1970-01-01 00:00:00.000000007,0.6301913682955108,0.4118147982696586,-1.1157187752056827,0.9756130915982799
1970-01-01 00:00:00.000000007,0.5419491279590004,0.46049514087275145,-0.8139644894729209,0.9531828987267412
1970-01-01 00:00:00.000000007,0.39674172105808125,0.5575430531405364,-0.3253333927172933,0.9204483760665967
1970-01-01 00:00:00.000000007,0.24575159398278626,0.7040631229225675,0.1408587151068268,0.8839532382691814
1970-01-01 00:00:00.000000007,0.028404723866669757,0.7481511151994551,0.4245085500322803,0.8664130608288846
1970-01-01 00:00:00.000000007,-0.2015967814501583,0.4742247144653942,0.7990798627674899,0.8615412853104012
1970-01-01 00:00:00.000000007,-0.4461487271701582,0.13015349994858644,1.474885069272391,0.8435731213313522
1970-01-01 00:00:00.000000007,-0.7124442663697961,0.0548277897820211,2.2877250132226536,0.803975150468703
1970-01-01 00:00:00.000000007,-0.9818840359445614,0.1252517740227928,3.068745237595974,0.7629450453773174
1970-01-01 00:00:00.000000007,-1.142313990085282,0.14664555801077056,3.6380718510460786,0.7393506780932948
1970-01-01 00:00:00.000000008,-1.1121413954547714,0.0008250596918577546,3.825841508071923,0.7403041847623522
1970-01-01 00:00:00.000000008,-0.9996917274399693,-0.23415935852372208,3.5498584547027017,0.7632060524940802
1970-01-01 00:00:00.000000008,-1.002699171481528,-0.5153229097105504,3.0781415990227736,0.7981982168965094
1970-01-01 00:00:00.000000008,-1.189978368487665,-0.7627853745559388,2.72673854801746,0.8290537870139512
1970-01-01 00:00:00.000000008,-1.508067528462401,-0.9444019682795762,2.6792794324687805,0.8458684216973155
1970-01-01 00:00:00.000000008,-1.8318156834745083,-1.0237868651289763,2.8260870325031897,0.8458086568741502
1970-01-01 00:00:00.000000008,-2.156043105181753,-0.9806311968715675,3.092282638448571,0.8323116614329025
1970-01-01 00:00:00.000000008,-2.4793747774071155,-0.8764101994459409,3.2423894565656672,0.8275856069686195
1970-01-01 00:00:00.000000008,-2.668483701317147,-0.7344195762006984,3.150257300792637,0.8346584928849945
1970-01-01 00:00:00.000000008,-2.6932955470171964,-0.6801661341700536,2.8373098886383805,0.8550800789260923
1970-01-01 00:00:00.000000008,-2.6056740506101312,-0.6273238568520431,2.4598518819823765,0.879379981855229
1970-01-01 00:00:00.000000008,-2.3856232719531967,-0.6116431231439854,1.9746258025769166,0.9082484630531812
1970-01-01 00:00:00.000000008,-2.0712445047607777,-0.47812649114846045,1.5139587644814716,0.9263766516647522
1970-01-01 00:00:00.000000008,-1.7047610375321969,-0.3383152211972337,1.111717755089968,0.937512202759272
1970-01-01 00:00:00.000000008,-1.343225165424668,-0.21880623756123468,0.6899988665632769,0.948165220648177
1970-01-01 00:00:00.000000008,-1.0508481986279652,-0.1379116071091469,0.19979322796546906,0.968624494785435
1970-01-01 00:00:00.000000008,-0.7596008045412903,-0.08764800335669734,-0.37842256046657535,0.9959894437845835
1970-01-01 00:00:00.000000008,-0.46640214961061993,-0.004375172744736967,-0.9429930497860596,1.0214339523722429
1970-01-01 00:00:00.000000008,-0.16153257366775026,0.059052438740301506,-1.4928556842655312,1.0463955239544513
1970-01-01 00:00:00.000000008,0.14699224362288865,0.05852593159733994,-1.9043755125188058,1.0651142614593945
1970-01-01 00:00:00.000000008,0.41511232857257235,0.01360568219770783,-2.182825185932384,1.0782816574560181
1970-01-01 00:00:00.000000008,0.6243542721861607,-0.025773542394522647,-2.3665055377908413,1.088023613914793
1970-01-01 00:00:00.000000008,0.8136735800295919,-0.03695285083532719,-2.5402858584058254,1.0950285484548865
1970-01-01 00:00:00.000000008,0.9698744597654589,0.023191651449258707,-2.7260675575579003,1.0970264301726664
1970-01-01 00:00:00.000000008,1.0481953266971422,0.11124647829195128,-2.8654191573308783,1.0969382587306824
1970-01-01 00:00:00.000000008,1.0783748177530006,0.18291611077963432,-2.937796842029617,1.096893558098934
1970-01-01 00:00:00.000000008,1.115950049568697,0.27892331520705954,-3.0036607750199047,1.094756766586372
1970-01-01 00:00:00.000000008,1.1500020963815683,0.35925245746717716,-3.1498050258516255,1.0969123515862667
1970-01-01 00:00:00.000000008,1.1557850580321152,0.3787044450086036,-3.3332635143720912,1.1038222890416853
1970-01-01 00:00:00.000000008,1.116730842477702,0.3862358999828278,-3.327841519977134,1.100891948953894
1970-01-01 00:00:00.000000008,1.0193170483639318,0.39651978753659867,-3.171602592001639,1.0912494199193281
1970-01-01 00:00:00.000000008,0.8962851940508623,0.4131458898681731,-2.9620809377042496,1.0803240694278045
1970-01-01 00:00:00.000000008,0.7928216968881776,0.37488133012265124,-2.688120634794524,1.0680967000469483
1970-01-01 00:00:00.000000008,0.6984064228046075,0.3803287346413823,-2.4454974905499394,1.0540996972347407
1970-01-01 00:00:00.000000008,0.5889237270501481,0.4203820699156035,-2.3139240453329037,1.0431168442089587
1970-01-01 00:00:00.000000008,0.4358880692830082,0.5173878239538314,-2.2330510625645394,1.0315899214780386
1970-01-01 00:00:00.000000008,0.21810459349539363,0.6393282575570053,-2.138215563190509,1.0241842706142235
1970-01-01 00:00:00.000000008,0.06430049576186922,0.7637193052211062,-1.9795249684434062,1.0147637144387638
1970-01-01 00:00:00.000000008,0.023190092078918687,0.7387338234240247,-1.801317744770291,1.006211013440538
1970-01-01 00:00:00.000000008,-0.022431114917035314,0.658332246492503,-1.6798158210895155,1.00330612191768
1970-01-01 00:00:00.000000008,-0.08415505411837017,0.5779933939566253,-1.5119528625635608,0.9989449946168663
1970-01-01 00:00:00.000000008,-0.13385808543546654,0.5847920213424392,-1.2556088371205603,0.9796455179407426
1970-01-01 00:00:00.000000008,-0.14674485160971637,0.6677545678481139,-0.9331223541326907,0.7819815295390352
1970-01-01 00:00:00.000000008,-0.16550298539382968,0.7285231313960204,-0.6547529036227036,0.7563836373940502
1970-01-01 00:00:00.000000008,-0.18244447626437982,0.7674928602513076,-0.4800831632734492,0.7440855974486517
1970-01-01 00:00:00.000000008,-0.19922458381234448,0.8176314154105587,-0.4836451847391316,0.7463608506823016
1970-01-01 00:00:00.000000008,-0.09242839393353502,1.049040388215032,-0.5878517923018742,0.7367284402961871
1970-01-01 00:00:00.000000008,-0.022970530286255342,1.2603075408940643,-0.8845047329127008,0.7377415487549766
1970-01-01 00:00:00.000000008,-0.021090850511852118,1.207488481350121,-1.0655507309156131,0.7491046784550881
1970-01-01 00:00:00.000000008,-0.04253250423129476,1.0026032556553928,-0.7246432017126855,0.7373926065700567
1970-01-01 00:00:00.000000008,-0.13967256951327173,0.8053998991249718,0.19278476245258408,0.6916822136573944
1970-01-01 00:00:00.000000008,-0.34230735675907126,0.5899410252819723,1.5265787924956489,0.6233602036842444
1970-01-01 00:00:00.000000008,-0.6764413998323691,0.20952291261442646,2.8613577640560566,0.564144451884792
1970-01-01 00:00:00.000000008,-1.1732055030319033,-0.35026554120232767,4.062637680508108,0.5296828776368133
1970-01-01 00:00:00.000000008,-1.7292479215690457,-0.967446331536812,5.029105803203299,0.5251254747910801
1970-01-01 00:00:00.000000008,-2.069148850710784,-1.4766908131815262,5.767313603090975,0.5313855757737812
1970-01-01 00:00:00.000000008,-2.0585842861480894,-1.785661310708815,6.3059057939085905,0.5284154216980516
1970-01-01 00:00:00.000000008,-1.837943714218165,-2.0240635129061424,6.454243895491382,0.5365179100655069
1970-01-01 00:00:00.000000008,-1.5123511986652844,-2.3422737551677346,6.230459166948028,0.5679339696013005
1970-01-01 00:00:00.000000008,-1.1093071884719028,-2.737713851998808,5.74776763672919,0.6158993307348792
1970-01-01 00:00:00.000000008,-0.6740792317874602,-3.0566180158032723,4.978649257736728,0.6693162301786231
1970-01-01 00:00:00.000000008,-0.34255535538874926,-3.1210841583344284,4.095650738517586,0.714113337384511
1970-01-01 00:00:00.000000008,-0.16077536710396012,-2.9111374039887483,3.155437537475593,0.7518467713821773
1970-01-01 00:00:00.000000008,-0.04653361824473476,-2.617869056048237,2.2129194666369676,0.7860922201892951
1970-01-01 00:00:00.000000008,0.014999345904245651,-2.267895525189102,1.346819645847088,0.8146607947948109
1970-01-01 00:00:00.000000008,0.06350188770864564,-1.8372949789227064,0.6792261163692297,0.8263504213468875
1970-01-01 00:00:00.000000008,0.07739719515060327,-1.354315772712657,0.22703862913343967,0.8201397515239364
1970-01-01 00:00:00.000000008,-0.00891016448809631,-0.8266177322293391,-0.14656997767667482,0.8086220588305453
1970-01-01 00:00:00.000000008,-0.17241624233440514,-0.2696933057557919,-0.48975833467994956,0.7959115655659648
1970-01-01 00:00:00.000000008,-0.38286365602877476,0.3110124245160551,-0.8107911109888717,0.7856901960850612
1970-01-01 00:00:00.000000008,-0.5490764305836423,0.7016453401176307,-1.1169850895912365,0.7909263381004985
1970-01-01 00:00:00.000000008,-0.5408283690120634,0.7882850112275621,-1.442933055406924,0.8127802221374569
1970-01-01 00:00:00.000000008,-0.35384052090108625,0.6768616823772492,-1.747395687045014,0.8375374159030065
1970-01-01 00:00:00.000000008,-0.1101204065964591,0.45876465898140767,-2.014966248785224,0.8611002902084172
1970-01-01 00:00:00.000000008,0.09075944721643237,0.33982976657773045,-2.2766473736990456,0.8808021131227161
1970-01-01 00:00:00.000000008,0.2876401630282476,0.35099948172413936,-2.5701523979821523,0.8935032441532261
1970-01-01 00:00:00.000000008,0.45196865259404173,0.45270099269466335,-2.8019226190983644,0.8979162686765382
1970-01-01 00:00:00.000000008,0.5910766429817426,0.5740467284297089,-2.879638910275747,0.8909414544526993
1970-01-01 00:00:00.000000008,0.665348025371242,0.6801829259601317,-2.8147057072941872,0.8797112895404304
1970-01-01 00:00:00.000000008,0.7268496130416096,0.7130236425897417,-2.695283816571384,0.8719807701763065
1970-01-01 00:00:00.000000008,0.8294019707964007,0.6869996891767312,-2.592413074919319,0.867899807375168
1970-01-01 00:00:00.000000008,0.9755509788475079,0.5425310043153123,-2.3433061671168756,0.8564631050280452
1970-01-01 00:00:00.000000008,1.0390942725235703,0.33703612089360424,-2.051154743679414,0.8458887588804234
1970-01-01 00:00:00.000000008,0.9958799745785294,0.3300172601416258,-2.0152989118976556,0.8436924220145003
1970-01-01 00:00:00.000000008,0.9367567116986123,0.39399671174448136,-2.041349068743099,0.842959481266747
1970-01-01 00:00:00.000000008,0.8961563780329211,0.394961553983256,-2.014058347142131,0.8418672061530247
1970-01-01 00:00:00.000000008,0.8567826027624608,0.38525012474568876,-1.9729414251521866,0.8413260007486518
1970-01-01 00:00:00.000000008,0.840603009456569,0.37900911046039554,-1.8831428356568756,0.8347381473120926
1970-01-01 00:00:00.000000008,0.7884308653648501,0.38025241166472207,-1.5896585836037307,0.8174465675990378
1970-01-01 00:00:00.000000008,0.7236832662586645,0.35247816180593344,-1.072966764325021,0.7895773721222276
1970-01-01 00:00:00.000000008,0.6465154274375939,0.3161703369151515,-0.700931673352163,0.769240896462249
1970-01-01 00:00:00.000000008,0.5427117580821194,0.3650614529461853,-0.42124789814035596,0.7494533873429785
1970-01-01 00:00:00.000000008,0.4013407688224962,0.4679161716571013,-0.24533429741220103,0.7320138777648941
1970-01-01 00:00:00.000000008,0.20560496954235868,0.6278166291629016,-0.09363668462173223,0.7126487966179719
1970-01-01 00:00:00.000000008,-0.0652826558376639,0.8312579887216363,0.0652689856058537,0.6962148408422303
1970-01-01 00:00:00.000000008,-0.3026672333417597,1.0778981038700897,0.11764833352861112,0.6854869806125279
1970-01-01 00:00:00.000000008,-0.45178476200425893,1.2994616813329096,0.13870688522877717,0.6779905381996388
1970-01-01 00:00:00.000000009,-0.4969578048749961,1.4756876527388754,0.09555792826879561,0.6769639483396016
1970-01-01 00:00:00.000000009,-0.41399882359450296,1.5441669811137766,-0.058580783474238465,0.6886841424080883
1970-01-01 00:00:00.000000009,-0.16385681807629202,1.4184777717764028,-0.22558214762991452,0.7077508680635286
1970-01-01 00:00:00.000000009,0.20099692393370144,1.2139652948868223,-0.3229047644957287,0.7184077702864196
1970-01-01 00:00:00.000000009,0.5055920494855047,1.05228649850019,-0.2991451854223727,0.7215462749436327
1970-01-01 00:00:00.000000009,0.7797149352007333,0.8140347103408959,-0.13775069618576824,0.7181922358557095
1970-01-01 00:00:00.000000009,0.9539575480134281,0.37785467672023854,0.28108038442286537,0.7094341261182389
1970-01-01 00:00:00.000000009,0.9693605577160586,0.051174572090372544,0.8900540865879402,0.6882482172630109
1970-01-01 00:00:00.000000009,0.8868525250136065,-0.048433523572876155,1.4480876601588488,0.6595614836318426
1970-01-01 00:00:00.000000009,0.727741058466689,-0.17054221876648218,1.8966502274925912,0.646835367529768
1970-01-01 00:00:00.000000009,0.664197576217272,-0.29720542601012434,2.020469439253209,0.6525804337254186
1970-01-01 00:00:00.000000009,0.7122967141789113,-0.24972401190348625,1.7603049039473921,0.6657026516013365
1970-01-01 00:00:00.000000009,0.7843192833717805,-0.16739553773462892,1.2857103249757706,0.6879245541015304
1970-01-01 00:00:00.000000009,0.8617454350140556,-0.30380304976937483,0.9200263275605514,0.712998803243566
1970-01-01 00:00:00.000000009,0.8711888491926032,-0.7045069772171502,0.8857803479804846,0.7324089992375818
1970-01-01 00:00:00.000000009,0.7598996926057171,-1.1318089336508033,1.0821194693553635,0.7367066145554493
1970-01-01 00:00:00.000000009,0.4288061461778069,-1.3820407871309273,1.5537387688379547,0.7195490749246338
1970-01-01 00:00:00.000000009,-0.07889733315084417,-1.524743880224176,2.2773757279294613,0.6882528840111892
1970-01-01 00:00:00.000000009,-0.6603598554674883,-1.5856848658247644,3.135764998354524,0.652223943415964
1970-01-01 00:00:00.000000009,-1.1723471339705531,-1.6679780348798419,3.7590486898074427,0.6311490873260686
1970-01-01 00:00:00.000000009,-1.5918920536052015,-1.7924788582280242,4.015792844149406,0.6346306690323221
1970-01-01 00:00:00.000000009,-1.880860344341822,-1.9036357589758977,3.7426734805274213,0.6677803917890399
1970-01-01 00:00:00.000000009,-2.0069508106014835,-1.8717475173461013,3.0203302468661097,0.7179650629883396
1970-01-01 00:00:00.000000009,-1.9466484966291595,-1.6708711578883928,2.018919236337994,0.7685383973180631
1970-01-01 00:00:00.000000009,-1.7873709314557733,-1.3043061969540968,0.9279566829461309,0.8086252502272319
1970-01-01 00:00:00.000000009,-1.6405460539085872,-0.8606767309073613,-0.029369367827594854,0.8376488247235243
1970-01-01 00:00:00.000000009,-1.4835659523786933,-0.4725715216029951,-0.7595355983495159,0.8578730701910655
1970-01-01 00:00:00.000000009,-1.2864318778237385,-0.19088746788998795,-1.2702249031257842,0.8713769918602625
1970-01-01 00:00:00.000000009,-1.044067883877554,-0.05495036954205007,-1.6600970441620082,0.8843314888621372
1970-01-01 00:00:00.000000009,-0.7826495169658612,0.009258764477095963,-2.000364015026032,0.8961905185813067
1970-01-01 00:00:00.000000009,-0.5498547913365657,0.06181896736228967,-2.342849404602185,0.9082805067132588
1970-01-01 00:00:00.000000009,-0.36105681125347205,0.1105990810734418,-2.555824182464234,0.9167149263868758
1970-01-01 00:00:00.000000009,-0.14766721864558136,0.16008929361505392,-2.6786704499377305,0.9173416146682654
1970-01-01 00:00:00.000000009,0.03353748094505596,0.19068670029287837,-2.7894031120946483,0.9189695603576187
1970-01-01 00:00:00.000000009,0.19033240613361335,0.18171894993706622,-2.941946240973312,0.9266898875733531
1970-01-01 00:00:00.000000009,0.35288707244084383,0.21061520769123454,-3.148255134501444,0.9351337007476864
1970-01-01 00:00:00.000000009,0.5231211315686222,0.27711369733005237,-3.2887203509618814,0.9327281091594595
1970-01-01 00:00:00.000000009,0.587619860483586,0.3595784710465021,-3.309070490642993,0.9252351343255523
1970-01-01 00:00:00.000000009,0.5841017144025451,0.4599152856539042,-3.2777726316705005,0.9156168193003509
1970-01-01 00:00:00.000000009,0.5397874050586121,0.5768231167008174,-3.172101689368621,0.9036938988173022
1970-01-01 00:00:00.000000009,0.5072710483458832,0.683199365266638,-3.0500824812838414,0.8915949857067212
1970-01-01 00:00:00.000000009,0.4941219435600002,0.741671643165864,-3.0580134076276537,0.8800686498730925
1970-01-01 00:00:00.000000009,0.4692320556708254,0.7855043363283841,-3.072710188546107,0.6524139339249333
1970-01-01 00:00:00.000000009,0.4467489942649656,0.839963907388099,-3.0321432134296096,0.6415943926553939
1970-01-01 00:00:00.000000009,0.47944791762121136,0.82201404714681,-2.8666636900568325,0.6325959086348824
1970-01-01 00:00:00.000000009,0.5116891049540505,0.7598426337302967,-2.7123491499503376,0.6273907655086279
1970-01-01 00:00:00.000000009,0.5600003962526753,0.7247964386679115,-2.585703983505567,0.6214824920624636
1970-01-01 00:00:00.000000009,0.6130962642446558,0.7335072561422981,-2.42781235886097,0.6099509228845555
1970-01-01 00:00:00.000000009,0.6434728756972888,0.7906500664077822,-2.2544791165069666,0.591411371921853
1970-01-01 00:00:00.000000009,0.5697346365465497,0.7950479580881816,-2.0121203656067976,0.5726278970934932
1970-01-01 00:00:00.000000009,0.3862543257775044,0.8265432843512601,-1.671872272498422,0.5539086888482649
1970-01-01 00:00:00.000000009,0.22728926777576508,0.8856796565548667,-1.2643720546915738,0.5304339958363553
1970-01-01 00:00:00.000000009,0.10610180258262905,0.7957544387742352,-0.7572262080299699,0.5102245517450887
1970-01-01 00:00:00.000000009,0.04569245774345391,0.8145338459408132,-0.46589190652628754,0.4939409137400323
1970-01-01 00:00:00.000000009,0.004911141929039062,0.8267087725962537,-0.4418058972112581,0.4896978470719911
1970-01-01 00:00:00.000000009,-0.08761284490717479,0.48855894815647816,-0.23091138417923307,0.4933252480698712
1970-01-01 00:00:00.000000009,-0.2733206930158101,-0.008984997446057033,0.3338306992972476,0.4901843826074775
1970-01-01 00:00:00.000000009,-0.4720249760097909,-0.2961375492965156,1.1793565951084277,0.46013776910320864
1970-01-01 00:00:00.000000009,-0.6721160824650868,-0.2873687028774735,1.958157499312682,0.41636387072920056
1970-01-01 00:00:00.000000009,-0.8847838750593107,-0.14931967627553283,2.5043936384538026,0.37865284957268747
1970-01-01 00:00:00.000000009,-1.110077663959313,0.027801181284495435,2.682534476786408,0.36279516244741317
1970-01-01 00:00:00.000000009,-1.287475090791675,0.07169554856545776,2.595781212387916,0.372028870983804
1970-01-01 00:00:00.000000009,-1.3548688888798124,-0.1653962529680185,2.5801833747364378,0.39207782803208907
1970-01-01 00:00:00.000000009,-1.3203196641547856,-0.6221428384383499,2.7344214457596183,0.4127923830139479
1970-01-01 00:00:00.000000009,-1.2104481289071374,-0.9902958491440843,2.8913601964965916,0.42894940593555286
1970-01-01 00:00:00.000000009,-0.9842368872884122,-1.1392019613574085,3.0589469867428134,0.42895306120808374
1970-01-01 00:00:00.000000009,-0.687990149937161,-1.2794214021317933,3.1889441509334797,0.42498730892446707
1970-01-01 00:00:00.000000009,-0.4185000701127971,-1.5629284722269805,3.3847925124351144,0.4214200605941769
1970-01-01 00:00:00.000000009,-0.272345852536203,-1.9817904168064757,3.6383106160047722,0.42467961517612013
1970-01-01 00:00:00.000000009,-0.23035122570249875,-2.3348755355653887,3.710131365676215,0.4389351520112009
1970-01-01 00:00:00.000000009,-0.22185157169545705,-2.5610721542633366,3.534013146448695,0.45881473518963195
1970-01-01 00:00:00.000000009,-0.2870587216396261,-2.5673775565269135,3.204918661456298,0.47922612799428865
1970-01-01 00:00:00.000000009,-0.3443499168110051,-2.2831663489889547,2.7237462358457485,0.48871460049821547
1970-01-01 00:00:00.000000009,-0.46169422920196534,-1.8385328491854174,2.3258107233683467,0.48911745931462397
1970-01-01 00:00:00.000000009,-0.5455926394101479,-1.372449890378545,2.0579139837383758,0.4856958465030804
1970-01-01 00:00:00.000000009,-0.4820318735721184,-0.8892339323280346,1.5662470962750548,0.4865190118434669
1970-01-01 00:00:00.000000009,-0.4008850337909298,-0.3225703723903917,0.7950535257760983,0.49808174022618634
1970-01-01 00:00:00.000000009,-0.3084701863570072,0.2041842216479342,-0.07545155645990934,0.519506674991717
1970-01-01 00:00:00.000000009,-0.1614256637016381,0.5674210468854939,-0.8503688601927799,0.5439435314187093
1970-01-01 00:00:00.000000009,0.027113865435757063,0.7376955579715149,-1.5129961550340338,0.5719485438922175
1970-01-01 00:00:00.000000009,0.2445942150111894,0.7697827859658746,-2.0811035581056667,0.6015592781593021
1970-01-01 00:00:00.000000009,0.48326326844238565,0.7168309268520271,-2.5064086500740315,0.6240115870215371
1970-01-01 00:00:00.000000009,0.6653633703329759,0.6887139551582625,-2.737868277773787,0.6342836444092914
1970-01-01 00:00:00.000000009,0.7862206219413613,0.7266561926574406,-2.817824519581813,0.6333254991333925
1970-01-01 00:00:00.000000009,0.8644967834972306,0.8029723325294477,-2.7214246649983074,0.6209422749968372
1970-01-01 00:00:00.000000009,0.9127211892968851,0.8876808020199028,-2.4765574189902075,0.5996682990311596
1970-01-01 00:00:00.000000009,0.9224332500907413,0.8927323171574025,-2.1673026525878094,0.5818931508616232
1970-01-01 00:00:00.000000009,0.9504824068536961,0.887278495372908,-1.869427466737717,0.566101865243263
1970-01-01 00:00:00.000000009,1.008260690827191,0.8882588879747864,-1.7327671192668783,0.5607973976378144
1970-01-01 00:00:00.000000009,1.142990481514531,0.7985573796170562,-1.7124388537972672,0.5617421275161266
1970-01-01 00:00:00.000000009,1.2382074276545358,0.6101553983504254,-1.8157168965946482,0.577073438829966
1970-01-01 00:00:00.000000009,1.326385888352634,0.470187272524727,-2.0173684575779447,0.5972579744409146
1970-01-01 00:00:00.000000009,1.4503895727139458,0.36053760695967957,-2.1275948108673894,0.6079968750848674
1970-01-01 00:00:00.000000009,1.5565600069121368,0.2744815324447774,-2.1675380187834374,0.6122794267763023
1970-01-01 00:00:00.000000009,1.630623079714202,0.19383605115669236,-2.002559414178,0.6003882868503627
1970-01-01 00:00:00.000000009,1.5695340573587877,0.1574035925289447,-1.7032544202795405,0.5799844187941648
1970-01-01 00:00:00.000000009,1.3787888870410514,0.27570338493640406,-1.5156674955580143,0.5623018152713473
1970-01-01 00:00:00.000000009,1.151551299902029,0.44218659110070685,-1.3141691694400846,0.5412317407466334
1970-01-01 00:00:00.000000009,0.8768432183848377,0.5988576709103082,-1.031376983196644,0.5199466378830488
1970-01-01 00:00:00.000000009,0.6222684178746583,0.7044019691933524,-0.8055779311535669,0.508227284679091
1970-01-01 00:00:00.000000010,0.4648429285464588,0.6955965375846253,-0.6936261176752722,0.5112594455944719
1970-01-01 00:00:00.000000010,0.46140420264158466,0.5266286513238904,-0.7224031403464196,0.529170208971688
1970-01-01 00:00:00.000000010,0.6123854541112347,0.24868964338329458,-0.5859460764551783,0.5351171487316528
1970-01-01 00:00:00.000000010,0.7553265071392485,0.008844808292081442,-0.27728783567638227,0.52331425191762
1970-01-01 00:00:00.000000010,0.7626935935859358,-0.13619844747309606,0.22285588521686445,0.501517381935765
1970-01-01 00:00:00.000000010,0.7413925513609732,-0.2542835495063509,0.7263160770910597,0.4830427577750358
1970-01-01 00:00:00.000000010,0.789360594202287,-0.3181404925446395,0.7989950928954951,0.48542233151160585
1970-01-01 00:00:00.000000010,0.9156624158586114,-0.4896344566685744,0.6924267236176394,0.5027038424363057
1970-01-01 00:00:00.000000010,1.1158464590701396,-0.7660463257236843,0.7824699565639606,0.506993282919498
1970-01-01 00:00:00.000000010,1.2367476110664062,-0.9304509501476222,1.197427491332572,0.48274854098108666
1970-01-01 00:00:00.000000010,1.1668198745427416,-0.9637770700971817,1.6904245675804315,0.4530379386024623
1970-01-01 00:00:00.000000010,1.014711082669009,-0.9473179197384743,2.0882478560769124,0.4269561808908827
1970-01-01 00:00:00.000000010,0.785641649355287,-0.8150084990637061,2.241065810274094,0.4070455660969645
1970-01-01 00:00:00.000000010,0.4299576379581054,-0.5083788194140895,1.9700617568911292,0.39627519616229023
1970-01-01 00:00:00.000000010,-0.21781769820533523,0.18125314000218729,1.043074390905325,0.4183258522714408
1970-01-01 00:00:00.000000010,-0.8388078539484475,0.5485693153442643,0.4643025134237811,0.45334688790537825
1970-01-01 00:00:00.000000010,-1.0885503582866174,0.46904673286556803,0.8320218301094373,0.44443683661411365
1970-01-01 00:00:00.000000010,-1.2494887575284621,0.2017719878063443,1.58636641531127,0.41599557332357356
1970-01-01 00:00:00.000000010,-1.45501767276971,-0.2138181755069492,2.557256269882166,0.37829688657734983
1970-01-01 00:00:00.000000010,-1.8381635906503975,-0.7018474167198337,3.4825681812813323,0.3545040309066441
1970-01-01 00:00:00.000000010,-2.2818714208761186,-1.1114081942940714,4.096738506348323,0.3514341864042375
1970-01-01 00:00:00.000000010,-2.643876243765102,-1.3572103525014945,4.328334966841905,0.3666508355939768
1970-01-01 00:00:00.000000010,-2.782322643383095,-1.2247021763229888,4.076874745306404,0.3901758784240784
1970-01-01 00:00:00.000000010,-2.5930959878921014,-0.752531335169672,3.4545002294805123,0.40878331177330574
1970-01-01 00:00:00.000000010,-2.151229895521776,-0.34847768425633274,2.6897976396692815,0.42560808532471617
1970-01-01 00:00:00.000000010,-1.6953242617502386,-0.07772565358876653,1.9986765277526288,0.4447438350242518
1970-01-01 00:00:00.000000010,-1.2419276785297622,0.09745435685588513,1.3720379291479392,0.4635131366939845
1970-01-01 00:00:00.000000010,-0.8398121218727747,0.33654882949379905,0.6739031000378547,0.4811347533771109
1970-01-01 00:00:00.000000010,-0.545384774337705,0.437782944473978,0.02176467687143569,0.5090124663529704
1970-01-01 00:00:00.000000010,-0.26723214771793863,0.4778004683806724,-0.592047027432031,0.5398799920978191
1970-01-01 00:00:00.000000010,0.01642512602463762,0.4395019111271672,-1.2803622082132795,0.577887886478807
1970-01-01 00:00:00.000000010,0.2757179670859018,0.40957489980222417,-1.956908826577144,0.617385067447012
1970-01-01 00:00:00.000000010,0.5649212864069599,0.39236301135144547,-2.532833481551041,0.648319919276742
1970-01-01 00:00:00.000000010,0.847136259901403,0.4289988133907034,-2.934822768597026,0.6654935165965983
1970-01-01 00:00:00.000000010,1.107845920560059,0.5067547588677954,-3.1412314618984025,0.6696231943693698
1970-01-01 00:00:00.000000010,1.366712249305581,0.7086740377788875,-3.1731323409207133,0.6530954499831834
1970-01-01 00:00:00.000000010,1.5299315547075525,0.7723402205107759,-3.1384457836122244,0.6423182713928726
1970-01-01 00:00:00.000000010,1.6259552154151973,0.8108278994019026,-3.1485878332194632,0.6392822178819161
1970-01-01 00:00:00.000000010,1.724147817951739,0.8530102339384419,-3.1404285427154224,0.6347671388843814
1970-01-01 00:00:00.000000010,1.8251580917645944,0.8020090541743596,-3.061422182858615,0.6144595261023689
1970-01-01 00:00:00.000000010,1.918015542581804,0.6864384300308961,-2.8827661932055375,0.12431262400887756
1970-01-01 00:00:00.000000010,1.9235849145957562,0.588538353320548,-2.666555237030168,0.09869111879803692
1970-01-01 00:00:00.000000010,1.8960733295817367,0.49851093531201607,-2.319811380920897,0.08476140922626599
1970-01-01 00:00:00.000000010,1.8943898336257454,0.5037181011050595,-2.0858908468328585,0.07232813131233518
1970-01-01 00:00:00.000000010,1.9251626467528336,0.5470345335182344,-2.0540847445726422,0.06325487520044813
1970-01-01 00:00:00.000000010,1.8612029368904794,0.4423646168907685,-1.948246943624975,0.061703812103278875
1970-01-01 00:00:00.000000010,1.753684703360757,0.35686436842576313,-1.8385284874084502,0.06280229748131176
1970-01-01 00:00:00.000000010,1.6789381495394664,0.3681236348913641,-1.7668719121166632,0.05910852417867463
1970-01-01 00:00:00.000000010,1.6119048438929562,0.34834719273700343,-1.601139720645534,0.04900127443881318
1970-01-01 00:00:00.000000010,1.498979143925428,0.30158080878722743,-1.1995703055332572,0.028256125448784447
1970-01-01 00:00:00.000000010,1.357331124758259,0.3306979615528416,-0.7508952117177043,0.0002774297130724757
1970-01-01 00:00:00.000000010,1.1746667456762594,0.3727173042109112,-0.32914725977334475,-0.025312372124410638
1970-01-01 00:00:00.000000010,0.9861470599676087,0.36236084132369684,0.24361078701933697,-0.0540198878902175
1970-01-01 00:00:00.000000010,0.8404188270555039,0.26141929298583005,1.0070323907523744,-0.08283071945453258
1970-01-01 00:00:00.000000010,0.8734942301297076,0.26648454917601405,1.5167882431770694,-0.11188505749983908
1970-01-01 00:00:00.000000010,0.9215958143137684,0.25377007043479954,1.516356710696751,-0.11795929737290148
1970-01-01 00:00:00.000000010,0.8395976668136995,0.0529174137555562,1.392453006827273,-0.10540591037647166
1970-01-01 00:00:00.000000010,0.6128988000486203,-0.1893590479389305,1.4655153247354926,-0.09235943169595731
1970-01-01 00:00:00.000000010,0.41340879940504854,-0.3782417338716778,1.9638307352660194,-0.10092877117935535
1970-01-01 00:00:00.000000010,0.3731744927452744,-0.27733986510336395,2.553742428940011,-0.13688948865364295
1970-01-01 00:00:00.000000010,0.4023164764378531,0.058622264166905164,2.905771734200349,-0.17653053438292865
1970-01-01 00:00:00.000000010,0.4400618785773949,0.2887961640166197,3.080749560876197,-0.20077977327865876
1970-01-01 00:00:00.000000010,0.47077104194516783,0.2824815799232934,3.0680738250984616,-0.2009159284994162
1970-01-01 00:00:00.000000010,0.5056191928287097,0.10635631139654417,3.275393534266461,-0.20580047872142204
1970-01-01 00:00:00.000000010,0.4952301898657928,-0.2842940256567147,3.994118746655911,-0.22912985041908085
1970-01-01 00:00:00.000000010,0.385433112534098,-0.8092143218496515,5.038893307721223,-0.2576248003156005
1970-01-01 00:00:00.000000010,0.28377151360457487,-1.3689738191268008,6.0015194069740545,-0.28122091294515467
1970-01-01 00:00:00.000000010,0.13436871195991945,-1.8377056298980001,6.317503845254181,-0.2699666845276392
1970-01-01 00:00:00.000000010,-0.013899656336033045,-2.202439371405944,5.867723231602101,-0.21124075258789304
1970-01-01 00:00:00.000000010,0.06423079114996902,-2.3399321854948383,4.899248620570265,-0.14530842277777656
1970-01-01 00:00:00.000000010,0.19204410105470354,-2.348256123841149,3.7894630369086095,-0.08461314929853396
1970-01-01 00:00:00.000000010,0.25135816800514504,-2.2102800979186616,2.768956436259684,-0.03654354798512748
1970-01-01 00:00:00.000000010,0.24638885406632482,-1.9300393618879437,1.8716279001776532,-0.002795488225115642
1970-01-01 00:00:00.000000010,0.1831852768256274,-1.5906374321441905,1.0751421094485776,0.021210606818631933
1970-01-01 00:00:00.000000010,0.03682634543143473,-1.2986567450963875,0.3757236158427604,0.04399643323699851
1970-01-01 00:00:00.000000010,-0.1745320169145719,-1.069209325729044,-0.2767191219648061,0.07057845030956111
1970-01-01 00:00:00.000000010,-0.3990093293282242,-0.8341383363845705,-0.8612831956893239,0.0974784383243486
1970-01-01 00:00:00.000000010,-0.5438170898382839,-0.6394955659683571,-1.4148969709609842,0.12436957513384476
1970-01-01 00:00:00.000000010,-0.6044901792930659,-0.5376177911596575,-1.946310866655864,0.15512424389084595
1970-01-01 00:00:00.000000010,-0.5634728164685379,-0.4997948407287154,-2.5091064741336226,0.19037496453270608
1970-01-01 00:00:00.000000010,-0.4112256333388197,-0.4708612623209736,-3.0635822887572335,0.22098144468695285
1970-01-01 00:00:00.000000010,-0.22376592366959774,-0.496432225561818,-3.4905883059359675,0.24315105839076986
1970-01-01 00:00:00.000000010,-0.08534649200197447,-0.517825498478781,-3.7673186421445126,0.25908046123318057
1970-01-01 00:00:00.000000010,0.057169743999212264,-0.4722716515268514,-3.964430450127503,0.2646059767434168
1970-01-01 00:00:00.000000010,0.16086728141424161,-0.3559520548099916,-4.14474647336169,0.26283794877538036
1970-01-01 00:00:00.000000010,0.1686516676950262,-0.21140526004951382,-4.26669576234467,0.25904720848523355
1970-01-01 00:00:00.000000010,0.12582787448549396,-0.07996891737042303,-4.284018060788108,0.2534577294822085
1970-01-01 00:00:00.000000010,0.09051900675789776,-0.02909780716383248,-4.233134177146233,0.2529691893224013
1970-01-01 00:00:00.000000010,0.17283018064956326,-0.036909313539449456,-4.091842159646506,0.2454729447363012
1970-01-01 00:00:00.000000010,0.27909516473234697,-0.10638650179131362,-3.8855369766993832,0.23586747516773535
1970-01-01 00:00:00.000000010,0.37279366291872296,-0.22714316144812874,-3.7092731378590114,0.2313319581704212
1970-01-01 00:00:00.000000010,0.4690526016033038,-0.31258095820819676,-3.550939846393947,0.2239932945335738
1970-01-01 00:00:00.000000010,0.5287122067615286,-0.32065328091061795,-3.2742132855149735,0.2083764234986284
1970-01-01 00:00:00.000000010,0.5983414037335119,-0.3021754663631167,-3.059936702494935,0.19505229994478063
1970-01-01 00:00:00.000000010,0.6950591555562983,-0.21493595279043934,-2.9709293237452323,0.18118403311350395
1970-01-01 00:00:00.000000010,0.7414030315731047,-0.03151141769202076,-2.9355711973396277,0.16650043540654125
1970-01-01 00:00:00.000000010,0.7590933173802769,0.2024374655675098,-2.9511832139629046,0.15263751332486136
1970-01-01 00:00:00.000000010,0.7541187364099822,0.4385420810444508,-3.0551564866290755,0.14593151739443777
1970-01-01 00:00:00.000000011,0.7790127243717355,0.7362875052030146,-3.189953142451769,0.1356022388953224
1970-01-01 00:00:00.000000011,0.7980574162311781,1.0425343933289384,-3.2222645256766946,0.11664276667124138
1970-01-01 00:00:00.000000011,0.7588556176128342,1.2400452159170292,-2.983284949580288,0.09165656246692716
1970-01-01 00:00:00.000000011,0.7343871173910496,1.378147725303956,-2.3869678241179546,0.047545708808925446
1970-01-01 00:00:00.000000011,0.6845962929101839,1.5106708887293592,-1.424118780164902,-0.017194903186355248
1970-01-01 00:00:00.000000011,0.6079863841784664,1.577031981661921,-0.14717352906121905,-0.0947423835673375
1970-01-01 00:00:00.000000011,0.5187869968401005,1.4533956127510423,1.0846364921204843,-0.15664645652324716
1970-01-01 00:00:00.000000011,0.46984107171374917,1.3535377107214894,1.8712469644195577,-0.19582379445505593
1970-01-01 00:00:00.000000011,0.44262604645583037,1.499189905281426,2.096098875759793,-0.22352866521104225
1970-01-01 00:00:00.000000011,0.2721776668979837,1.7370636060687716,1.8358965552865656,-0.2269762920513853
1970-01-01 00:00:00.000000011,-0.033698999537955354,1.839891297171688,1.661471955573902,-0.21646738157999007
1970-01-01 00:00:00.000000011,-0.2581025224255269,1.8360321063638552,1.9198769340058839,-0.22161232181123966
1970-01-01 00:00:00.000000011,-0.3277984822942943,1.7550805983954452,2.4473102863279705,-0.2449602835804908
1970-01-01 00:00:00.000000011,-0.361235370217426,1.666571029090096,3.022927775626204,-0.2768883560851527
1970-01-01 00:00:00.000000011,-0.48349951621131104,1.6686427216685948,3.5980451902109407,-0.3047197960872218
1970-01-01 00:00:00.000000011,-0.5148957420627687,1.5188028392087167,4.006312743315963,-0.3185257550229878
1970-01-01 00:00:00.000000011,-0.528574068692042,1.0708872395989228,4.3042521819523465,-0.3136222869011779
1970-01-01 00:00:00.000000011,-0.6244240861543722,0.4990066078133152,4.562350147248662,-0.2954220134575586
1970-01-01 00:00:00.000000011,-0.7482062548717361,-0.20006833382692307,4.776842288573975,-0.2651315816404418
1970-01-01 00:00:00.000000011,-0.8534396995280189,-0.7738574414840471,4.7893858239047935,-0.23613651117820256
1970-01-01 00:00:00.000000011,-1.0605674297547487,-1.0531574356486217,4.677500107449285,-0.2196290695771767
1970-01-01 00:00:00.000000011,-1.4583343008771408,-0.931500818425251,4.483009579829271,-0.21395586480218215
1970-01-01 00:00:00.000000011,-1.931171183192993,-0.5023334933958985,4.208789716378486,-0.21214811164435843
1970-01-01 00:00:00.000000011,-2.296378119530494,-0.0735072597064749,3.962309005947411,-0.20604690603791642
1970-01-01 00:00:00.000000011,-2.397535560129908,0.1761605428230124,3.6820765057035585,-0.19259528987746405
1970-01-01 00:00:00.000000011,-2.272534880946356,0.39764717287916085,3.271561904999952,-0.17622066370230138
1970-01-01 00:00:00.000000011,-2.0136526831340387,0.48035557498014414,2.570137379361023,-0.14532018001881145
1970-01-01 00:00:00.000000011,-1.7917903459690805,0.45153029962165947,2.0017242857845625,-0.11784724876873674
1970-01-01 00:00:00.000000011,-1.6825904101752625,0.41121055791399885,1.4266663799315245,-0.08630749362772745
1970-01-01 00:00:00.000000011,-1.6560820306642605,0.3275991819909933,0.694712390301271,-0.03601066124522026
1970-01-01 00:00:00.000000011,-1.552591945871688,0.07826970251399608,0.22487050487396446,0.008321986677952427
1970-01-01 00:00:00.000000011,-1.3748784696798884,-0.18362632412636162,-0.09251786871749682,0.04139519153666776
1970-01-01 00:00:00.000000011,-1.1673611970167381,-0.33977644282882197,-0.2764489491494358,0.05575219590901866
1970-01-01 00:00:00.000000011,-1.0302225557771962,-0.3997150832358332,-0.280981209301289,0.05453664702280293
1970-01-01 00:00:00.000000011,-0.9703657046229491,-0.32517862580907614,-0.18269152325577426,0.044089452436253576
