time,ax,ay,az,speed
1970-01-01 00:00:00.000000000,-0.3812501910739193,0.4242087197292946,3.452968574973948,0.9288704247174278
1970-01-01 00:00:00.000000029,-0.20192502097357445,0.19715425988998625,3.163906877367309,0.8653155155867642
1970-01-01 00:00:00.000000029,-0.05135789564640478,-0.20769550353326788,2.11586531310979,0.9182038459425966
1970-01-01 00:00:00.000000029,0.1556470051571533,-0.4738257721112691,1.045563659773977,0.9725025586913119
1970-01-01 00:00:00.000000029,0.4706831166668667,-0.6271618923770749,0.07279195188151272,1.01301084046774
1970-01-01 00:00:00.000000029,0.7212490182228116,-0.7595203031209564,-0.6301559400243514,1.0440223035374483
1970-01-01 00:00:00.000000029,0.9568444145441519,-0.959652552297109,-0.916768592947367,1.061032245285989
1970-01-01 00:00:00.000000029,1.1526881144965135,-1.1561321478042141,-0.8776296084578082,1.0640219309320045
1970-01-01 00:00:00.000000029,1.2688279522878247,-1.335357914265225,-0.608673311262012,1.053324564680575
1970-01-01 00:00:00.000000029,1.189102829596678,-1.4564124058311343,-0.1144306640908006,1.0330675976202273
1970-01-01 00:00:00.000000029,0.9400229129707126,-1.5290211445792912,0.4778012794065109,1.0134636203126681
1970-01-01 00:00:00.000000029,0.688270928927015,-1.6210636390688915,0.9711600668074328,1.001752160213638
1970-01-01 00:00:00.000000029,0.5283249112430526,-1.7388977778471515,1.244319856827806,0.999851188540172
1970-01-01 00:00:00.000000029,0.4760560515338335,-1.7829090881768452,1.1717433421706895,1.0057043556493621
1970-01-01 00:00:00.000000029,0.46275496905537844,-1.750864888951764,0.7915330957567156,1.018156278619505
1970-01-01 00:00:00.000000029,0.4345051640826702,-1.657675160195475,0.2824179965859381,1.032490071053574
1970-01-01 00:00:00.000000029,0.37235524528161446,-1.535632341589003,-0.19551509319933072,1.0450148852150465
1970-01-01 00:00:00.000000029,0.28283921777828125,-1.3945494464619899,-0.6514768967222617,1.0579675966492763
1970-01-01 00:00:00.000000029,0.22172723169932293,-1.282565917156894,-1.0597243225739221,1.06995417069423
1970-01-01 00:00:00.000000029,0.18068982075847934,-1.1998374531848517,-1.4261869491843346,1.0808950263352097
1970-01-01 00:00:00.000000029,0.14702967635703312,-1.1041102731012438,-1.6883882596702868,1.0883537367402611
1970-01-01 00:00:00.000000029,0.14349529938499617,-1.0386376958130756,-1.8377938371777436,1.0923652410384868
1970-01-01 00:00:00.000000030,0.16075642999218087,-0.9660154061818514,-1.9589532364588378,1.093807029619807
1970-01-01 00:00:00.000000030,0.16301271684564433,-0.8523373146348655,-2.1125025907487993,1.0970726658093726
1970-01-01 00:00:00.000000030,0.21782617279968633,-0.6939363932939653,-2.2254610180932044,1.0955177935497697
1970-01-01 00:00:00.000000030,0.27478712344961065,-0.4900442722038429,-2.331043865669381,1.09101594278372
1970-01-01 00:00:00.000000030,0.30662948555491476,-0.27634421051082636,-2.4518086092811355,1.0880345579606379
1970-01-01 00:00:00.000000030,0.3552503134720384,-0.1385410184509796,-2.5350801917837513,1.083832665942009
1970-01-01 00:00:00.000000030,0.34594306078682696,-0.024767185704261077,-2.555860466918799,1.0801506750859464
1970-01-01 00:00:00.000000030,0.33449615538646177,-0.0004422014701819313,-2.4434216209299464,1.0751735061234116
1970-01-01 00:00:00.000000030,0.32601393374217974,-0.08038715144377,-2.2597381956428864,1.0715262434440334
1970-01-01 00:00:00.000000030,0.3263044908520445,-0.173204958028385,-2.0727037319447703,1.0680481469996956
1970-01-01 00:00:00.000000030,0.3326852370754265,-0.26593843874842227,-1.8730542902916865,1.061189152772938
1970-01-01 00:00:00.000000030,0.2626325102334676,-0.25244292659260564,-1.745072144344371,1.0539560901070189
1970-01-01 00:00:00.000000030,0.14804706164875808,-0.11827973069039684,-1.5621527584447854,1.0425732793290996
1970-01-01 00:00:00.000000030,0.04274380493089782,0.033587600157584094,-1.4583549314591373,1.0354270046353535
1970-01-01 00:00:00.000000030,0.006027757281916327,0.17748080258439133,-1.411094523312701,1.031498864115661
1970-01-01 00:00:00.000000030,0.05795824030393741,0.25754325889779156,-1.3920480087069822,1.0293986664152968
1970-01-01 00:00:00.000000030,0.15623872192496951,0.3245817730003761,-1.3758071264314293,1.025866865092738
1970-01-01 00:00:00.000000030,0.2397491395616642,0.39714564170723055,-1.3637633753467457,1.025194871334491
1970-01-01 00:00:00.000000030,0.40047393586885655,0.5448214293595299,-1.299333131666026,1.0160726878541912
1970-01-01 00:00:00.000000030,0.5224818374625999,0.6969131283682967,-1.2093510022677365,1.0078550287478873
1970-01-01 00:00:00.000000030,0.6855440404364465,0.8446271961358829,-0.7803497700114641,0.9840143985411537
1970-01-01 00:00:00.000000030,0.7782704669884493,0.9195287449447055,-0.2985852103976048,0.962248460158431
1970-01-01 00:00:00.000000030,0.8475328020393734,0.9691095647812502,-0.04499026331378614,0.9483618237975682
1970-01-01 00:00:00.000000030,0.8788827552232287,1.0552279998390324,0.3926465966153698,0.9175264287169141
1970-01-01 00:00:00.000000030,0.6028494442704142,0.9967451025055476,0.8711470435616686,0.8897575738430071
1970-01-01 00:00:00.000000030,0.015833432659066893,1.0289921309233372,1.3004259426623532,0.8682375788079388
1970-01-01 00:00:00.000000030,-0.6365395447450004,1.0859491507066303,2.7902601266040024,0.8177709229044419
1970-01-01 00:00:00.000000030,-1.1237636967771192,0.6572755459601497,4.152238083450138,0.7924250980674494
1970-01-01 00:00:00.000000030,-1.3413186078865125,0.15690267946542072,4.816580215797687,0.7893259648156813
1970-01-01 00:00:00.000000030,-1.4722985068294985,-0.35032423045059535,4.966006713030623,0.8051620725500774
1970-01-01 00:00:00.000000030,-1.5381982208636025,-0.6958818020600935,4.68537613560047,0.8350322442587167
1970-01-01 00:00:00.000000030,-1.4340950134938915,-0.7748941025132847,3.9527392708407287,0.8695059957450256
1970-01-01 00:00:00.000000030,-1.2319926586110144,-0.6768554371513765,2.8379877057464484,0.9062403201552102
1970-01-01 00:00:00.000000030,-1.0747718735188823,-0.6237410436156334,1.7993904412716237,0.9406514560548935
1970-01-01 00:00:00.000000030,-0.9967257148405908,-0.6477700610854451,1.0119368879726807,0.9729388233632024
1970-01-01 00:00:00.000000030,-0.8696228806109271,-0.6670676234632801,0.4718885162188575,0.9928869076306732
1970-01-01 00:00:00.000000030,-0.7745605439639852,-0.6649040859570824,0.1772047364025109,0.9983665197820005
1970-01-01 00:00:00.000000030,-0.8332523615780935,-0.7181716752941348,0.12981038873273218,0.9953872992181246
1970-01-01 00:00:00.000000030,-1.0804174865355491,-0.8231844782163455,0.23022242814947258,0.994844378526569
1970-01-01 00:00:00.000000030,-1.3461544175598712,-0.8401466551256435,0.25385775272458566,0.9982806530717822
1970-01-01 00:00:00.000000030,-1.5079547027420837,-0.7844650596391349,0.20024704595123782,1.0002505555994385
1970-01-01 00:00:00.000000030,-1.6172538278919195,-0.8111001014038846,0.1821223416859564,1.0030013524911732
1970-01-01 00:00:00.000000030,-1.7021605502686483,-0.9007869839851382,0.18150687385018802,1.0104438065938328
1970-01-01 00:00:00.000000030,-1.6746953675907275,-0.9883539110869869,0.24035780737698081,1.015983131301164
1970-01-01 00:00:00.000000030,-1.5388334552178453,-1.143641107838448,0.19928143285335695,1.027435396713649
1970-01-01 00:00:00.000000030,-1.3073875878377677,-1.2769802305894777,0.0032166496252920744,1.0529555005799867
1970-01-01 00:00:00.000000030,-1.0607492614306941,-1.2881421137275768,-0.3157488886205961,1.4142532739468576
1970-01-01 00:00:00.000000030,-0.8005105472422738,-1.1906925756063371,-0.7162723779326232,1.43698934211237
1970-01-01 00:00:00.000000030,-0.5783675478530712,-1.0387687574170297,-1.2018166453337322,1.4491898149920668
1970-01-01 00:00:00.000000030,-0.37914373128175444,-0.8299492725771189,-1.706662444001803,1.4601924464282225
1970-01-01 00:00:00.000000030,-0.1839472840518673,-0.6221364609006532,-2.130344201450424,1.4666735615128985
1970-01-01 00:00:00.000000030,-0.036591625582635234,-0.3803067200533282,-2.475202543472454,1.4703643477856738
1970-01-01 00:00:00.000000030,0.10710542598892903,-0.15405400488183335,-2.7080334966484623,1.46819698603611
1970-01-01 00:00:00.000000030,0.17910216819097513,0.024492230391383152,-2.8380582238884986,1.4675400990152814
1970-01-01 00:00:00.000000030,0.2859482215628355,0.13106331067811333,-2.8538194631120732,1.4640469542838441
1970-01-01 00:00:00.000000030,0.38706550330068507,0.17094693266686745,-2.8083375053883035,1.4613996230761332
1970-01-01 00:00:00.000000030,0.5054041762639143,0.20496483735074444,-2.7508322163486927,1.4571460164736432
1970-01-01 00:00:00.000000030,0.6030693841816135,0.1892859606508,-2.637950051178827,1.4506672882382492
1970-01-01 00:00:00.000000030,0.6240869098189341,0.14678752612914125,-2.4827877395713545,1.4448443735457945
1970-01-01 00:00:00.000000030,0.6094341655711257,0.15560163659858092,-2.265694525485181,1.434697370939215
1970-01-01 00:00:00.000000030,0.5493411692243708,0.19400067517976516,-2.0514204353813064,1.4244708366386714
1970-01-01 00:00:00.000000030,0.4664235845703465,0.2340544160501324,-1.971019407015037,1.420595222778407
1970-01-01 00:00:00.000000030,0.4123097238750585,0.36401901542523174,-1.927553096773276,1.4130928173081851
1970-01-01 00:00:00.000000030,0.3315810132064113,0.523391771731596,-1.8939814345629447,1.404785797521503
1970-01-01 00:00:00.000000030,0.22327941589266648,0.6564567115655162,-1.8210477461885746,1.3979637876884976
1970-01-01 00:00:00.000000030,0.14328520205520126,0.7588478291281904,-1.7163993239377129,1.3910870403372284
1970-01-01 00:00:00.000000030,0.09130120669303445,0.8104207103687258,-1.5437479646565764,1.3823145185682038
1970-01-01 00:00:00.000000030,0.031124400087918426,0.8213943712673416,-1.2659127013499145,1.3732301631226536
1970-01-01 00:00:00.000000030,0.02058136019400507,0.7930113122625904,-0.9601109733780185,1.3636260658349737
1970-01-01 00:00:00.000000030,0.03218165849948577,0.7577989099697251,-0.7391957297094496,1.3555036462472205
1970-01-01 00:00:00.000000030,0.01472186307325242,0.7892793819408934,-0.6264536037561852,1.3496346895393607
1970-01-01 00:00:00.000000030,-0.00805018431440363,0.816253162162694,-0.4115428119792552,1.341083912722247
1970-01-01 00:00:00.000000030,-0.012614654755701088,0.7251711978407757,-0.009587118294802015,1.3281883370286816
1970-01-01 00:00:00.000000030,-0.051378652321928786,0.5667233834425728,0.45604482192393303,1.3162975726349408
1970-01-01 00:00:00.000000030,-0.09800951023178683,0.4289031841336782,0.925340339265995,1.3073313348181461
1970-01-01 00:00:00.000000030,-0.042757343479525436,0.33331106918930364,1.3477928192805018,1.2942391301560543
1970-01-01 00:00:00.000000030,-0.016140827234307584,0.2275020908383017,1.6220721881683395,1.2870737679345339
1970-01-01 00:00:00.000000030,-0.00517114201716759,0.14061566099069667,1.7795265388105226,1.2810650633006235
1970-01-01 00:00:00.000000030,-0.08263718722057084,0.051862959900022265,1.907886563705194,1.2773673268501762
1970-01-01 00:00:00.000000030,-0.21364510366966039,0.08153485113967474,2.0552612760594107,1.2726455381623027
1970-01-01 00:00:00.000000030,-0.28839170092668154,0.33637382351732575,2.020963692545053,1.2638001878565825
1970-01-01 00:00:00.000000030,-0.3885323794113969,0.6717884810330359,1.6819885198619264,1.2641318128487675
1970-01-01 00:00:00.000000030,-0.4807238756727977,0.9627774084297209,1.3035885877820312,1.271563184793702
1970-01-01 00:00:00.000000030,-0.4445400029908565,1.2784090066671223,1.2201108103505656,1.2662238183572407
1970-01-01 00:00:00.000000030,-0.3226792244486135,1.6477470891353319,1.2328846092359673,1.2529034100829413
1970-01-01 00:00:00.000000030,-0.18072319479700744,1.8969895328032813,1.2540007718370452,1.241337568377098
1970-01-01 00:00:00.000000030,-0.08125434844020726,1.8034999854021276,1.3576659192131257,1.2386828066260416
1970-01-01 00:00:00.000000030,-0.03717462909154584,1.3417456436425284,1.6972146175056,1.2402759627927784
1970-01-01 00:00:00.000000030,-0.07303220730140733,0.6780232917505726,2.2215196522425225,1.2461012692618967
1970-01-01 00:00:00.000000030,-0.09655433080497525,0.07558323022542293,2.644515989644943,1.2581004855593072
1970-01-01 00:00:00.000000030,0.02270539947560052,-0.33324415516414646,2.734443988670981,1.2695859430178698
1970-01-01 00:00:00.000000030,0.12833267551774066,-0.5595036375154513,2.69914348661337,1.2773339397434362
1970-01-01 00:00:00.000000030,0.16563979473955268,-0.6928061926093292,2.47297801503371,1.2919204768770784
1970-01-01 00:00:00.000000031,0.23000212943689896,-0.6828305909163978,2.0346958913168374,1.3108940896361492
1970-01-01 00:00:00.000000031,0.36972587632123866,-0.5089922586313084,1.4484385540229865,1.3297896284794397
1970-01-01 00:00:00.000000031,0.5964732347273114,-0.30066505686800804,0.8324404025647107,1.3456633962480722
1970-01-01 00:00:00.000000031,0.8328721693218548,-0.24709319404365704,0.3893233979854682,1.3579353346582144
1970-01-01 00:00:00.000000031,1.0054723862852635,-0.3192272424993492,0.2309152828543124,1.363156761013529
1970-01-01 00:00:00.000000031,1.0815182227554145,-0.44789544775642687,0.2695361447633049,1.364386300067845
1970-01-01 00:00:00.000000031,1.0985859115114003,-0.6293398954373405,0.44117057724175535,1.3628254739835628
1970-01-01 00:00:00.000000031,1.0603708383663135,-0.8561127301531635,0.5802384396626916,1.3630126780654013
1970-01-01 00:00:00.000000031,0.9362902784641853,-1.0482866260814785,0.6626844862674895,1.3688762080772874
1970-01-01 00:00:00.000000031,0.8597778110440331,-1.1589521805981426,0.6009166830081347,1.3782611151484347
1970-01-01 00:00:00.000000031,0.8606195850107327,-1.1917462566626282,0.3637419483579037,1.3887920760146462
1970-01-01 00:00:00.000000031,0.8654684038649665,-1.2262623769985515,0.012050294949535141,1.4040014912197256
1970-01-01 00:00:00.000000031,0.8874947422147373,-1.2582279857747647,-0.37927404819696187,1.4213003051198823
1970-01-01 00:00:00.000000031,0.9456188510875716,-1.2730110420439014,-0.7795673993913124,1.4369311255717285
1970-01-01 00:00:00.000000031,1.0019993471287065,-1.2826461599765064,-1.0886217459344174,1.4492062564292894
1970-01-01 00:00:00.000000031,1.0607153136210172,-1.3327958154805506,-1.3375802789967508,1.4602194415387442
1970-01-01 00:00:00.000000031,1.1098090090168191,-1.4520703862862177,-1.5252753152657046,1.4704313185073854
1970-01-01 00:00:00.000000031,1.1199127435986347,-1.626516323858673,-1.5982649427886249,1.4809566302277497
1970-01-01 00:00:00.000000031,1.155173018967919,-1.725880095586493,-1.8898878777157189,1.496330141631754
1970-01-01 00:00:00.000000031,1.212012447875999,-1.6262150507340614,-2.3326765492931987,1.5089305817506624
1970-01-01 00:00:00.000000031,1.2582961070028806,-1.4016501869762523,-2.8121028659437606,1.5180138345714662
1970-01-01 00:00:00.000000031,1.2869463514835615,-1.1631744667204018,-3.288935300283986,1.5255506642617174
1970-01-01 00:00:00.000000031,1.2805803214975082,-0.8918755910581729,-3.6269654183074533,1.5269811055897304
1970-01-01 00:00:00.000000031,1.2448897900429374,-0.5904952948821789,-3.812159797049199,1.5228525653074998
1970-01-01 00:00:00.000000031,1.2131500717871386,-0.36772899501964396,-3.86758072627993,1.5167487151321553
1970-01-01 00:00:00.000000031,1.1895910208092495,-0.2533633256616257,-3.7776955675223247,1.5071291699256768
1970-01-01 00:00:00.000000031,1.1166013954151088,-0.14714134097830678,-3.554260139956892,1.49462051140552
1970-01-01 00:00:00.000000031,1.0391606534110092,-0.07592878490914534,-3.2938041154702415,1.4840909155453161
1970-01-01 00:00:00.000000031,1.0234090992315044,-0.003531489820893914,-2.9790466159919475,1.4681807517441359
1970-01-01 00:00:00.000000031,0.9719888878642231,0.03148669933222089,-2.589546376725114,1.4506397028120348
1970-01-01 00:00:00.000000031,0.8819730387664622,0.09446834911834222,-2.1979095782586633,1.4328293831867172
1970-01-01 00:00:00.000000031,0.7796790265486737,0.20339275819402342,-1.8197782049277855,1.4129298562387704
1970-01-01 00:00:00.000000031,0.6343625924283768,0.33533795671306244,-1.4979001201987683,1.3974207515313013
1970-01-01 00:00:00.000000031,0.531982583494228,0.4294260050762675,-1.2948311084213637,1.3890665488024128
1970-01-01 00:00:00.000000031,0.5128321392588105,0.5406502552869986,-1.1810537322372112,1.3818043227531294
1970-01-01 00:00:00.000000031,0.5256879277736701,0.6326242278703582,-1.1291263217856722,1.3770856874081898
1970-01-01 00:00:00.000000031,0.5629097305772037,0.6176219489847603,-0.9779389042038519,1.3698694707185355
1970-01-01 00:00:00.000000031,0.5434145790262752,0.5537757563671781,-0.764616730069326,1.3629395653197132
1970-01-01 00:00:00.000000031,0.49247556008987337,0.5168123976742897,-0.4842238829227111,1.3549298993373975
1970-01-01 00:00:00.000000031,0.4776440879440569,0.5292373301712541,-0.18034975951125065,1.3421882478010916
1970-01-01 00:00:00.000000031,0.4432431369537685,0.4704596375710247,0.31264449674042005,1.3249590935919782
1970-01-01 00:00:00.000000031,0.3889198038453086,0.30213223983763604,1.000710527093811,1.3036088164519943
1970-01-01 00:00:00.000000031,0.28366598087248285,0.10833970231448274,1.627768599061805,1.2866499965596634
1970-01-01 00:00:00.000000031,0.16193616757578985,-0.02822826630264602,2.047773658618931,1.2776152833813699
1970-01-01 00:00:00.000000031,0.08810345455759766,-0.04795721146847921,2.234665864666758,1.274450517433192
1970-01-01 00:00:00.000000031,0.10588035297841708,0.1271654735629874,2.1819866042928706,1.269272785902635
1970-01-01 00:00:00.000000031,0.11172413125385675,0.5025314526313183,1.9500789062029515,1.2599633385786124
1970-01-01 00:00:00.000000031,0.016912686292270135,0.9444331985299874,1.7233933142341828,1.245928988445682
1970-01-01 00:00:00.000000031,-0.23410662631701437,1.354507940450312,1.688883610891935,1.2304045639051673
1970-01-01 00:00:00.000000031,-0.5107164436970489,1.6167394687215622,2.115922454941131,1.2073946937653968
1970-01-01 00:00:00.000000031,-0.6778843077606407,1.5870164271733214,3.2305813846601135,1.151753061580497
1970-01-01 00:00:00.000000031,-0.8121864173507545,1.0055040271460087,4.132574893069902,0.655680112774488
1970-01-01 00:00:00.000000031,-0.9666271070071416,0.43223608192324425,4.469584504381446,0.6488860092796342
1970-01-01 00:00:00.000000031,-1.066965317947738,-0.25671594112869545,4.624620599318905,0.6692882616601875
1970-01-01 00:00:00.000000031,-1.1367351379039297,-0.8210225306202001,4.562715639006679,0.6910732671178677
1970-01-01 00:00:00.000000031,-1.25675435877616,-1.1638150160177931,4.315779023460394,0.7133995699159532
1970-01-01 00:00:00.000000031,-1.3864500203148389,-1.403802589448361,3.661498306835809,0.7455276828195424
1970-01-01 00:00:00.000000031,-1.5549730859907749,-1.3511156885897255,2.432414471604729,0.7802193265047366
1970-01-01 00:00:00.000000031,-1.9965814401104922,-0.9167571018370114,0.798256327129103,0.831590283240335
1970-01-01 00:00:00.000000031,-2.2467574956577416,-0.5608458706793713,-0.28901344878875135,0.8648307611092789
1970-01-01 00:00:00.000000031,-2.358251565197379,-0.33474134708170017,-0.9602793850010722,0.8868125759292803
1970-01-01 00:00:00.000000031,-2.342530325713061,-0.12852790518353385,-1.539887350897207,0.9043836341190459
1970-01-01 00:00:00.000000031,-2.23743973536518,0.023510919070605422,-1.9576560772792162,0.917200807024026
1970-01-01 00:00:00.000000031,-2.061878473588505,0.10230932449857894,-2.2278401312329197,0.9256570097331382
1970-01-01 00:00:00.000000031,-1.8563161294933352,0.11646483888153374,-2.3164034695191176,0.9297947020559905
1970-01-01 00:00:00.000000031,-1.61931949311717,0.06792864494969555,-2.289366226136392,0.9311195152202473
1970-01-01 00:00:00.000000031,-1.376259297148709,-0.034287576196721986,-2.248380787120475,0.9351683077284564
1970-01-01 00:00:00.000000031,-1.0866704740164286,-0.09987549608031088,-2.2730973199355247,0.9388747494237306
1970-01-01 00:00:00.000000031,-0.7896909025210065,-0.11328756295004581,-2.3261835961170796,0.9401454315286573
1970-01-01 00:00:00.000000031,-0.5395228452946457,-0.17974857500601085,-2.5047196466607247,0.9508242802096842
1970-01-01 00:00:00.000000031,-0.24755193752890162,-0.23505123926373114,-2.7963741407739624,0.9636151068761091
1970-01-01 00:00:00.000000031,0.03839349509899881,-0.2372687548741844,-3.0680160239957073,0.9727819854805806
1970-01-01 00:00:00.000000031,0.2875952261472747,-0.21831529761074847,-3.3371686623816412,0.9810205956228172
1970-01-01 00:00:00.000000031,0.5044206147416391,-0.16249782898141502,-3.5407914086739676,0.9861527977649003
1970-01-01 00:00:00.000000031,0.7092495719874634,-0.054650126032737306,-3.649723412960803,0.98621315267898
1970-01-01 00:00:00.000000031,0.9135459952011199,0.049491923659692766,-3.639193243705472,0.9807820719245709
1970-01-01 00:00:00.000000031,1.0831959320388942,0.14412669373579795,-3.605299538195509,0.9747296679706184
1970-01-01 00:00:00.000000031,1.2217567476093452,0.24553058418397228,-3.5502925105961483,0.9671529900540065
1970-01-01 00:00:00.000000031,1.3182965567120841,0.3262660318989772,-3.4115312952329875,0.9561002659498268
1970-01-01 00:00:00.000000031,1.3438210753693622,0.43003330021406233,-3.1946714375688514,0.9405674635117276
1970-01-01 00:00:00.000000031,1.2801207805412353,0.5401891985508347,-2.8390413944558888,0.9214096233316873
1970-01-01 00:00:00.000000031,1.1723760321387209,0.6451040368813266,-2.469417236517282,0.9041535924614573
1970-01-01 00:00:00.000000031,1.0847663669473964,0.7992139977445422,-2.163629791011171,0.8889638234219838
1970-01-01 00:00:00.000000031,1.061732974219528,0.9801692725934156,-1.902091750412227,0.8709972600989828
1970-01-01 00:00:00.000000031,1.003693059334695,1.165275756160484,-1.6929280762361525,0.8545138429281289
1970-01-01 00:00:00.000000031,0.9105676789020271,1.3898684763104943,-1.3993739753930459,0.8351010813261105
1970-01-01 00:00:00.000000031,0.8210542057863088,1.5074958948024608,-0.9438464687964842,0.8161703932512256
1970-01-01 00:00:00.000000031,0.7989431405705195,1.4389149494691937,-0.45808641599882427,0.8045260523649567
1970-01-01 00:00:00.000000031,0.8912943639921633,1.2558922177721665,-0.01180228626537299,0.7953497473037691
1970-01-01 00:00:00.000000031,1.0040561408130095,1.1124217288081255,0.28167148526259045,0.7887961730604253
1970-01-01 00:00:00.000000031,1.0951170998915165,1.0839051176814078,0.42134304598947636,0.7831898327566579
1970-01-01 00:00:00.000000031,1.1525435492884268,1.0942297007651116,0.5358040086284362,0.7751748133392986
1970-01-01 00:00:00.000000031,1.121928981672407,1.1036322872029949,0.6887006712046781,0.766497861425507
1970-01-01 00:00:00.000000031,1.023555625649272,1.0661131735916087,0.9213852337737279,0.7591708148200285
1970-01-01 00:00:00.000000031,0.9312550293521499,0.9735338209090778,1.2308110618246513,0.7498568096487195
1970-01-01 00:00:00.000000032,0.805311849450051,0.7500540657205206,1.591267510258915,0.7443493702572448
1970-01-01 00:00:00.000000032,0.67086820504242,0.44761425070413874,1.9031000123252024,0.7438967342508116
1970-01-01 00:00:00.000000032,0.5452292515981936,0.25624048920411646,2.2131426084344037,0.7382044902223001
1970-01-01 00:00:00.000000032,0.389636225696523,0.28359139263730715,2.414462850234008,0.7269691863764066
1970-01-01 00:00:00.000000032,0.166164328017073,0.4962860000331558,2.5729132359137714,0.7121546797653736
1970-01-01 00:00:00.000000032,-0.07625967710621451,0.8333613960569018,2.7714253072367208,0.6950702048823754
1970-01-01 00:00:00.000000032,-0.24020148012909115,1.156639390779169,2.907737756753709,0.6835407991295673
1970-01-01 00:00:00.000000032,-0.2467602695217045,1.334670328047791,2.926262298180618,0.6759317944778741
1970-01-01 00:00:00.000000032,-0.2697489425677505,1.270852771050325,2.742737598662097,0.6846432061069546
1970-01-01 00:00:00.000000032,-0.30671474513137825,0.8985425714519777,2.5478409468370096,0.7062551013456264
1970-01-01 00:00:00.000000032,-0.33254830616985653,0.36133854204334953,2.4205098498274173,0.7324186639099931
1970-01-01 00:00:00.000000032,-0.33057521561640096,-0.17760100821180866,2.2707259265730615,0.7604820020887507
1970-01-01 00:00:00.000000032,-0.268699803884471,-0.6525418775855442,2.1431140538218685,0.781251528457683
1970-01-01 00:00:00.000000032,-0.26847134839408227,-0.9497643957289574,1.8346188174863316,0.8012068069324242
1970-01-01 00:00:00.000000032,-0.3239467511515557,-1.0219779697898748,1.860712855615544,0.7970833458189761
1970-01-01 00:00:00.000000032,-0.5407032126373019,-0.8135271177069203,2.2347419550240977,0.7767894508654554
1970-01-01 00:00:00.000000032,-0.7322400389385008,-0.5824383354820446,2.5881358028501005,0.763679950158078
1970-01-01 00:00:00.000000032,-0.6803511426551903,-0.7285640816690899,3.0786685805678298,0.7529453118366208
1970-01-01 00:00:00.000000032,-0.5775490146076481,-1.1270270436665735,3.4976806983981135,0.7542405451423104
1970-01-01 00:00:00.000000032,-0.4134639429313218,-1.5294400993969366,3.7804362741126507,0.7599076547319236
1970-01-01 00:00:00.000000032,-0.22025178168813023,-1.8885823397744967,3.8533720029197256,0.7691716826906784
1970-01-01 00:00:00.000000032,-0.07800343496144392,-2.1567878865558523,3.5661029926785988,0.7898552156698243
1970-01-01 00:00:00.000000032,0.06765114300077696,-2.3207866752754542,3.205312721360529,0.8074553121474186
1970-01-01 00:00:00.000000032,0.13851762969388,-2.407315639924719,2.574477190012358,0.8352071680619175
1970-01-01 00:00:00.000000032,0.23069525857175893,-2.2810881942337735,1.7012188174313145,0.8654178837772868
1970-01-01 00:00:00.000000032,0.37691522570441366,-2.04737788251077,0.7431186025095383,0.8923956655959969
1970-01-01 00:00:00.000000032,0.5063795293243039,-1.7853418454614687,-0.1742437615782317,0.9186701252049574
1970-01-01 00:00:00.000000032,0.6784447821304739,-1.6074193005489674,-0.8982675207218903,0.9377626091325119
1970-01-01 00:00:00.000000032,0.7991236680796103,-1.5352742271193442,-1.4992742556714636,0.9572576134089781
1970-01-01 00:00:00.000000032,0.9067844101782827,-1.5053474797757267,-1.9925000305100113,0.9744625546022523
1970-01-01 00:00:00.000000032,1.0089800337561854,-1.4545703953048177,-2.393689236578378,0.9844009421670762
1970-01-01 00:00:00.000000032,1.0172515780661109,-1.35662613200318,-2.725682295655038,0.99242219515474
1970-01-01 00:00:00.000000032,1.0041335161475515,-1.2145500819276225,-2.9899476592542302,0.9974156636590891
1970-01-01 00:00:00.000000032,1.0007807272186726,-1.101577189582436,-3.16825561374903,0.9990818638956052
1970-01-01 00:00:00.000000032,0.9767525688419313,-0.9855988440525867,-3.2605187192240233,0.9968621040625961
1970-01-01 00:00:00.000000032,0.9156331264150857,-0.9089688169309474,-3.2651270223930986,0.9934499784957578
1970-01-01 00:00:00.000000032,0.8358582504053469,-0.8693455752458631,-3.210697247552513,0.9901332029547335
1970-01-01 00:00:00.000000032,0.7645730186431301,-0.7945644666397892,-3.1549014134572055,0.9855759991443489
1970-01-01 00:00:00.000000032,0.7037989919635999,-0.7007984184837854,-3.0885443102473773,0.980147629282125
1970-01-01 00:00:00.000000032,0.6616174368546743,-0.6094266778322402,-2.9682288086317707,0.9726083958579986
1970-01-01 00:00:00.000000032,0.6310961892638152,-0.5461831570940715,-2.8460947969177712,0.9644500345712466
1970-01-01 00:00:00.000000032,0.5709186175293788,-0.47561397641811826,-2.714426120858503,0.956079374649976
1970-01-01 00:00:00.000000032,0.4918784234289593,-0.42321916416310784,-2.5712354242298674,0.9485003728048316
1970-01-01 00:00:00.000000032,0.4109396677646929,-0.39134547087567234,-2.3989723482377925,0.9400209259853591
1970-01-01 00:00:00.000000032,0.31071899841734646,-0.3705523289617658,-2.178461757672218,0.9312530991129497
1970-01-01 00:00:00.000000032,0.22087818492902356,-0.37137189550612115,-1.9272995933262305,0.9226405154448996
1970-01-01 00:00:00.000000032,0.1528940852046379,-0.44705889158024326,-1.6491973040127572,0.9161030258173666
1970-01-01 00:00:00.000000032,0.11027543223245559,-0.5713937158828698,-1.4732031537406212,0.9165978926963618
1970-01-01 00:00:00.000000032,0.13478193645652428,-0.6176787626041094,-1.51439517233091,0.9215650014322885
1970-01-01 00:00:00.000000032,0.20580847757687235,-0.6207416526744404,-1.6802752774402892,0.9274806175238477
1970-01-01 00:00:00.000000032,0.269849375929666,-0.5614352361520301,-1.7721266951031605,0.927954544960099
1970-01-01 00:00:00.000000032,0.30804681002729534,-0.46350834653907014,-1.8426441134537181,0.928425723084914
1970-01-01 00:00:00.000000032,0.3347687151684488,-0.3401797967108574,-1.6161540444552398,0.9792825518193347
1970-01-01 00:00:00.000000032,0.2597301557104391,-0.48739769715410525,-0.9345666193377952,0.9620708177123417
1970-01-01 00:00:00.000000032,0.1947571302442023,-0.7102522770654691,-0.2578389282807159,0.9468544499736408
1970-01-01 00:00:00.000000032,0.18479795007786426,-0.951837561913972,0.4604917774580575,0.9314947274507863
1970-01-01 00:00:00.000000032,0.2503242968404944,-1.1218235031521484,1.0586553111078951,0.9119607568324499
1970-01-01 00:00:00.000000032,0.22304509708256998,-1.2253308083097447,1.4852678373393775,0.8944310960848904
1970-01-01 00:00:00.000000032,0.06622323082972381,-1.169988532304037,1.8356960859622413,0.8707178005417755
1970-01-01 00:00:00.000000032,-0.3181569539528011,-0.9685560673440661,1.9743299801963519,0.8516721892734795
1970-01-01 00:00:00.000000032,-0.8519341560458074,-0.6177050596108076,2.0845336057142227,0.8286707103923805
1970-01-01 00:00:00.000000032,-1.5163288034897437,0.2191385539093603,2.486696470144764,0.7919752615531206
1970-01-01 00:00:00.000000032,-1.9181225367930053,0.8922833509303858,3.164108423961164,0.7534178614839042
1970-01-01 00:00:00.000000032,-2.0021524480484922,0.961073309308795,3.782792364904413,0.7297875607852453
1970-01-01 00:00:00.000000032,-2.01918959153191,0.7337609981223421,4.398350426173237,0.7188304516081593
1970-01-01 00:00:00.000000032,-1.9320806905189483,0.29619039595899366,4.9183858977375285,0.715270562774753
1970-01-01 00:00:00.000000032,-1.8607698859984867,-0.19804808949438565,5.186641030475107,0.7229661352204638
1970-01-01 00:00:00.000000032,-1.8160947507506398,-0.544165473625138,4.970245263772559,0.7450576010351553
1970-01-01 00:00:00.000000032,-1.7468307854853056,-0.7025805314123322,4.301820258355994,0.7763474338760203
1970-01-01 00:00:00.000000032,-1.669179830890103,-0.6767501635476305,3.4276604227993643,0.8060009987527241
1970-01-01 00:00:00.000000032,-1.6595826906690192,-0.5609558685957163,2.5037291730048117,0.8353167224007471
1970-01-01 00:00:00.000000032,-1.6827835275280276,-0.4456155535140839,1.6964699833531678,0.8619124152653025
1970-01-01 00:00:00.000000032,-1.7011437496541897,-0.35774761264250243,0.9138768411727737,0.8901541275797171
1970-01-01 00:00:00.000000032,-1.6697915681824727,-0.3069102053066843,0.13486451083850684,0.9198279860890934
1970-01-01 00:00:00.000000032,-1.5817234553474453,-0.26729321522058963,-0.6110003331156965,0.9476553864184459
1970-01-01 00:00:00.000000032,-1.460668138616121,-0.20064231312916872,-1.1725092124422496,0.9671509139042515
1970-01-01 00:00:00.000000032,-1.3253977704119622,-0.17427283872195284,-1.5709720022800349,0.9821148637165927
1970-01-01 00:00:00.000000032,-1.174218558518614,-0.14776234641254754,-1.8867728631676783,0.9978315665699937
1970-01-01 00:00:00.000000032,-0.8919278609438367,-0.10928763389614315,-2.1658724227266215,1.006279488369147
1970-01-01 00:00:00.000000032,-0.6295761244260206,-0.05806216008878662,-2.3468409417565654,1.0075754022667258
1970-01-01 00:00:00.000000032,-0.47508329155128104,0.015162786050955446,-2.4752795301485646,1.0127290215597617
1970-01-01 00:00:00.000000032,-0.23657183347125077,0.057148549423192786,-2.6460152062961,1.0167185199806583
1970-01-01 00:00:00.000000032,-0.02532217377711697,0.01993066311021805,-2.7250484251111518,1.0216728068282241
1970-01-01 00:00:00.000000032,0.20439787524735714,0.09351207394670974,-2.817759552311003,1.0218991579506531
1970-01-01 00:00:00.000000032,0.41218286061599807,0.11894806119735366,-2.990406759539477,1.0245763597610904
1970-01-01 00:00:00.000000032,0.5435655062590202,0.16404457870049066,-3.1272639549362378,1.0285407300927019
1970-01-01 00:00:00.000000032,0.6907292254374909,0.25306646458562704,-3.252909122869224,1.0297534277868288
1970-01-01 00:00:00.000000032,0.8349039161184557,0.3285802168335393,-3.2914521108107384,1.0255512460489977
1970-01-01 00:00:00.000000032,0.8973659093075329,0.39084525473899734,-3.3440520042016595,1.0232952545303866
1970-01-01 00:00:00.000000032,0.9146973593641481,0.5481593274713126,-3.424034336282153,1.0182574667986035
1970-01-01 00:00:00.000000032,0.8840772093352465,0.8521302894532299,-3.4122013729497014,1.0032492256739143
1970-01-01 00:00:00.000000032,0.7644568722900253,1.1621434559653177,-3.2526177651603394,0.9881757687717514
1970-01-01 00:00:00.000000032,0.715881779116798,1.2319089233398073,-2.9523123846500057,0.9745816070680686
1970-01-01 00:00:00.000000033,0.6736431671925717,1.151034624091312,-2.658179470507981,0.9680839461231725
1970-01-01 00:00:00.000000033,0.6819771568178975,1.0515766466349792,-2.3629825995561173,0.960154831942194
1970-01-01 00:00:00.000000033,0.6786471008611197,0.8937529414097841,-1.9901326111505264,0.9492337968479674
1970-01-01 00:00:00.000000033,0.5946469746806596,0.7632997655968353,-1.6870509073404485,0.9436238512958106
1970-01-01 00:00:00.000000033,0.5427691500257656,0.7822368898581579,-1.4933457268882009,0.9364255224675496
1970-01-01 00:00:00.000000033,0.5126916130218098,0.8552433144898851,-1.385136664724516,0.9289314834197301
1970-01-01 00:00:00.000000033,0.46950126390275493,0.9919685401805299,-1.2227082818619446,0.9182796428521873
1970-01-01 00:00:00.000000033,0.44559179437196506,1.126113604446283,-0.9297806114861178,0.9037443818264468
1970-01-01 00:00:00.000000033,0.4636233504059525,1.2265163829723897,-0.5679506251599453,0.8871554437404118
1970-01-01 00:00:00.000000033,0.5039667512773817,1.2202872661094055,-0.17442773753123822,0.8708303036410849
1970-01-01 00:00:00.000000033,0.4979545324199308,1.1131444145279723,0.250306324362921,0.8580865412905344
1970-01-01 00:00:00.000000033,0.47770434987120625,1.0412181542572425,0.6393047234414906,0.8450317134899873
1970-01-01 00:00:00.000000033,0.43392134277746064,1.0295645634040096,1.0407400215437492,0.828507710100777
1970-01-01 00:00:00.000000033,0.3379331895871418,0.9569490619629839,1.410599862551669,0.8155196377181521
1970-01-01 00:00:00.000000033,0.19972524260189828,0.8308052825501745,1.8182014403050197,0.804186855418244
1970-01-01 00:00:00.000000033,0.04835874216189001,0.7778732057769354,2.233918664569098,0.7915242716349367
1970-01-01 00:00:00.000000033,-0.0730764479108684,0.7913578829181872,2.6171891125517797,0.7774742623914046
1970-01-01 00:00:00.000000033,-0.17086543820276148,0.8130323148890798,2.9044300562038825,0.7654426689831425
1970-01-01 00:00:00.000000033,-0.27727648673756333,0.9366810090565655,3.0785887949226707,0.7565633642982942
1970-01-01 00:00:00.000000033,-0.3119604367039843,1.2178860292705684,3.207998506340617,0.7432184408784283
1970-01-01 00:00:00.000000033,-0.28734386428930403,1.5197733312726003,3.360902426297763,0.7247852636182457
1970-01-01 00:00:00.000000033,-0.30299435077091685,1.6094992130851438,3.579872301694551,0.7104081489849525
1970-01-01 00:00:00.000000033,-0.3935298477631573,1.3448163343521888,3.953760631781038,0.7052648454766592
1970-01-01 00:00:00.000000033,-0.5116431999045271,0.7392599823578929,4.460382924327514,0.7113800209940704
1970-01-01 00:00:00.000000033,-0.5542638222145271,-0.011701131661837172,5.099674004089067,0.7160105745656784
1970-01-01 00:00:00.000000033,-0.6008377823858057,-0.7833892999755587,5.50261642332929,0.7336259037064699
1970-01-01 00:00:00.000000033,-0.5549011119940017,-1.3056804474601413,5.305098946019824,0.7669375199023379
1970-01-01 00:00:00.000000033,-0.3456575213260647,-1.475079837328051,4.479958063326111,0.8095092519519869
1970-01-01 00:00:00.000000033,0.0009558230153991765,-1.3529058003127141,3.322338123869673,0.8493008170610724
1970-01-01 00:00:00.000000033,0.3630853730661929,-1.1341918983279702,2.1423561539422997,0.8817168556594401
1970-01-01 00:00:00.000000033,0.6159923403248564,-0.9108793912444711,1.1306740958704447,0.907369523217082
1970-01-01 00:00:00.000000033,0.7526572747483646,-0.7384247658499442,0.3569713339825154,0.9293063447998211
1970-01-01 00:00:00.000000033,0.8766423553362939,-0.614931291525142,-0.08079008316364168,0.9364789557322133
1970-01-01 00:00:00.000000033,0.8591124340720215,-0.616169412261488,-0.28975288633344504,0.9450953272125738
1970-01-01 00:00:00.000000033,0.8692071932954968,-0.7491208937412982,-0.2200159020456344,0.944535998976264
1970-01-01 00:00:00.000000033,0.7957853475021652,-1.0675911233531394,0.14182712650173998,0.9407994147222132
1970-01-01 00:00:00.000000033,0.6558115119266664,-1.4276647788423256,0.4475229755437548,0.9461420306498702
1970-01-01 00:00:00.000000033,0.6134075119855967,-1.7254086356579577,0.6952424829113347,0.9499038567312217
1970-01-01 00:00:00.000000033,0.6111422760491176,-1.9895785976294176,0.742813849355394,0.9609710615614626
1970-01-01 00:00:00.000000033,0.6859655420769616,-2.1035628912153,0.50038205880533,0.9768845887245352
1970-01-01 00:00:00.000000033,0.826780199957342,-2.068691107403547,0.005430096168624908,0.9937603659563361
1970-01-01 00:00:00.000000033,0.9545592129228567,-1.9381376914209152,-0.5408101449929158,1.0085237835313285
1970-01-01 00:00:00.000000033,1.058521460501989,-1.8205586296398832,-0.9168360796560494,1.0177688948860648
1970-01-01 00:00:00.000000033,1.1401418727832229,-1.7506957102800589,-1.2475144071445463,1.0284051511435084
1970-01-01 00:00:00.000000033,1.241029001570334,-1.7483122310113484,-1.5661395963363987,1.040002677074227
1970-01-01 00:00:00.000000033,1.3312289455606312,-1.7942453383743966,-1.87876550528629,1.0520754926877989
1970-01-01 00:00:00.000000033,1.3764053467069441,-1.8343277808542413,-2.2985449221503154,1.068938923914686
1970-01-01 00:00:00.000000033,1.4135398598959716,-1.7996688201065014,-2.7490114681886033,1.0831305517675713
1970-01-01 00:00:00.000000033,1.4147251240866834,-1.6842817356091258,-3.102316092529784,1.08895377439716
1970-01-01 00:00:00.000000033,1.3291866727240287,-1.4961930060767674,-3.3337779948524675,1.089285566394059
1970-01-01 00:00:00.000000033,1.206825435908075,-1.2884498827683548,-3.485210222791557,1.0871552381129415
1970-01-01 00:00:00.000000033,1.0850172364267476,-1.0637466056192115,-3.5386907974699677,1.0830322598802296
1970-01-01 00:00:00.000000033,1.029956334785974,-0.8551833549186376,-3.48191619486595,1.0731600668600891
1970-01-01 00:00:00.000000033,1.0007575058678295,-0.7221263234481438,-3.418968810174782,1.0372863732533188
1970-01-01 00:00:00.000000033,0.9211172469641202,-0.6300020836712729,-3.3180163853431583,1.028282516439575
1970-01-01 00:00:00.000000033,0.8227211855775823,-0.575058112516562,-3.204601770930834,1.0216986047249312
1970-01-01 00:00:00.000000033,0.7225004716326582,-0.5217084353753764,-3.0813729108887826,1.0149235409842015
1970-01-01 00:00:00.000000033,0.6217125566897723,-0.46754513731494285,-2.9489423177626524,1.0072467181022424
1970-01-01 00:00:00.000000033,0.5083530839787163,-0.3689125744019828,-2.806971970976742,0.9963207564524946
1970-01-01 00:00:00.000000033,0.34695208839949915,-0.2350774268309274,-2.5812839539017087,0.983915861772843
1970-01-01 00:00:00.000000033,0.21719552150779775,-0.15824570222322082,-2.3177625365595222,0.9718249701741943
1970-01-01 00:00:00.000000033,0.10401332382128085,-0.15955838221572402,-2.1203063822250665,0.965841694860792
1970-01-01 00:00:00.000000033,0.03961107376950126,-0.13200279364828488,-1.9126819595642295,0.9562138259702975
1970-01-01 00:00:00.000000033,-0.053073617966668866,-0.1358007215304544,-1.753390201251613,0.9531331420448379
1970-01-01 00:00:00.000000033,-0.06407552566029326,-0.19609570213645083,-1.5903324886917978,0.9493872057279097
1970-01-01 00:00:00.000000033,-0.07272374041373872,-0.2249093991850205,-1.5017131564582293,0.946680460527485
1970-01-01 00:00:00.000000033,-0.08730615482841009,-0.13034234019077812,-1.4598070000120646,0.9395861751325933
1970-01-01 00:00:00.000000033,-0.15184627052934693,-0.12096951780481775,-1.239711575706356,0.9279957471637689
1970-01-01 00:00:00.000000033,-0.2937162590360866,-0.17044807819536592,-0.7970189817156088,0.914170771583175
1970-01-01 00:00:00.000000033,-0.40119787833299425,-0.1748762290575115,-0.223548566202529,0.8933526609445739
1970-01-01 00:00:00.000000033,-0.4977458539430185,-0.21460745505944084,0.3478103455453229,0.8754389361683861
1970-01-01 00:00:00.000000033,-0.5346130228310458,-0.3350701259686408,0.8988828275050117,0.8604387581306839
1970-01-01 00:00:00.000000033,-0.5339819588597245,-0.4250884182876603,1.3292235248961983,0.8460902721163561
1970-01-01 00:00:00.000000033,-0.5719192157642535,-0.3754810845450166,1.5069884279455352,0.833319883214185
1970-01-01 00:00:00.000000033,-0.7093882158521803,-0.13541620037623098,1.6869486936847928,0.8135164496682619
1970-01-01 00:00:00.000000033,-0.9516890799041724,0.296329266831695,1.8677118939888473,0.7911950612239093
1970-01-01 00:00:00.000000033,-1.1710041518520957,0.7740966577022561,2.1290626968843704,0.7690256671976589
1970-01-01 00:00:00.000000033,-1.2284410475945537,1.0396724466445042,2.5523728774044194,0.7403751195782409
1970-01-01 00:00:00.000000033,-1.3726717082423205,0.969901748943148,2.957847340278801,0.7264301196087536
1970-01-01 00:00:00.000000033,-1.5474106025327898,0.6690215375984698,3.3308520729012168,0.7270700835862115
1970-01-01 00:00:00.000000033,-1.617915745783295,0.33450207292108947,3.7159809347596227,0.7277696548746029
1970-01-01 00:00:00.000000033,-1.6187306470841274,0.08524200330061113,3.973340737638294,0.7279033810078597
1970-01-01 00:00:00.000000033,-1.613508073879134,-0.05813249629010395,4.039054468988776,0.7329423308021754
1970-01-01 00:00:00.000000033,-1.5510855726577317,-0.05840507313876252,3.927544255053304,0.7404390915956474
1970-01-01 00:00:00.000000033,-1.4013849996928565,-0.11229461417912004,3.6611502817277493,0.7479082175077032
1970-01-01 00:00:00.000000033,-1.3782395130688179,-0.25082004726614027,3.3962428140271967,0.7582974544936335
1970-01-01 00:00:00.000000033,-1.47987815906786,-0.4508524695887308,3.246399889424479,0.7676024571883682
1970-01-01 00:00:00.000000033,-1.6926681823139451,-0.6878625369516955,2.99088829511163,0.7837881952202734
1970-01-01 00:00:00.000000033,-1.9674532117284789,-0.7936222593543536,2.585397847342272,0.8049777934618151
1970-01-01 00:00:00.000000033,-2.183174162806745,-0.7019340317137902,2.1028580170317914,0.8211018731008738
1970-01-01 00:00:00.000000033,-2.3658905895043016,-0.5212481452784725,1.5791170641555727,0.8346064428513139
1970-01-01 00:00:00.000000033,-2.53648632697944,-0.3200354510269252,1.085033154946709,0.8474877346127098
1970-01-01 00:00:00.000000033,-2.6584165001214846,-0.14110954347510685,0.695377608379023,0.8586470916153695
1970-01-01 00:00:00.000000033,-2.6984472735630107,-0.038516199872893085,0.39156829421498196,0.8698749728803915
1970-01-01 00:00:00.000000033,-2.6464208359494017,0.024166567073058996,0.049960755591535067,0.8834568072713218
1970-01-01 00:00:00.000000033,-2.5247762403894445,0.032939181133581616,-0.4507022229554443,0.9078697046834581
1970-01-01 00:00:00.000000033,-2.239111684753998,0.08255959725950177,-1.0015525016626765,0.9288787038579719
1970-01-01 00:00:00.000000033,-1.9079005558776978,0.142888864523567,-1.6444964022862243,0.9510594300824535
1970-01-01 00:00:00.000000033,-1.576853979134537,0.16749804093427745,-2.2577920640079054,0.9742694153758187
1970-01-01 00:00:00.000000033,-1.2206200387617467,0.1868145867139242,-2.7586329799152183,0.993956342026725
1970-01-01 00:00:00.000000034,-0.8270802567368962,0.18890866628250053,-3.1628855277621573,1.0074498962366385
1970-01-01 00:00:00.000000034,-0.4829385744453164,0.13924621825895367,-3.4137494543176805,1.0152028826579202
1970-01-01 00:00:00.000000034,-0.23770970728749824,0.10342246653037859,-3.4756664989940678,1.0181963862984234
1970-01-01 00:00:00.000000034,-0.012814087022970558,0.11089567803510296,-3.471510718548328,1.0163200583234047
1970-01-01 00:00:00.000000034,0.16766584229319556,0.15062031839071255,-3.4952634238374394,1.0147898773568964
1970-01-01 00:00:00.000000034,0.32040983300994746,0.25621207111239036,-3.600242572464296,1.0158509938610958
1970-01-01 00:00:00.000000034,0.5017373601393214,0.2896550429728092,-3.6887365913695596,1.0182216091717309
1970-01-01 00:00:00.000000034,0.6911046926486192,0.2758262457902281,-3.7842932378770753,1.0199698213624433
1970-01-01 00:00:00.000000034,0.81840086707563,0.32318636901476266,-3.8216480556600123,1.0189815542157445
1970-01-01 00:00:00.000000034,0.9321421600006319,0.38718622736441966,-3.713223755187227,1.011997863168739
1970-01-01 00:00:00.000000034,1.0299904979281296,0.49589147047341664,-3.570343633746278,1.0024956629391135
1970-01-01 00:00:00.000000034,1.13269295958958,0.6000706720463064,-3.3378671593337774,0.9860574437658922
1970-01-01 00:00:00.000000034,1.1323629310468726,0.7214514179969106,-3.03663492504565,0.9689752729101115
1970-01-01 00:00:00.000000034,1.1031169268875476,0.8230422755405014,-2.7073511552285616,0.9526847974274019
1970-01-01 00:00:00.000000034,1.0700404459843649,0.8573269716188241,-2.4552093161033164,0.9426364186019999
1970-01-01 00:00:00.000000034,1.0672873000869427,0.9240063596826842,-2.234079978046065,0.9302041172915956
1970-01-01 00:00:00.000000034,1.022573080711389,1.0032165597562963,-1.9525782711977784,0.9177317791638013
1970-01-01 00:00:00.000000034,1.013475294083778,1.1334647671995612,-1.6399093308317034,0.9016631445433585
1970-01-01 00:00:00.000000034,1.0123845183353681,1.2338631906421222,-1.441442625247944,0.8931893704672139
1970-01-01 00:00:00.000000034,1.1051038417043646,1.2575093692085622,-0.9523735617919553,0.8736030580923234
1970-01-01 00:00:00.000000034,1.181646793367991,1.1720964247855297,-0.44443689633838457,0.8547850557720509
1970-01-01 00:00:00.000000034,1.188570477041245,1.1838616371527917,-0.002655102192345188,0.8328461958552172
1970-01-01 00:00:00.000000034,1.0732457442423526,1.1337493481996204,0.7143307070048239,0.8061290131286711
1970-01-01 00:00:00.000000034,0.9055848877118474,0.9528053347179343,1.3150187618035738,0.7905569400499548
1970-01-01 00:00:00.000000034,0.7574080770455728,0.7477068887167791,1.9468880612238615,0.7771057787023546
1970-01-01 00:00:00.000000034,0.6808196133565341,0.47841734044380757,2.4940955710494155,0.7669209756724189
1970-01-01 00:00:00.000000034,0.6142230014416685,0.16725338374871457,2.891384437593046,0.7599378558857445
1970-01-01 00:00:00.000000034,0.4541548258935192,-0.04358804201502617,3.242272181176403,0.7528742814062599
1970-01-01 00:00:00.000000034,0.25178456417273715,-0.0009141469305943284,3.4931808253937016,0.7433693242572158
1970-01-01 00:00:00.000000034,0.09649298240263227,0.34685663825100077,3.651560667815538,0.7285332478506128
1970-01-01 00:00:00.000000034,0.05877342542049882,0.8127007198946958,3.795614545812882,0.7061709188464925
1970-01-01 00:00:00.000000034,0.03628976352810015,1.1070594622129217,4.091028732439362,0.681563435261864
1970-01-01 00:00:00.000000034,-0.059889458607449125,0.9693785975864847,4.553635067782282,0.6700008819063097
1970-01-01 00:00:00.000000034,-0.13580567492783677,0.49711474950896734,5.038070174569002,0.6718976640453556
1970-01-01 00:00:00.000000034,-0.13623868184313728,-0.1768690824105858,5.594670924014692,0.6741325367022895
1970-01-01 00:00:00.000000034,-0.2004878079579928,-0.9523183982957321,6.088306350126801,0.6824276141656179
1970-01-01 00:00:00.000000034,-0.3401770818138602,-1.6597472171075056,6.1655809838755715,0.7098787111861867
1970-01-01 00:00:00.000000034,-0.36879845806001277,-1.9383182771380287,5.80491840098261,0.739320985280447
1970-01-01 00:00:00.000000034,-0.25438789774206616,-1.7452596108980043,4.996802497376163,0.7638597570572732
1970-01-01 00:00:00.000000034,-0.11420068831827389,-1.3626470527811907,3.929793192500662,0.7884218305428752
1970-01-01 00:00:00.000000034,-0.008134764729184826,-1.0927526158603174,3.061071898475594,0.8094730768843127
1970-01-01 00:00:00.000000034,0.05093040825608258,-0.9618775144139166,2.398944127373853,0.8296325173170973
1970-01-01 00:00:00.000000034,0.10978042705327634,-0.9521903234324055,1.8861694905014994,0.848840051510444
1970-01-01 00:00:00.000000034,0.17012066206231533,-1.05042185208018,1.4744714823474747,0.8683734505958174
1970-01-01 00:00:00.000000034,0.23749593079641962,-1.20321055676864,1.1305496588441257,0.8857174514905221
1970-01-01 00:00:00.000000034,0.26026310124102114,-1.409025401715586,0.8276070854014366,0.9057207295558528
1970-01-01 00:00:00.000000034,0.30219040989074053,-1.5642422590733487,0.4910746774735039,0.9274604879464147
1970-01-01 00:00:00.000000034,0.433898785968221,-1.6020622236074733,0.1548625760405199,0.9416510256047654
1970-01-01 00:00:00.000000034,0.5593477532155902,-1.567436892829677,-0.18578423888071113,0.9536032998310786
1970-01-01 00:00:00.000000034,0.6318179051311782,-1.5829152314063974,-0.5352183744323267,1.023941932171823
1970-01-01 00:00:00.000000034,0.7151019344873575,-1.5870994985973637,-0.9309370142463869,1.0414829417891025
1970-01-01 00:00:00.000000034,0.8068274435466329,-1.5705036841472768,-1.4018134636450017,1.058844259144292
1970-01-01 00:00:00.000000034,0.8989991203537778,-1.5500444125478645,-1.901570943337421,1.0782468323732708
1970-01-01 00:00:00.000000034,1.026600514807869,-1.5034398848248465,-2.4133464366451562,1.0955550011894741
1970-01-01 00:00:00.000000034,1.1444641994069558,-1.448319316442138,-2.914269684800951,1.1107305774586165
1970-01-01 00:00:00.000000034,1.2191066739174736,-1.3891057775537514,-3.309859171421402,1.1207256881875178
1970-01-01 00:00:00.000000034,1.2222030293029864,-1.3467020076641434,-3.4910932737318774,1.1241768898845959
1970-01-01 00:00:00.000000034,1.1718902950714156,-1.3414652513880927,-3.569276041349245,1.1269127331218602
1970-01-01 00:00:00.000000034,1.1259602745439055,-1.3156865738105326,-3.5721866366938757,1.1241193268447651
1970-01-01 00:00:00.000000034,1.025239089929801,-1.3003834086286101,-3.4980743165178,1.1204771409896481
1970-01-01 00:00:00.000000034,0.9166507211901227,-1.319897108215361,-3.40105155834012,1.1180110472575642
1970-01-01 00:00:00.000000034,0.8244688804169191,-1.303614047000416,-3.2970932924797145,1.1135248175855668
1970-01-01 00:00:00.000000034,0.7336398277614945,-1.2310364306218629,-3.223821608438161,1.1082839741619785
1970-01-01 00:00:00.000000034,0.6471363795403202,-1.1527630405782068,-3.2144835961389,1.1062282404348207
1970-01-01 00:00:00.000000034,0.5973328161989782,-1.0634444443508533,-3.2371142666732786,1.1044789546522833
1970-01-01 00:00:00.000000034,0.5680934002087533,-0.9361641217988786,-3.3135287689437516,1.1032555867079696
1970-01-01 00:00:00.000000034,0.5629179844530674,-0.8136618625318156,-3.3288375131209835,1.0972260845851802
1970-01-01 00:00:00.000000034,0.5022945995962719,-0.7285625868992682,-3.2609405056619716,1.0904714931879536
1970-01-01 00:00:00.000000034,0.4145603810368859,-0.6318711378021944,-3.2408992938059757,1.0856402938710787
1970-01-01 00:00:00.000000034,0.32162467701313757,-0.490202810144782,-3.151585103484163,1.0780509813816264
1970-01-01 00:00:00.000000034,0.25946534016554335,-0.3215259099857104,-3.0698196741451858,1.0682942459893168
1970-01-01 00:00:00.000000034,0.18928767821617412,-0.1632463931582398,-2.955795732124673,1.0581232430763432
1970-01-01 00:00:00.000000034,0.12619547076531537,-0.056501789004959224,-2.707040176939183,1.0451374497889772
1970-01-01 00:00:00.000000034,0.07026960458740264,-0.001691320923624444,-2.523678456181224,1.0356777067133431
1970-01-01 00:00:00.000000034,0.008660746703613255,0.10295220236094255,-2.34016206166,1.024755926200403
1970-01-01 00:00:00.000000034,-0.05259203233620933,0.14690368998536474,-2.045194303322488,1.0127144224490594
1970-01-01 00:00:00.000000034,-0.09772331376825145,0.035616814791488816,-1.707914740499581,1.0051820839070307
1970-01-01 00:00:00.000000034,-0.11411732069919787,-0.07593299122182356,-1.4591869907728536,1.0009977588693608
1970-01-01 00:00:00.000000034,-0.0973921945639976,-0.1281515500104913,-1.2324779825972314,0.9938926497711921
1970-01-01 00:00:00.000000034,-0.09680583295131827,-0.24558656486969607,-0.9291462451606451,0.9871552955798182
1970-01-01 00:00:00.000000034,-0.08709545748308996,-0.44655901441441515,-0.5483439496832982,0.9799062343760371
1970-01-01 00:00:00.000000034,-0.08336027704983776,-0.5793837687640206,-0.1440173407329165,0.966915304563919
1970-01-01 00:00:00.000000034,-0.15925374066530731,-0.6308009378208187,0.2258775542878725,0.9572880096783459
1970-01-01 00:00:00.000000034,-0.1632393993479776,-0.65263050344688,0.5423223554566892,0.9439512221378733
1970-01-01 00:00:00.000000034,-0.22524773921787955,-0.605685920091023,0.8013627781966537,0.9284109396333896
1970-01-01 00:00:00.000000034,-0.38875179961084405,-0.42881700904901393,0.8665449858146944,0.9096956943606347
1970-01-01 00:00:00.000000034,-0.8106883026835529,0.02761473442912,0.8453398974615959,0.897840083200488
1970-01-01 00:00:00.000000034,-1.0910247664964596,0.4541578510084253,1.2373752580216208,0.876208780861034
1970-01-01 00:00:00.000000034,-1.1221371919752168,0.3045626427867433,1.8837074691106024,0.8441916164710908
1970-01-01 00:00:00.000000034,-1.5193653516506131,0.41080495625736885,2.5144978599883663,0.8232155323173651
1970-01-01 00:00:00.000000034,-1.7149049491210147,0.6873953669632946,3.1579589413763385,0.797331163334029
1970-01-01 00:00:00.000000034,-1.6765038931369483,0.6996824161621501,3.801206021583308,0.7700175585471468
1970-01-01 00:00:00.000000034,-1.7148392977025573,0.45006891543540467,4.470642687393698,0.75366117989494
1970-01-01 00:00:00.000000034,-1.7638333542079376,0.10681380592759049,5.060782043380351,0.7479490203852827
1970-01-01 00:00:00.000000034,-1.7103787544959241,-0.27508314797675726,5.461485491289442,0.746454594356627
1970-01-01 00:00:00.000000034,-1.6914718042619887,-0.6920554600801057,5.491329562654523,0.7628075848987932
1970-01-01 00:00:00.000000035,-1.6164965101421973,-0.9897287551235614,5.225098219445342,0.7845149334086244
1970-01-01 00:00:00.000000035,-1.5277370414938816,-1.1586564264479762,4.708286864177881,0.8055393353775536
1970-01-01 00:00:00.000000035,-1.5742097867317442,-1.1936723116158865,3.998969560713332,0.829848785576466
1970-01-01 00:00:00.000000035,-1.7172867968596124,-1.0837371285872484,3.2506501336757636,0.8516159502160178
1970-01-01 00:00:00.000000035,-1.92665586101217,-0.8715088784107851,2.4643053303613063,0.8739823685202714
1970-01-01 00:00:00.000000035,-2.1176463533289813,-0.5619715104693817,1.6706248641141206,0.8954182943011412
1970-01-01 00:00:00.000000035,-2.2228709281807806,-0.20663886196979586,0.9876490430126394,0.9118738363384981
1970-01-01 00:00:00.000000035,-2.2201509622995315,0.16460019627886335,0.4277772562211385,0.9215324622675247
1970-01-01 00:00:00.000000035,-2.15930447894186,0.3485552162700253,0.010047929729027703,0.9316929160908239
1970-01-01 00:00:00.000000035,-2.062062412732359,0.43709373662889295,-0.21578005992032334,0.9393585822370318
1970-01-01 00:00:00.000000035,-1.9029496696771366,0.4537764069308717,-0.33530881335698093,0.9462687549650709
1970-01-01 00:00:00.000000035,-1.6699277374416552,0.3965874520438616,-0.5058396991789383,0.9560952197943418
1970-01-01 00:00:00.000000035,-1.4073010312058163,0.33995984214663993,-0.73648802058112,0.9686564398106384
1970-01-01 00:00:00.000000035,-1.1037833113077926,0.30492982472584573,-1.1067353177008712,0.9847094103385698
1970-01-01 00:00:00.000000035,-0.7825243054541182,0.2622842956658008,-1.526226687127791,1.0021157259806015
1970-01-01 00:00:00.000000035,-0.46414702093269733,0.20805439259344446,-1.9200770004068186,1.018202641915583
1970-01-01 00:00:00.000000035,-0.1736813475415927,0.1360905510779291,-2.2849460771355727,1.0347410688961116
1970-01-01 00:00:00.000000035,0.11530370844294716,0.08238203493158834,-2.657475533832711,1.050276983135611
1970-01-01 00:00:00.000000035,0.3897835654635502,0.06169991077706883,-2.993417817645543,1.0606922109027233
1970-01-01 00:00:00.000000035,0.5777366970713929,0.049664285810274225,-3.1986568128359236,1.0690406574341693
1970-01-01 00:00:00.000000035,0.766404426519771,0.03738442772910709,-3.3621675072955766,1.0760333778838842
1970-01-01 00:00:00.000000035,0.9635808145765252,0.04167918268668088,-3.4979019643336096,1.0803036816769915
1970-01-01 00:00:00.000000035,1.140713241057316,0.06305977986820087,-3.606079254654923,1.081751518887071
1970-01-01 00:00:00.000000035,1.2680355337475862,0.10010667441988001,-3.67706611068416,1.0806383453743518
1970-01-01 00:00:00.000000035,1.3286767929586607,0.10974278887371186,-3.7047833744122283,1.0798853820608552
1970-01-01 00:00:00.000000035,1.3551396410672394,0.09781054405718188,-3.6172230795591895,1.0756081055908011
1970-01-01 00:00:00.000000035,1.3480395426244072,0.119479292728634,-3.3719023816274434,1.0643500773844832
1970-01-01 00:00:00.000000035,1.3111610921590144,0.24818760341820179,-3.05408398057952,1.0463804440277285
1970-01-01 00:00:00.000000035,1.241082973380984,0.4073442836121587,-2.7626068099702485,1.0281594118487698
1970-01-01 00:00:00.000000035,1.1366120558127177,0.5367877170876695,-2.4996202256395814,1.0150825553019138
1970-01-01 00:00:00.000000035,1.0812009032980674,0.6986028578433734,-2.364460502210002,1.006227577826601
1970-01-01 00:00:00.000000035,1.0971060405773034,0.9017835632478007,-2.2645192154660827,0.9938353810159378
1970-01-01 00:00:00.000000035,1.0817629291930215,1.0433659934952253,-2.1337456717262584,0.985619569686948
1970-01-01 00:00:00.000000035,1.1239577157924654,1.1162838172503977,-1.999428365015765,0.9795577730940191
1970-01-01 00:00:00.000000035,1.214556663756201,1.0934440564423056,-1.8536731995226006,0.9740665044636143
1970-01-01 00:00:00.000000035,1.2840603244108593,1.039915640885418,-1.6665380879008833,0.9679269980523795
1970-01-01 00:00:00.000000035,1.3291104152864792,1.016935184501303,-1.3601982367639238,0.9570985964232056
1970-01-01 00:00:00.000000035,1.3681979097931356,0.974257541280269,-1.0018911040945537,0.9451375224399222
1970-01-01 00:00:00.000000035,1.4073242241547068,0.8939870163828879,-0.5848929874721038,0.9320623122068624
1970-01-01 00:00:00.000000035,1.442172510394693,0.8423921646937963,-0.11121929401616862,0.9140243872166907
1970-01-01 00:00:00.000000035,1.4205404522729472,0.7337423473077527,0.46511296599368573,0.8942162760371842
1970-01-01 00:00:00.000000035,1.3419779703451669,0.5999904172202992,1.0506085804504415,0.8756334868273081
1970-01-01 00:00:00.000000035,1.224879597588139,0.563170531906455,1.498490320434328,0.85953869900147
1970-01-01 00:00:00.000000035,1.1012945778568455,0.5994172980955089,1.9024334251179384,0.8401939564891392
1970-01-01 00:00:00.000000035,0.903830586082496,0.604000946653108,2.3501165877308003,0.823081772621389
1970-01-01 00:00:00.000000035,0.7075439859132124,0.6207204089752267,2.712826591050509,0.8096052681604351
1970-01-01 00:00:00.000000035,0.5341185157438132,0.6570123773291692,2.897763652284075,0.8023019657967371
1970-01-01 00:00:00.000000035,0.39553689241872714,0.7976968010908165,2.955875042797997,0.7961100469652502
1970-01-01 00:00:00.000000035,0.30481273505478573,1.2032184188496877,2.9832796699886712,0.7795656854270725
1970-01-01 00:00:00.000000035,0.21272896751489118,1.5490834567673786,3.3275589958126983,0.7515256249174931
1970-01-01 00:00:00.000000035,0.05602962861617036,1.324435206589179,4.06321350967389,0.728505696500187
1970-01-01 00:00:00.000000035,-0.2597770243840569,0.3032128181051878,5.471751462347091,0.775153093987663
1970-01-01 00:00:00.000000035,-0.6862345108287555,-1.130241859138658,6.556523232307926,0.799412024489146
1970-01-01 00:00:00.000000035,-0.883074164252777,-1.9820859478423414,6.142032876973515,0.8629655589378892
1970-01-01 00:00:00.000000035,-0.633355298420458,-1.9261266586335424,4.363316519947877,0.9269470655167438
1970-01-01 00:00:00.000000035,-0.3883298399516419,-1.4457290191181535,2.995117977764315,0.9585469508713387
1970-01-01 00:00:00.000000035,-0.21994820423776112,-1.0506396649045207,2.062786072340731,0.9780747253735025
1970-01-01 00:00:00.000000035,-0.07857166918566744,-0.8483719050437969,1.5232760036955286,0.9889775871853159
1970-01-01 00:00:00.000000035,0.012373126222353592,-0.8048679131920448,1.3661998855244963,0.9911909114279664
1970-01-01 00:00:00.000000035,0.040660969109108644,-0.8807387454458435,1.3664439111614464,0.9918369517773509
1970-01-01 00:00:00.000000035,9.429154109998061e-05,-0.9785078037563681,1.2743561259239435,1.0013141213618968
1970-01-01 00:00:00.000000035,0.02408020763081512,-1.0340284483119282,1.0461149964491792,1.0149247573700027
1970-01-01 00:00:00.000000035,0.12513404387857793,-1.0283240587274078,0.6326850201421677,1.0299274942784375
1970-01-01 00:00:00.000000035,0.21001982344693565,-0.9405974239643524,0.07650426075308234,1.0495782262235247
1970-01-01 00:00:00.000000035,0.34887660459839015,-0.8243055826621978,-0.5235691741610334,1.0685223441166278
1970-01-01 00:00:00.000000035,0.5002011499500548,-0.7437557171403314,-1.1409743723263304,1.0887595804120669
1970-01-01 00:00:00.000000035,0.6492493948817349,-0.693299425587205,-1.7189395241103376,1.108122606260718
1970-01-01 00:00:00.000000035,0.7841541911956091,-0.6494768349963148,-2.194540839934886,1.1227396520571873
1970-01-01 00:00:00.000000035,0.8705829239153419,-0.6307890794957194,-2.5718771143140002,1.1339709638128865
1970-01-01 00:00:00.000000035,0.8908358894135832,-0.6974368351845595,-2.8117497703395897,1.1452047718062868
1970-01-01 00:00:00.000000035,0.9055163343196252,-0.8013216099751264,-2.946682824342665,1.1515786601811009
1970-01-01 00:00:00.000000035,0.8451800205752452,-0.9443300310466007,-3.0047698838150985,1.1576725808926784
1970-01-01 00:00:00.000000035,0.740186326009322,-1.099141717772171,-3.0856565281540713,1.1683654591441244
1970-01-01 00:00:00.000000035,0.6881828132380013,-1.1597329177841578,-3.235192945326946,1.1772951717285207
1970-01-01 00:00:00.000000035,0.663959744022471,-1.1164422021010727,-3.4173481353744273,1.1821459625369484
1970-01-01 00:00:00.000000035,0.6293204246914654,-1.0086007703507012,-3.5576009411884795,1.1825885100751816
1970-01-01 00:00:00.000000035,0.5697209489696966,-0.8966608007623155,-3.6687594801089465,1.1831985308104849
1970-01-01 00:00:00.000000035,0.5285935477805856,-0.7486706512267679,-3.7963348227480647,1.182678945524911
1970-01-01 00:00:00.000000035,0.49591114321681906,-0.6033577972405498,-3.868191748968937,1.179558908193939
1970-01-01 00:00:00.000000035,0.45407108477010855,-0.49923939942550466,-3.8520919245706255,1.1744989752660397
1970-01-01 00:00:00.000000035,0.4007425396295028,-0.4581285598813327,-3.720312787071234,1.1662277760678472
1970-01-01 00:00:00.000000035,0.30040109397087633,-0.4929158337011793,-3.4690374426833985,1.157303786947114
1970-01-01 00:00:00.000000035,0.18591194769238076,-0.5039075152017309,-3.09700673053177,1.144002831065007
1970-01-01 00:00:00.000000035,0.08193438863708809,-0.43271851453264615,-2.7202757194614913,1.1269781387329818
1970-01-01 00:00:00.000000035,-0.0315991166635259,-0.3146188365018783,-2.4855641542506186,1.1156173801153466
1970-01-01 00:00:00.000000035,-0.08374847995893728,-0.17065494056425187,-2.248621314851359,1.1023631795472186
1970-01-01 00:00:00.000000035,-0.10505096471795723,-0.0695515309041824,-2.003698318907345,1.0880384202002824
1970-01-01 00:00:00.000000035,-0.16661550023616267,-0.11660163941429415,-1.760598541212586,1.081645845006751
1970-01-01 00:00:00.000000035,-0.19944127323733232,-0.3291906073300256,-1.5329601678807383,1.082238445645712
1970-01-01 00:00:00.000000035,-0.19701474938320215,-0.541391859464133,-1.3991730925350938,1.0852820111717056
1970-01-01 00:00:00.000000035,-0.18871381337514567,-0.6383877560921758,-1.3447114884573916,1.086714622811735
1970-01-01 00:00:00.000000035,-0.18275766704470459,-0.5833248518462733,-1.296284392636154,1.0841024326354602
1970-01-01 00:00:00.000000035,-0.1397058596999437,-0.43705758349041224,-1.2306414524519629,1.0747136433244786
1970-01-01 00:00:00.000000035,-0.1343045998055442,-0.3061778215488078,-1.0199827427207955,1.060554942683501
1970-01-01 00:00:00.000000035,-0.15981868226325271,-0.3152992695813959,-0.5444482722635101,1.0410510625880387
1970-01-01 00:00:00.000000035,-0.23874201663366207,-0.4486800022481614,0.07810184650674636,1.0223831268062564
1970-01-01 00:00:00.000000036,-0.32372616303004337,-0.5704364694708677,0.6318224495937372,1.008254607540949
1970-01-01 00:00:00.000000036,-0.34412041042185626,-0.626102051237042,1.0581069147523687,0.9938308237395764
1970-01-01 00:00:00.000000036,-0.37402890233396774,-0.6465839394363377,1.374799223213172,0.9792495326325603
1970-01-01 00:00:00.000000036,-0.4877199321059598,-0.5328982437396506,1.6102381818076994,0.9610095518559763
1970-01-01 00:00:00.000000036,-0.7312366670118197,-0.2370071448916952,1.8562931822372626,0.9390067888333347
1970-01-01 00:00:00.000000036,-1.0077830662096228,0.18544939077023304,2.3114217977047464,0.9102547304624263
1970-01-01 00:00:00.000000036,-1.1593597013558863,0.5105498704985426,3.0685045306013996,0.8706170331746431
1970-01-01 00:00:00.000000036,-1.2911746931415666,0.6250114194053871,3.8138148352480306,0.8383563966800094
1970-01-01 00:00:00.000000036,-1.4180677070991285,0.45218867149652875,4.491926239145064,0.8187728199472013
1970-01-01 00:00:00.000000036,-1.5552849908989974,-0.08852510346836234,5.045585807199509,0.8122388521372732
1970-01-01 00:00:00.000000036,-1.860313246052674,-0.5910671975982472,5.240189822785834,0.8293123800152139
1970-01-01 00:00:00.000000036,-1.9996039737473104,-0.8181295922655906,5.241699047436812,0.8476919724042907
1970-01-01 00:00:00.000000036,-1.8701395097381126,-0.916363913922775,5.117752337657968,0.8567756792624694
1970-01-01 00:00:00.000000036,-1.7415968558039054,-1.0517021144596173,4.80960803851804,0.8735822615841817
1970-01-01 00:00:00.000000036,-1.6094129470028036,-1.2827456927181864,4.438512186097858,0.8931297919911666
1970-01-01 00:00:00.000000036,-1.5703603967920345,-1.6183766041681265,3.9942759708873634,0.9213140316525472
1970-01-01 00:00:00.000000036,-1.5602405907917174,-1.9119355038927892,3.4084261437893986,0.9501731032680513
1970-01-01 00:00:00.000000036,-1.66884814229353,-1.973067004168426,2.564044908195089,0.9805116780655588
1970-01-01 00:00:00.000000036,-1.879521978885854,-1.8407091511638274,1.5909508349688877,1.0101435867049147
1970-01-01 00:00:00.000000036,-2.139395500092613,-1.4551740965351327,0.6625336166846634,1.0306080683989147
1970-01-01 00:00:00.000000036,-2.404684134982846,-0.9358780925611454,-0.1894298217593673,1.045724547501383
1970-01-01 00:00:00.000000036,-2.601437929316966,-0.4296386506491245,-0.8932430522209116,1.0541873908170856
1970-01-01 00:00:00.000000036,-2.7699361193698007,0.006438540343385526,-1.2573285728966401,1.05447594458052
1970-01-01 00:00:00.000000036,-2.8632887436299517,0.2721184055200907,-1.385989250388811,1.0516392031685036
1970-01-01 00:00:00.000000036,-2.9049701449252594,0.3410328091552832,-1.4141067871450437,1.0563938661372856
1970-01-01 00:00:00.000000036,-2.774481572748721,0.3102974327071778,-1.4203640114927496,1.0618620982848122
1970-01-01 00:00:00.000000036,-2.5363659641909404,0.2726675657170318,-1.4500518313806787,1.0658894040431504
1970-01-01 00:00:00.000000036,-2.2693741796177545,0.19465039408749008,-1.5881118833507757,1.0764122880270357
1970-01-01 00:00:00.000000036,-1.938245331295791,0.10761088505862319,-1.8042512086768296,1.0882971078122399
1970-01-01 00:00:00.000000036,-1.598204933774434,0.03721133192220482,-2.050302921496743,1.1003143770423014
1970-01-01 00:00:00.000000036,-1.2591911855621694,-0.07803617738405072,-2.279058925960197,1.1113967428169078
1970-01-01 00:00:00.000000036,-0.9721369675298864,-0.1483239081225226,-2.4884238662595446,1.119598816895237
1970-01-01 00:00:00.000000036,-0.7477972151590514,-0.13820557024134167,-2.6198816913647844,1.1226120097492225
1970-01-01 00:00:00.000000036,-0.5747146048657448,-0.11206373854462166,-2.777219050740564,1.1284251208948124
1970-01-01 00:00:00.000000036,-0.38142602012369425,-0.06124173383901482,-3.038759042006043,1.137476815747096
1970-01-01 00:00:00.000000036,-0.1599657235527604,0.05666797709605324,-3.4211440312178047,1.1479168811935763
1970-01-01 00:00:00.000000036,0.07588630131402992,0.1731223902327746,-3.750284526074379,1.154461175991773
1970-01-01 00:00:00.000000036,0.271060128990402,0.28498617011463695,-3.919188561864675,1.1562214062220144
1970-01-01 00:00:00.000000036,0.45530162061812746,0.3938330267035136,-3.9454778204307823,1.1521825405556827
1970-01-01 00:00:00.000000036,0.6168650485077349,0.5694534986142384,-3.8877646420324603,1.1399920612274106
1970-01-01 00:00:00.000000036,0.6843822376671765,0.7625999078217084,-3.7429790425048646,1.1251285092371794
1970-01-01 00:00:00.000000036,0.6949667008223376,0.9264676993710363,-3.516945818799723,1.110538299687558
1970-01-01 00:00:00.000000036,0.7129058552125397,1.0203607095246245,-3.1962253307593285,1.0940752413671977
1970-01-01 00:00:00.000000036,0.7063152949998779,1.0583342810154293,-2.8460752884805194,1.0808929651603898
1970-01-01 00:00:00.000000036,0.7351635314609422,1.0742097434507971,-2.6282625926558563,1.0759166082341458
1970-01-01 00:00:00.000000036,0.8743862693414823,1.0805480194636425,-2.4817954859200473,1.0704116091810871
1970-01-01 00:00:00.000000036,1.0219596975883831,1.1217413074492595,-2.3590610018037026,1.0626882897489114
1970-01-01 00:00:00.000000036,1.1245841515182535,1.1751960528807612,-2.244122791565524,1.0572379099659053
1970-01-01 00:00:00.000000036,1.2539247944938985,1.2106603933403781,-2.130146097456372,1.0511804770516062
1970-01-01 00:00:00.000000036,1.372806399620559,1.265562596634347,-2.016893810431632,1.04389992446435
1970-01-01 00:00:00.000000036,1.4694197751998341,1.3923187485217199,-1.8931977514629605,1.0332434409325677
1970-01-01 00:00:00.000000036,1.535711888888546,1.5256488606563499,-1.6508402318640552,1.018615152631216
1970-01-01 00:00:00.000000036,1.5970175852670505,1.6092250066971643,-1.3704639913690695,0.9947271223197053
1970-01-01 00:00:00.000000036,1.66280056311807,1.562811898946275,-0.9623019563216353,0.9771685929825653
1970-01-01 00:00:00.000000036,1.628558497357161,1.4142371422070463,-0.5341479519602952,0.9651316297668833
1970-01-01 00:00:00.000000036,1.5607173721746366,1.2464803271379916,-0.0848033601123327,0.9550406614198117
1970-01-01 00:00:00.000000036,1.5156543268130231,1.1111296998091442,0.3648552382177342,0.9401301020609742
1970-01-01 00:00:00.000000036,1.3916525887886586,0.9982646267673545,0.930137851049614,0.9214810174875037
1970-01-01 00:00:00.000000036,1.2192281394977997,0.8128272454221247,1.4696787626345698,0.9094352568168503
1970-01-01 00:00:00.000000036,1.0949730852420052,0.7094802097771657,2.012597950230937,0.8934459909171903
1970-01-01 00:00:00.000000036,0.9902516652466764,0.7536047499638484,2.530932225003228,0.8728386935523296
1970-01-01 00:00:00.000000036,0.9005879440217684,0.8182682250174302,3.002992310626898,0.8523847849689559
1970-01-01 00:00:00.000000036,0.8051874331821092,0.7853324571569241,3.49555529357318,0.8360114964621825
1970-01-01 00:00:00.000000036,0.7436857245831925,0.7353854799295846,3.976677977558967,0.8183688454224961
1970-01-01 00:00:00.000000036,0.645602994900225,0.6141743538663312,4.418848953443377,0.802812047072196
1970-01-01 00:00:00.000000036,0.4489055149088088,0.2910971557171214,4.776018846667899,0.8000973709850677
1970-01-01 00:00:00.000000036,0.21428230552775185,-0.2407971679139276,5.047413888180105,0.8123368153173731
1970-01-01 00:00:00.000000036,0.05102693052272278,-0.842805825336798,5.203970998251359,0.8315773708429702
1970-01-01 00:00:00.000000036,-0.045961329817927776,-1.2999509330242156,5.174812247761876,0.8540272448006765
1970-01-01 00:00:00.000000036,-0.035194924455430515,-1.6044354045889966,4.9173936530473314,0.8773580647059026
1970-01-01 00:00:00.000000036,0.0317400102051652,-1.7051472100386134,4.409474165356135,0.8980641473013099
1970-01-01 00:00:00.000000036,0.032503286446045804,-1.6342382089261616,3.6887098690957374,0.9194408341593953
1970-01-01 00:00:00.000000036,-0.049765629122618435,-1.4061099323226065,2.948866798873952,0.9387787378501032
1970-01-01 00:00:00.000000036,-0.13259360655207952,-1.051810323712169,2.209613340573006,0.9552705920679619
1970-01-01 00:00:00.000000036,-0.16065326935110114,-0.6308766903254235,1.5725855141777603,0.964185229767982
1970-01-01 00:00:00.000000036,-0.17412497181063788,-0.3384942307311817,1.1435616265696178,0.9698625602132147
1970-01-01 00:00:00.000000036,-0.1832764808590065,-0.2484017550146054,0.8136441876037875,0.9809355445932421
1970-01-01 00:00:00.000000036,-0.1370070594976715,-0.6387557050294825,0.804428888366333,0.9937604576405523
1970-01-01 00:00:00.000000036,-0.15859041575521407,-1.0826196534609283,0.8213184256076919,1.0147453032247122
1970-01-01 00:00:00.000000036,-0.0524578911472538,-1.4534761422617164,0.5096673991952131,1.041627389783092
1970-01-01 00:00:00.000000036,0.09083979540465625,-1.5817120865293917,0.01922545373907615,1.0624841861973424
1970-01-01 00:00:00.000000036,0.16461092367175073,-1.5695470395461992,-0.3073769937545001,1.0774146562333535
1970-01-01 00:00:00.000000036,0.31246727815509734,-1.4821918429180851,-0.7545381468106996,1.0903435346056363
1970-01-01 00:00:00.000000036,0.4355402703412032,-1.4541605997594111,-1.194680850651713,1.1060987618040428
1970-01-01 00:00:00.000000036,0.5645543008788604,-1.432173934637876,-1.6538744048373968,1.1210593142542342
1970-01-01 00:00:00.000000036,0.6518058276125054,-1.367267767400318,-2.1126602118951086,1.1335364553257101
1970-01-01 00:00:00.000000036,0.6716538296127982,-1.3214724146432526,-2.4753679458031,1.1457742142699252
1970-01-01 00:00:00.000000036,0.699168961737486,-1.2080090379180375,-2.8677959347391253,1.1556115842142738
1970-01-01 00:00:00.000000036,0.7092488009872224,-0.9384856105125037,-3.3488362935220373,1.160790422349233
1970-01-01 00:00:00.000000036,0.6422659640710697,-0.6517843554596457,-3.696465899896017,1.1638137738774477
1970-01-01 00:00:00.000000036,0.5971360021217821,-0.5086812395933149,-3.804732256365747,1.1619580838490466
1970-01-01 00:00:00.000000036,0.5353392980666009,-0.3822181230864187,-3.8309140315057273,1.1582113447227227
1970-01-01 00:00:00.000000036,0.47449934645813285,-0.26616519315812937,-3.834903703707049,1.1535569784488562
1970-01-01 00:00:00.000000036,0.403573342260716,-0.142869858658636,-3.8001137350601324,1.1479651711233743
1970-01-01 00:00:00.000000037,0.34324058650008327,-0.03963522967887263,-3.716481381970273,1.1419542670310134
1970-01-01 00:00:00.000000037,0.31219453760365257,0.02404288547879005,-3.5935593499875123,1.1348901310662858
1970-01-01 00:00:00.000000037,0.2814967114849681,0.06697996080667395,-3.431434244492085,1.1270319591617135
1970-01-01 00:00:00.000000037,0.2498389171736119,0.10817922952090533,-3.231402078079307,1.1175018037219984
1970-01-01 00:00:00.000000037,0.20832532494018718,0.16604589660754665,-3.0042352032994106,1.10646926588459
1970-01-01 00:00:00.000000037,0.1591918264150321,0.2152194248196032,-2.7927889650680306,1.0960936853012273
1970-01-01 00:00:00.000000037,0.09871547873458245,0.24334132863783647,-2.5526040984213303,1.085288856567184
1970-01-01 00:00:00.000000037,0.020323732505496614,0.22552323533834284,-2.2569949053715113,1.0759980931516668
1970-01-01 00:00:00.000000037,-0.026405834042217812,0.2001211947740082,-2.0319231773328705,1.0697606920069658
1970-01-01 00:00:00.000000037,-0.03557362902948143,0.1858081412623528,-1.8468717649135038,1.06436557294144
1970-01-01 00:00:00.000000037,-0.01549193799788217,0.2087787583913613,-1.6915343362498958,1.0589557806962948
1970-01-01 00:00:00.000000037,0.04222134411426082,0.22623814857310431,-1.549535500564985,1.0512261833297751
1970-01-01 00:00:00.000000037,0.05774155040890825,0.11573186308973704,-1.1798435689974087,1.0389976434174626
1970-01-01 00:00:00.000000037,0.01174203369461882,-0.08097169288844304,-0.535734710103297,1.0209822054060216
1970-01-01 00:00:00.000000037,-0.06746692538830584,-0.32486523239494564,0.192108734891144,1.0033901054304184
1970-01-01 00:00:00.000000037,-0.12632358648141595,-0.5231932921839866,0.8898668417553048,0.9865127950089472
1970-01-01 00:00:00.000000037,-0.12328287160268689,-0.4694914220980196,1.4161582269767388,0.9630834584883594
1970-01-01 00:00:00.000000037,-0.1635251664889055,-0.22959164882511165,1.7698887422541107,0.9389899040167721
1970-01-01 00:00:00.000000037,-0.24423501199966405,0.045920867547379784,2.146241777611681,0.9138137778944464
1970-01-01 00:00:00.000000037,-0.33059857887213806,0.368841442686217,2.578025623343169,0.8821343334177237
1970-01-01 00:00:00.000000037,-0.49166173566759463,0.5997299771849234,3.397381944858347,0.8395109807911282
1970-01-01 00:00:00.000000037,-0.7285713613227,0.5805709644218582,4.657989910947361,0.7901310352604847
1970-01-01 00:00:00.000000037,-1.0393575024324895,0.3325710996492509,5.875230688164396,0.7496778728884905
1970-01-01 00:00:00.000000037,-1.4619312128790476,-0.06546690916184222,6.75892303422145,0.7356217616615156
1970-01-01 00:00:00.000000037,-1.7662874758096847,-0.4639747189803349,7.001894163853366,0.7470784842135582
1970-01-01 00:00:00.000000037,-1.9214042568263552,-0.8637092261552152,6.64036066697154,0.7824044534591538
1970-01-01 00:00:00.000000037,-1.87744283013023,-1.1702406329958843,6.223777598592836,0.8125413776008171
1970-01-01 00:00:00.000000037,-1.7485499459389817,-1.314637814329974,6.06978454543867,0.8231286563691266
1970-01-01 00:00:00.000000037,-1.6589569148237215,-1.6524411090799618,6.082944373084675,0.8332374534016369
1970-01-01 00:00:00.000000037,-1.6433988952983087,-2.1159304950273894,5.855055163649157,0.8583900854792457
1970-01-01 00:00:00.000000037,-1.6570843058880622,-2.4201894211196158,5.0610378809825605,0.8995535542805501
1970-01-01 00:00:00.000000037,-1.6725859791544104,-2.4619062411191,3.810245256963091,0.9455993783812825
1970-01-01 00:00:00.000000037,-1.7571175931620457,-2.194133151306157,2.4227299948108336,0.987541464006572
1970-01-01 00:00:00.000000037,-1.8484497739305497,-1.7277023783203176,1.155451068756237,1.0187724798255284
1970-01-01 00:00:00.000000037,-1.9182611826260498,-1.1812650269435028,0.04701489800647126,1.0406473918841526
1970-01-01 00:00:00.000000037,-1.9802609507140867,-0.683610956911873,-0.9032064303391385,1.0603153574915192
1970-01-01 00:00:00.000000037,-1.9744985033453673,-0.2869876693579944,-1.6943453768441175,1.0758762649084979
1970-01-01 00:00:00.000000037,-1.9510296439423234,0.03298748961683486,-2.246075139081253,1.0851532646112607
1970-01-01 00:00:00.000000037,-1.9162414408708264,0.294967579898428,-2.582365687463818,1.0893454346839835
1970-01-01 00:00:00.000000037,-1.8485027706747468,0.4463695661071159,-2.712566023975458,1.0911717345252236
1970-01-01 00:00:00.000000037,-1.7117664604160447,0.4759591062111969,-2.687968558656043,1.0900056629170982
1970-01-01 00:00:00.000000037,-1.558587257974944,0.4084510935701039,-2.6086602677628017,1.0916718204138802
1970-01-01 00:00:00.000000037,-1.3485577777013518,0.2618923220533953,-2.536186769067838,1.0935712543319942
1970-01-01 00:00:00.000000037,-1.1660633958494624,0.0770063142802735,-2.454017784660143,1.0978826231612009
1970-01-01 00:00:00.000000037,-0.9738074056992158,-0.1263487116673992,-2.4159202919374376,1.104398560041573
1970-01-01 00:00:00.000000037,-0.7741817245700333,-0.34721404379782367,-2.3846226121484513,1.110851847666055
1970-01-01 00:00:00.000000037,-0.5996704192412154,-0.5142148879316176,-2.4846746531285344,1.1215827740866633
1970-01-01 00:00:00.000000037,-0.40805615223563435,-0.5732725126453468,-2.738277604611468,1.133964334586914
1970-01-01 00:00:00.000000037,-0.20050249945849888,-0.5640267260412508,-3.048704443929576,1.1443363514140605
1970-01-01 00:00:00.000000037,-0.02705582184623269,-0.5096190059305741,-3.4309122969492805,1.1577131023330733
1970-01-01 00:00:00.000000037,0.1777015052303061,-0.3921326603780051,-3.782373799994857,1.1662370494876428
1970-01-01 00:00:00.000000037,0.3723505086240478,-0.23807265403401148,-4.103290132670347,1.1693432682773106
1970-01-01 00:00:00.000000037,0.48503387479203597,-0.02735948125482074,-4.247990264819095,1.1632665754877196
1970-01-01 00:00:00.000000037,0.5547897779161176,0.10874758549334651,-4.233066092105789,1.097001059433095
1970-01-01 00:00:00.000000037,0.5997015357044084,0.18066257806176456,-4.077675933550617,1.0855100415695362
1970-01-01 00:00:00.000000037,0.62116536155903,0.22197620428549325,-3.91134993164965,1.07723396893277
1970-01-01 00:00:00.000000037,0.6381705523719452,0.21633944623535362,-3.625127712401137,1.0660813520812273
1970-01-01 00:00:00.000000037,0.6434621403152814,0.29995371566831386,-3.286333431581806,1.0503571327367556
1970-01-01 00:00:00.000000037,0.6528424376994963,0.4599933614425448,-3.0282924556742215,1.0337734403217123
1970-01-01 00:00:00.000000037,0.6426626417082042,0.6126048823339021,-2.734825032568662,1.016893318880139
1970-01-01 00:00:00.000000037,0.6330415565989113,0.7457032121348867,-2.396618673117583,1.000340643881247
1970-01-01 00:00:00.000000037,0.6558353226351659,0.8529308633629387,-2.142330123551183,0.9864828078455826
1970-01-01 00:00:00.000000037,0.6718214265981615,0.9643032679024038,-2.0154214935264214,0.978198061064576
1970-01-01 00:00:00.000000037,0.7124268832183095,1.0663067399711885,-1.8910008316929816,0.9705439347443354
1970-01-01 00:00:00.000000037,0.7801150173961238,1.1475174666688708,-1.7200622068348925,0.9606566562588197
1970-01-01 00:00:00.000000037,0.8384456535066906,1.235841112275543,-1.481502500661891,0.9489917603081716
1970-01-01 00:00:00.000000037,0.9161007998825371,1.3305159679562706,-1.1701819078506863,0.9350739991244451
1970-01-01 00:00:00.000000037,1.0281108189484869,1.4002694377859444,-0.9012295960644771,0.92281535517117
1970-01-01 00:00:00.000000037,1.1571376920650571,1.4930666049397514,-0.646709433214686,0.9098780670498277
1970-01-01 00:00:00.000000037,1.2842378727005337,1.5094737531374247,-0.46298024318196684,0.9034670366013958
1970-01-01 00:00:00.000000037,1.446161215619206,1.5151728391059487,-0.35130902336322467,0.8988097544002136
1970-01-01 00:00:00.000000037,1.6095296356370978,1.5111756467254673,-0.16138064362281035,0.8880088000838039
1970-01-01 00:00:00.000000037,1.6685437314680216,1.4226546923127774,0.1301167153784285,0.876142641570732
1970-01-01 00:00:00.000000037,1.613001698573688,1.3383085249189104,0.3623394380398234,0.8682797254025678
1970-01-01 00:00:00.000000037,1.5030556125426808,1.3419195363133614,0.5332921675123099,0.8602837239912393
1970-01-01 00:00:00.000000037,1.3654256890856658,1.4662315059505626,0.8592616352012311,0.8447230966467713
1970-01-01 00:00:00.000000037,1.273047474557224,1.7036402518324727,1.3740811104015738,0.8171787368294012
1970-01-01 00:00:00.000000037,1.1990461697788868,1.936173912647061,1.8950469647621782,0.785851140745121
1970-01-01 00:00:00.000000037,1.0350151039946922,2.029012232860412,2.2481437813993836,0.7693886303881969
1970-01-01 00:00:00.000000037,0.8872750020618356,1.9614772538605008,2.419156012297719,0.7645924828898649
1970-01-01 00:00:00.000000037,0.7330193293754247,1.8999890486867486,2.5381839779526008,0.7563535588288544
1970-01-01 00:00:00.000000037,0.41535432976061104,1.7692802284397435,2.792864560180599,0.7506364971244387
1970-01-01 00:00:00.000000037,0.061169361831875824,1.2067126079965256,3.205294635733895,0.7595970762184552
1970-01-01 00:00:00.000000037,-0.18976964847790767,0.15891413332935153,4.097044550497494,0.7680682305139024
1970-01-01 00:00:00.000000037,-0.3664689296465509,-1.0364982753130831,5.294440960489393,0.770407604325009
1970-01-01 00:00:00.000000037,-0.4857503706769108,-2.066332924496463,6.4308960250021885,0.7736014524245574
1970-01-01 00:00:00.000000037,-0.42481815740639695,-2.746287349043356,6.847955051617708,0.7876646720631908
1970-01-01 00:00:00.000000037,-0.2652792730497566,-3.1688594889779824,6.378456379372148,0.8205404278549618
1970-01-01 00:00:00.000000037,-0.11939744692583235,-3.2329261521129844,5.450359892679524,0.8595493051471337
1970-01-01 00:00:00.000000037,0.0737609685692195,-3.0277567567595574,4.373650584287963,0.8923103963078092
1970-01-01 00:00:00.000000037,0.26228653680167585,-2.747760743091886,3.4069514203986904,0.9142066563440547
1970-01-01 00:00:00.000000037,0.3359759521052261,-2.4357268159782413,2.5900942572198007,0.9299555396019468
1970-01-01 00:00:00.000000037,0.3151514176266933,-2.1796222985821694,1.8628345142743865,0.9444636265241105
1970-01-01 00:00:00.000000037,0.21472876940336194,-1.94782419601822,1.422688677910753,0.9494431501483093
1970-01-01 00:00:00.000000037,0.02699511527902732,-1.808463670606107,1.1529271126196232,0.9562984746610524
1970-01-01 00:00:00.000000037,-0.11029222916502293,-1.6980807688778086,0.8889575042879235,0.9658595310461147
1970-01-01 00:00:00.000000037,-0.14829226479580798,-1.5966953819679326,0.5419472102811019,0.9775602945879823
1970-01-01 00:00:00.000000037,-0.1248825302442494,-1.510982254655928,0.14532946290227236,0.9926104363070016
1970-01-01 00:00:00.000000037,-0.014031437345396393,-1.4267546693600037,-0.3449808875376293,1.0086220339603318
1970-01-01 00:00:00.000000037,0.11425675723187304,-1.3909566346714428,-0.8393762430255336,1.0232513878918321
1970-01-01 00:00:00.000000038,0.166150408232234,-1.3713626656168127,-1.3104658729996366,1.039506964148431
1970-01-01 00:00:00.000000038,0.20115920652806132,-1.290790928317252,-1.698157919299388,1.0511107766581969
1970-01-01 00:00:00.000000038,0.23543757833813417,-1.175794158824838,-1.985599707959675,1.057311969624192
1970-01-01 00:00:00.000000038,0.255377119342854,-1.0513439460373202,-2.2587267816957515,1.0632495409882066
1970-01-01 00:00:00.000000038,0.2839772244384683,-0.9556390364391567,-2.495170050081965,1.0679087086781756
1970-01-01 00:00:00.000000038,0.29361988851462195,-0.8615849669229986,-2.721539499620364,1.0722403880966391
1970-01-01 00:00:00.000000038,0.2843147523044041,-0.7752532142479424,-2.95449458343394,1.077113350042114
1970-01-01 00:00:00.000000038,0.26079993364018317,-0.663914993690408,-3.143477429014985,1.0787866109986304
1970-01-01 00:00:00.000000038,0.20089357662289992,-0.5327096561481833,-3.301654040725749,1.0804968300429338
1970-01-01 00:00:00.000000038,0.1578406244208948,-0.392716427038504,-3.4246523753081832,1.083786819309803
1970-01-01 00:00:00.000000038,0.22606561400939676,-0.334288931688908,-3.4276151503927372,1.0807219574013778
1970-01-01 00:00:00.000000038,0.2667242925980937,-0.3181954995228307,-3.3060674562565144,1.073224983443753
1970-01-01 00:00:00.000000038,0.24732532548019406,-0.2544598429781991,-3.083676456083808,1.0615120319064302
1970-01-01 00:00:00.000000038,0.1994210491585819,-0.2507305077918029,-2.9017071049095464,1.0517193550037582
1970-01-01 00:00:00.000000038,0.07601780776528837,-0.21506362686666075,-2.7122151359401188,1.0477405176060293
1970-01-01 00:00:00.000000038,0.0869101694800052,-0.17021240455480152,-2.442326552420373,1.0356793572894656
1970-01-01 00:00:00.000000038,0.08211907406037747,-0.18101698364656352,-2.2809474669435232,1.0278861655531124
1970-01-01 00:00:00.000000038,0.03188680286158375,-0.08168464693400593,-2.0076935480863733,1.0154383434901044
1970-01-01 00:00:00.000000038,0.01925944382472789,-0.07086005049562334,-1.7231698983125734,1.0051872656328387
1970-01-01 00:00:00.000000038,0.02690681624740407,-0.11691698992740317,-1.5532739798326902,1.0018672789941103
1970-01-01 00:00:00.000000038,0.08194826591824309,-0.04958052131237251,-1.4289094009381689,0.9941771473171805
1970-01-01 00:00:00.000000038,0.12171598638094183,0.01073733526950423,-1.294785424721702,0.9860398432230785
1970-01-01 00:00:00.000000038,0.14133070488128727,0.02537282804705422,-1.0944128120897225,0.9774125980411561
1970-01-01 00:00:00.000000038,0.14969944182485018,0.07469344951370037,-0.8539960741880638,0.9670944552780281
1970-01-01 00:00:00.000000038,0.17679783204462968,0.14851430523998965,-0.5563171945708645,0.9539314147598859
1970-01-01 00:00:00.000000038,0.22593340208103704,0.1735378506288501,-0.17822312056245188,0.940028525778868
1970-01-01 00:00:00.000000038,0.30345020084514085,0.1305190947005198,0.08780437234622795,0.9329799381082627
1970-01-01 00:00:00.000000038,0.4238275485406885,0.11378208171308662,0.31224554933851423,0.9263639024492659
1970-01-01 00:00:00.000000038,0.5802693657915967,0.11647814976264281,0.5177064980034868,0.9163561901088887
1970-01-01 00:00:00.000000038,0.6788418289699067,0.20769873370664488,0.592400668583982,0.9044537261962311
1970-01-01 00:00:00.000000038,0.638372245288189,0.4571411977036671,0.6928650911509312,0.8822776784534255
1970-01-01 00:00:00.000000038,0.3666277398627106,0.9038629351229285,0.8837061233217361,0.8484226467539819
1970-01-01 00:00:00.000000038,-0.16044425242046584,1.5664807815942854,1.2865229695148053,0.8070862387600772
1970-01-01 00:00:00.000000038,-0.7078380425679028,2.293912703916716,2.005208589571962,0.7583300596392516
1970-01-01 00:00:00.000000038,-1.0984363138019457,2.7476832953016164,2.982630020072643,0.7089761665213933
1970-01-01 00:00:00.000000038,-1.3726834832553172,2.5215290961879773,4.153794779350483,0.6746489872765843
1970-01-01 00:00:00.000000038,-1.6115869464572983,1.5762048135564002,5.4124315341729465,0.6617787256061001
1970-01-01 00:00:00.000000038,-1.8963439327811962,0.3719988842145612,6.0678546576987245,0.6920043423448969
1970-01-01 00:00:00.000000038,-1.903091664163104,-0.4814546243823701,5.9704245390734885,0.735748556964187
1970-01-01 00:00:00.000000038,-1.6802726568467414,-0.9426478400557692,5.562233799768336,0.7644623220481397
1970-01-01 00:00:00.000000038,-1.5880261362039818,-1.2420865797889773,4.937838532005895,0.7953143395471269
1970-01-01 00:00:00.000000038,-1.615736403327546,-1.3776016098139794,3.975494768823402,0.8377427740339913
1970-01-01 00:00:00.000000038,-1.6088934427736168,-1.3116368159810077,2.792040295433459,0.8778903524552987
1970-01-01 00:00:00.000000038,-1.66123099656461,-1.1484191380240893,1.5477664915291078,0.916099749785314
1970-01-01 00:00:00.000000038,-1.7896902492040214,-1.0096085483415893,0.4337263381802641,0.955503977953137
1970-01-01 00:00:00.000000038,-1.8417994163489548,-0.9223874658810511,-0.39853115934419847,0.9837615801443161
1970-01-01 00:00:00.000000038,-1.8983116708032715,-0.9080984918389986,-0.9573131018658334,1.0054429484283416
1970-01-01 00:00:00.000000038,-1.92551449964762,-0.9036129708650098,-1.2562637481263947,1.0184865942049728
1970-01-01 00:00:00.000000038,-1.8613775729920634,-0.9147190107094912,-1.387075386740038,0.9810575297898585
1970-01-01 00:00:00.000000038,-1.7501739087011514,-0.9430549305047187,-1.3440263060680857,0.979874300435462
1970-01-01 00:00:00.000000038,-1.6206026074494801,-0.9527036409776557,-1.306574405158055,0.9796712564355673
1970-01-01 00:00:00.000000038,-1.4695776372685994,-0.9298911118463054,-1.3334303691537202,0.9803640898982647
1970-01-01 00:00:00.000000038,-1.3022102045198265,-0.8249007861732603,-1.3665899692930663,0.9786769660446322
1970-01-01 00:00:00.000000038,-1.111782979345662,-0.7179046900049183,-1.4399733769322762,0.9775016206613212
1970-01-01 00:00:00.000000038,-0.9254662106103312,-0.6492880663779056,-1.603453430296767,0.9821667719203903
1970-01-01 00:00:00.000000038,-0.7061923968908644,-0.5265933032266915,-1.8169894421085928,0.9863432226887927
1970-01-01 00:00:00.000000038,-0.468084729269143,-0.3881362501236814,-2.0246666360161343,0.9887573138238248
1970-01-01 00:00:00.000000038,-0.2384442267947401,-0.3316249576493545,-2.227549237863681,0.990626945545567
1970-01-01 00:00:00.000000038,-0.10297797492646871,-0.2448480465147736,-2.2982732264091603,0.988121978328289
1970-01-01 00:00:00.000000038,-0.017882249027102462,-0.14597256041584844,-2.192528137349959,0.9810284096796583
1970-01-01 00:00:00.000000038,0.07593422066036208,-0.12764683643811764,-2.0812222337646973,0.9774715338252472
1970-01-01 00:00:00.000000038,0.20222229207075967,-0.14034522928544407,-2.0903253801690203,0.979912000257613
1970-01-01 00:00:00.000000038,0.37401933667042353,-0.06669158814383203,-2.2625802646738205,0.9841974417830462
1970-01-01 00:00:00.000000038,0.5622990576191618,0.07409774748539423,-2.514916367940705,0.9869065284958058
1970-01-01 00:00:00.000000038,0.7100086595923832,0.23341308199760238,-2.724079357977063,0.9874233418795814
1970-01-01 00:00:00.000000038,0.8193432006400228,0.38256462368719774,-2.8807171402026817,0.9870950620179247
1970-01-01 00:00:00.000000038,0.9151244572854262,0.5053212547579474,-2.895793930294108,0.9826950323333362
1970-01-01 00:00:00.000000038,1.0014916152876927,0.5310833847659954,-2.785744847749627,0.9747071434984855
1970-01-01 00:00:00.000000038,1.010610393295224,0.556002119707868,-2.59724497316189,0.9655320304374473
1970-01-01 00:00:00.000000038,0.9952589235104432,0.6786232771578559,-2.392219997809982,0.9513693106517545
1970-01-01 00:00:00.000000038,0.9276986753841409,0.8254573687083568,-2.1840639625535214,0.9391325648417541
1970-01-01 00:00:00.000000038,0.8961872485900618,0.9699326937915669,-1.966299975311314,0.9254791584271186
1970-01-01 00:00:00.000000038,0.8660174044569474,1.0664635252065418,-1.7022972093093658,0.9116050767607645
1970-01-01 00:00:00.000000038,0.8285168162603485,1.1275538402560135,-1.4427533225706088,0.8998914701122047
1970-01-01 00:00:00.000000038,0.8066787752910985,1.21971340846683,-1.1598192533360712,0.8867500655574889
1970-01-01 00:00:00.000000038,0.8046765955310904,1.2342082841175834,-0.9428664217341226,0.8809225982369118
1970-01-01 00:00:00.000000038,0.8859511166554997,1.1731599711431135,-0.7283244250500408,0.8764719978020459
1970-01-01 00:00:00.000000038,1.0049597870120552,1.1192492322436232,-0.5437547591198567,0.8710218404431838
1970-01-01 00:00:00.000000038,1.1120220770905713,1.1091601525219785,-0.39046321809884993,0.8627707497788946
1970-01-01 00:00:00.000000038,1.1419560103217683,1.09952506726956,-0.22730194812931953,0.8543007875344748
1970-01-01 00:00:00.000000038,1.1021718080363192,1.0614753607998133,-0.013230684349113071,0.8458714132233084
1970-01-01 00:00:00.000000038,1.0194439456495916,1.0019020418233946,0.31166583820123267,0.8348819395205648
1970-01-01 00:00:00.000000038,0.9100136325314713,0.9592946811682163,0.6476232285187646,0.8244180690960197
1970-01-01 00:00:00.000000038,0.8147581506227825,0.8840416188887854,0.9091486009757634,0.8184553977700316
1970-01-01 00:00:00.000000038,0.7492759089495978,0.7936798517338429,1.0332398207316544,0.816790696127373
1970-01-01 00:00:00.000000038,0.6788441747029873,0.7161521457128286,1.1591643265667941,0.8147933679846214
1970-01-01 00:00:00.000000038,0.6065930140908485,0.7613113471569017,1.2330802612161547,0.8105757066294834
1970-01-01 00:00:00.000000038,0.5434765436987282,0.9128064897782481,1.2075549885240964,0.8033651757938423
1970-01-01 00:00:00.000000038,0.4140775795815108,1.141347371576478,1.127787923655145,0.796229737052682
1970-01-01 00:00:00.000000038,0.25539387315460166,1.580075854932577,1.1692222623107487,0.780403239302246
1970-01-01 00:00:00.000000038,0.16816047613903637,2.085132673247579,1.5056451203795287,0.7481518882801192
1970-01-01 00:00:00.000000038,0.05758008297610254,2.104483301547961,2.3691729667323735,0.7147369255845567
1970-01-01 00:00:00.000000038,-0.0567789093753156,1.4638387583098487,3.689947271156979,0.6867295947931238
1970-01-01 00:00:00.000000038,-0.2348695014650005,0.35404231685748494,5.19428249854553,0.6709034803969538
1970-01-01 00:00:00.000000038,-0.45293662130069356,-1.055526533167306,6.404849859562704,0.6858962484427091
1970-01-01 00:00:00.000000039,-0.4683568845946536,-2.1351500640414685,6.70477235798082,0.7254660784171805
1970-01-01 00:00:00.000000039,-0.21308528356042555,-2.623703188408117,5.8438258134636785,0.7805720788930918
1970-01-01 00:00:00.000000039,0.15237091263914526,-2.622248381458318,4.161112247057855,0.8416298957434118
1970-01-01 00:00:00.000000039,0.4511401253039599,-2.378001188861777,2.3052067792031385,0.9014992308114853
1970-01-01 00:00:00.000000039,0.7317063999088848,-2.0485936170229824,0.8646608922135663,0.9431016394811177
1970-01-01 00:00:00.000000039,0.9946244320620625,-1.6876590631605388,-0.2129952818386432,0.9676746453046183
1970-01-01 00:00:00.000000039,1.192111167244715,-1.3910555199640038,-0.7383879335093899,0.9703215546188384
1970-01-01 00:00:00.000000039,1.224925879767168,-1.3045244371025342,-0.6571633841498643,0.9563850706967615
1970-01-01 00:00:00.000000039,1.039223919626138,-1.3964227360304833,-0.32034189276301195,0.9458191024953857
1970-01-01 00:00:00.000000039,0.8220869271101191,-1.4506517009845477,-0.04382998571549028,0.9380306339423398
1970-01-01 00:00:00.000000039,0.6242024747033902,-1.3790647602594075,0.029040708737669427,0.9321786467684098
1970-01-01 00:00:00.000000039,0.4219528117211316,-1.2496163401893625,0.11240960746266239,0.9243355171625494
1970-01-01 00:00:00.000000039,0.22359213097610622,-1.126461503549681,0.2401336140579159,0.9180574404518502
1970-01-01 00:00:00.000000039,0.10827241510662582,-1.0206465045132698,0.26539572323982175,0.916475328703887
1970-01-01 00:00:00.000000039,0.0778061828701351,-0.9925728492470398,0.11397218247882798,0.924259906142385
1970-01-01 00:00:00.000000039,0.12800739550084148,-1.0342027503381273,-0.19352912149278567,0.9422220144869125
1970-01-01 00:00:00.000000039,0.30249127923528996,-1.1365072137709251,-0.7948642666725684,0.9691908836434476
1970-01-01 00:00:00.000000039,0.4993793525926593,-1.1726464926348477,-1.4139605498245598,0.9888395752559057
1970-01-01 00:00:00.000000039,0.5600380143352601,-1.1638042827227246,-1.770926773943321,0.9996836554409403
1970-01-01 00:00:00.000000039,0.5499704855128326,-1.151626267538769,-2.05261947330514,1.0101241975171598
1970-01-01 00:00:00.000000039,0.5475260527427261,-1.0945583397412266,-2.3142524042126653,1.018278481132899
1970-01-01 00:00:00.000000039,0.5552172674149927,-1.0195727194981363,-2.5503192544606166,1.0243331815750576
1970-01-01 00:00:00.000000039,0.557398854779499,-0.9494399962913023,-2.8099023758068764,1.032244714338494
1970-01-01 00:00:00.000000039,0.5837816877116009,-0.8338498048385253,-3.0355875167965674,1.0367936836204692
1970-01-01 00:00:00.000000039,0.6200338211760925,-0.6470814591073619,-3.2335373024589105,1.0376702211834221
1970-01-01 00:00:00.000000039,0.6671030764848246,-0.4910813754081806,-3.3736514339419696,1.0356327065116826
1970-01-01 00:00:00.000000039,0.6752526577708087,-0.41388558501098116,-3.406821322071759,1.0317051490622433
1970-01-01 00:00:00.000000039,0.6238552758444692,-0.3870044180564231,-3.313699260163592,1.0262935225284937
1970-01-01 00:00:00.000000039,0.5514007655345105,-0.35417231865232207,-3.1319973184851406,1.0183435455948797
1970-01-01 00:00:00.000000039,0.486604502783189,-0.29802518918911275,-2.8726053425680194,1.0056674074281737
1970-01-01 00:00:00.000000039,0.4028197225716203,-0.247007268152506,-2.4828464095501688,0.9892391787947385
1970-01-01 00:00:00.000000039,0.32320896784969005,-0.2608943225924147,-2.0539709869504184,0.9731293508936191
1970-01-01 00:00:00.000000039,0.22925940095071076,-0.2788436995979271,-1.7060744958663563,0.962611240105454
1970-01-01 00:00:00.000000039,0.1915880583576528,-0.23990614806589586,-1.4820609829554867,0.9544157529670856
1970-01-01 00:00:00.000000039,0.20233984729143017,-0.21731371078846703,-1.3282634565389995,0.9469848799263734
1970-01-01 00:00:00.000000039,0.19344550124141077,-0.21026314335137766,-1.2137514437261578,0.9405391074440637
1970-01-01 00:00:00.000000039,0.1380823102988202,-0.13280573416803104,-1.1160400985365522,0.9336186491217837
1970-01-01 00:00:00.000000039,0.07903631169575638,-0.003597018914497315,-0.922436556489788,0.9231212816427886
1970-01-01 00:00:00.000000039,0.056272525202196125,0.05485833008246608,-0.7705748200818596,0.9188902643670976
1970-01-01 00:00:00.000000039,0.14429627861269204,0.09726837139230496,-0.5205871454691965,0.9084744990477978
1970-01-01 00:00:00.000000039,0.24134388020483732,0.07728377013590819,-0.279382034960307,0.8998794850773111
1970-01-01 00:00:00.000000039,0.32810723135603365,0.08942350858151059,-0.17269771215478963,0.8973638868716249
1970-01-01 00:00:00.000000039,0.4777418421194548,-0.011197529830318312,0.018195315385785848,0.8896591715890952
1970-01-01 00:00:00.000000039,0.5208298946550076,-0.05397902740124469,0.3767490141698862,0.8702737351605482
1970-01-01 00:00:00.000000039,0.36914922073849726,0.1268010636617954,0.7270653408662062,0.8398311539384979
1970-01-01 00:00:00.000000039,-0.07071557949312518,0.45640065773900523,0.9828081006869649,0.8180225351758998
1970-01-01 00:00:00.000000039,-0.48472209823927215,0.8327832558943651,1.1955199382848767,0.792606058941562
1970-01-01 00:00:00.000000039,-0.9776411690613885,1.5524718424097732,2.0699548240056296,0.7651278497749257
1970-01-01 00:00:00.000000039,-1.3865610051586799,1.6971828600960754,3.431486680793678,0.718925369838522
1970-01-01 00:00:00.000000039,-1.5495110769509641,1.2076898880011457,4.516410065240594,0.6969347576126537
1970-01-01 00:00:00.000000039,-1.676085686520588,0.3770081830887702,5.728149147856306,0.6797302667876423
1970-01-01 00:00:00.000000039,-1.8922196945839969,-0.613397552644557,6.5586883188395255,0.685706951544105
1970-01-01 00:00:00.000000039,-2.1136435990262585,-1.418597395735946,6.626580169566595,0.7193552475895122
1970-01-01 00:00:00.000000039,-2.1656045633327494,-1.7789556176376078,6.018752774046884,0.7615143618916715
1970-01-01 00:00:00.000000039,-2.061462831784934,-1.7709406787016297,4.972008331477202,0.7986492391941892
1970-01-01 00:00:00.000000039,-2.017157722028929,-1.6228893576865384,3.889025525457383,0.830421559901823
1970-01-01 00:00:00.000000039,-2.0712150362935122,-1.4265154630503722,2.9022373716566334,0.8581425078700896
1970-01-01 00:00:00.000000039,-2.179902240276693,-1.2197213808302065,2.1446902731150104,0.8775860303644926
1970-01-01 00:00:00.000000039,-2.326795980572236,-1.0677239775454452,1.6926378442684202,0.8897712677215567
1970-01-01 00:00:00.000000039,-2.4399939288485686,-0.9867915221888827,1.4285660128402549,0.8831258027560239
1970-01-01 00:00:00.000000039,-3.004172778634794,-1.192134448062053,0.2621571759108232,0.9529911941140473
1970-01-01 00:00:00.000000039,-2.961282642218615,-0.9495016801310002,-0.0989853678924728,0.9638264476093727
1970-01-01 00:00:00.000000039,-2.8061189587157465,-0.9109983791355467,-0.4013495726681859,0.9685885416089901
1970-01-01 00:00:00.000000039,-2.8100284065453054,-0.9626209809747102,-0.8026195185944988,0.9877508653179795
1970-01-01 00:00:00.000000039,-2.73940687010856,-0.8964841062591813,-1.0860934284608321,0.998821936829475
1970-01-01 00:00:00.000000039,-2.601460763914335,-0.8298499751456774,-1.3593031369704487,1.0078944558859342
1970-01-01 00:00:00.000000039,-2.4377296336094747,-0.8181428533149196,-1.673768900382106,1.0205038553804922
1970-01-01 00:00:00.000000039,-2.244838688949444,-0.884827052615045,-1.9572771616043019,1.0357427650600213
1970-01-01 00:00:00.000000039,-1.9924060611179808,-0.8376902653565929,-2.188217160999304,1.043901217105388
1970-01-01 00:00:00.000000039,-1.7104004224336002,-0.7026124045045932,-2.344388477868596,1.044640918224337
1970-01-01 00:00:00.000000039,-1.444663495172006,-0.6085523351465563,-2.5859794203319373,1.0505490100031332
1970-01-01 00:00:00.000000039,-1.1709910140682753,-0.6033792327856793,-2.852134459426939,1.059956877457607
1970-01-01 00:00:00.000000039,-0.9050590386518064,-0.5500194624988146,-3.038983496627501,1.0658072828507412
1970-01-01 00:00:00.000000039,-0.6244399400791991,-0.5067690334181626,-3.210042728251434,1.0720700947071198
1970-01-01 00:00:00.000000039,-0.3065728076821559,-0.5511551680988875,-3.3005808944685215,1.0765276598647724
1970-01-01 00:00:00.000000039,-0.013137382412393442,-0.649436000136495,-3.430656917283296,1.0840143406876692
1970-01-01 00:00:00.000000039,0.2535516673726939,-0.7018870832778502,-3.545426119871853,1.0884424049414942
1970-01-01 00:00:00.000000039,0.46937757316081824,-0.6316521270030886,-3.6259851978943773,1.0886468280256445
1970-01-01 00:00:00.000000039,0.6819953556138081,-0.441173582062097,-3.694627459532868,1.081421829424971
1970-01-01 00:00:00.000000039,0.8294522414147593,-0.19230837202594375,-3.5412299928454187,1.062321897026766
1970-01-01 00:00:00.000000039,0.8617533004225195,0.07759426577243546,-3.3398356188826157,1.0448692326391138
1970-01-01 00:00:00.000000039,0.90428983219474,0.30311492214269037,-3.1185703427241798,1.0297618724208746
1970-01-01 00:00:00.000000039,0.9956931049898204,0.49900474596488864,-2.969067520785553,1.0160505505397537
1970-01-01 00:00:00.000000039,1.0689426718938462,0.6568634346481191,-2.8094025027469676,1.0053063218218314
1970-01-01 00:00:00.000000039,1.1787781369268284,0.7387421479748152,-2.632365894942096,0.9945074110207516
1970-01-01 00:00:00.000000039,1.260632845514969,0.8132102686461676,-2.490440952715358,0.9852825976432826
1970-01-01 00:00:00.000000039,1.3187881667791823,0.969152027078311,-2.358322906765961,0.9741927608850489
1970-01-01 00:00:00.000000039,1.3746294279195772,1.1300384518001387,-2.1581335406336835,0.9589190495155115
1970-01-01 00:00:00.000000039,1.3898159225503213,1.198896922787548,-1.7542719390813835,0.9384854412264462
1970-01-01 00:00:00.000000039,1.3464125565834393,1.1511244195292385,-0.7962628584980943,0.9059869335946815
1970-01-01 00:00:00.000000039,1.326133456911159,1.1350409219682378,-0.49124672290083,0.8915933972268458
1970-01-01 00:00:00.000000039,1.22038166437728,1.1042107063869624,-0.3581684270505003,0.8911181382345265
1970-01-01 00:00:00.000000040,1.2144201581697456,1.039874929065504,-0.31807402887691827,0.8946762276216927
1970-01-01 00:00:00.000000040,1.2876260093108851,0.9846876731695111,-0.21755505783841253,0.8922684162696225
1970-01-01 00:00:00.000000040,1.332233005258136,0.8791602984035316,-0.22344448086801427,0.8938921774808941
1970-01-01 00:00:00.000000040,1.3123087935741757,0.790629574996194,-0.2774567343276434,0.8956626809154355
1970-01-01 00:00:00.000000040,1.199783364346857,0.7091349365160086,-0.27659063595602484,0.8951500311887464
1970-01-01 00:00:00.000000040,0.9912714840803278,0.613418886043404,-0.1830852613776877,0.8956464502186391
1970-01-01 00:00:00.000000040,0.8036713846398122,0.5896011309506339,0.06971472305319988,0.8885833829398216
1970-01-01 00:00:00.000000040,0.6676622789907025,0.7111108298005916,0.4706819639909627,0.8662571832640004
1970-01-01 00:00:00.000000040,0.4548109920162982,0.836001947940777,0.8643089789782191,0.8408243533941833
1970-01-01 00:00:00.000000040,0.08273771053955081,0.9822352317010421,1.2369539355216297,0.8221469394102006
1970-01-01 00:00:00.000000040,-0.24543311015939984,1.2577871402149157,1.8568851123333996,0.7954339568394184
1970-01-01 00:00:00.000000040,-0.3730688017004961,1.461112136856239,2.882038680234757,0.7525175919392362
1970-01-01 00:00:00.000000040,-0.43587720918309436,1.2806139051505256,3.7965326042519423,0.725767489697402
1970-01-01 00:00:00.000000040,-0.4843415889541276,0.6372504382435804,4.396128770603301,0.7298448798568846
1970-01-01 00:00:00.000000040,-0.4710741119389876,-0.40314159046974807,4.570654684141336,0.7666078624732438
1970-01-01 00:00:00.000000040,-0.341934879001843,-1.5328440261539975,4.250777055985589,0.8226498756241125
1970-01-01 00:00:00.000000040,-0.16952017753614207,-2.412065586567453,3.5219073565903325,0.8813734224291335
1970-01-01 00:00:00.000000040,-0.03782064040262034,-2.75952515676483,2.674123226355728,0.9226872982954093
1970-01-01 00:00:00.000000040,-0.00396882038932928,-2.5530505208337697,1.9714828802635076,0.938099870726668
1970-01-01 00:00:00.000000040,-0.049755399898646926,-2.025876190719912,1.7028772557860126,0.9178250402822329
1970-01-01 00:00:00.000000040,-0.35891132114166857,-1.251912699740378,2.6498969548223115,0.8517232596876597
1970-01-01 00:00:00.000000040,-0.7643550443528793,-0.4028819735706355,2.967225253116064,0.8164408139148458
1970-01-01 00:00:00.000000040,-0.9278630445020728,0.37466629275646746,2.715751758734629,0.8075987093669781
1970-01-01 00:00:00.000000040,-0.7999210511038697,0.9911138789710391,1.8303142336947005,0.8258194538999053
1970-01-01 00:00:00.000000040,-0.443180757943094,1.3823651341402476,0.6996892457009561,0.8513363545396957
1970-01-01 00:00:00.000000040,-0.14591416504393978,1.1825010140704335,0.1610516714859242,0.8748715038572434
1970-01-01 00:00:00.000000040,0.027048853405674242,0.561412854343273,0.164956493000819,0.9012979721182555
1970-01-01 00:00:00.000000040,0.2787389456063854,-0.1698681884796236,0.1472593978586523,0.9295126155886793
1970-01-01 00:00:00.000000040,0.52684866044077,-0.7521301837274762,-0.04322899125157207,0.9561195222722829
1970-01-01 00:00:00.000000040,0.7037264686355609,-1.1585096945019941,-0.3353050839908611,0.9797046773537673
1970-01-01 00:00:00.000000040,0.8068443441828337,-1.391805792877423,-0.6241825015527256,0.9965856551589541
1970-01-01 00:00:00.000000040,0.8360958793896122,-1.4599331622621288,-0.8073089070064082,1.0032746767948746
1970-01-01 00:00:00.000000040,0.7833131165369023,-1.4759275573627602,-0.8726959567829968,1.0071457630705303
1970-01-01 00:00:00.000000040,0.7460316672993844,-1.4310774373299224,-1.0464484769320246,1.0135474892424878
1970-01-01 00:00:00.000000040,0.748582456721179,-1.3641776935196706,-1.3324273633562012,1.022475117432682
1970-01-01 00:00:00.000000040,0.7690377943841196,-1.3276998992458295,-1.605069945230037,1.0321541838258603
1970-01-01 00:00:00.000000040,0.8041419168563088,-1.3976608044963563,-1.9184023762334383,1.046599741417483
1970-01-01 00:00:00.000000040,0.8426783379622481,-1.4403538901197104,-2.223006281036715,1.0596798804128778
1970-01-01 00:00:00.000000040,0.8848074038419657,-1.3564210000994854,-2.4672939831215275,1.0650833722971285
1970-01-01 00:00:00.000000040,0.9127156706751074,-1.1864710954591888,-2.647389246137343,1.0589663026473775
1970-01-01 00:00:00.000000040,0.7607484588560005,-1.0193905771320935,-2.6033076624202156,1.0507679132791126
1970-01-01 00:00:00.000000040,0.5971463480680954,-0.9654560468806278,-2.5202991989817933,1.0482389100458989
1970-01-01 00:00:00.000000040,0.5134884294788002,-0.8720159081791127,-2.51886392962248,1.0424425523564766
1970-01-01 00:00:00.000000040,0.37169769914482026,-0.7569411419797742,-2.416994568849558,1.0345954494851197
1970-01-01 00:00:00.000000040,0.2452070978924506,-0.55142106555325,-2.226015569594096,1.0204615573938283
1970-01-01 00:00:00.000000040,0.14112782442899194,-0.2618709914719214,-2.0658691737049564,1.0022763505648966
1970-01-01 00:00:00.000000040,0.002815697667750576,0.06057506851773109,-1.9727813477333647,0.985523794495317
1970-01-01 00:00:00.000000040,-0.16280579482277446,0.39828493046691443,-1.9483401260796185,0.9726063037554836
1970-01-01 00:00:00.000000040,-0.29753148386402917,0.758778885984976,-1.8167412245203176,0.9553603527293295
1970-01-01 00:00:00.000000040,-0.398124644266226,1.089578714678212,-1.6028392124181794,0.937810057417757
1970-01-01 00:00:00.000000040,-0.43097386594771314,1.3638022183178131,-1.5059617027794596,0.934320119471742
1970-01-01 00:00:00.000000040,-0.3781870653504384,1.4646384925294524,-1.5765694500005085,1.135243594876565
1970-01-01 00:00:00.000000040,-0.3076966307658153,1.3729162806929116,-1.619934246518767,1.1445115036198845
1970-01-01 00:00:00.000000040,-0.3114330965215256,1.2447464469757863,-1.5210098452095793,1.1429877243658009
1970-01-01 00:00:00.000000040,-0.38820912506919836,1.1680964745978974,-1.2644728871952895,1.1347911019101824
1970-01-01 00:00:00.000000040,-0.5074066281851086,1.188633762830674,-0.9749827134000036,1.126922783581232
1970-01-01 00:00:00.000000040,-0.5205076934123999,1.2631642435501522,-0.7219112528849551,1.116048537211809
1970-01-01 00:00:00.000000040,-0.4932816996058923,1.2772367780307599,-0.4061851494864484,1.1025990468538327
1970-01-01 00:00:00.000000040,-0.4982052698250618,1.1762540187600425,-0.04106252776955385,1.0939263440301645
1970-01-01 00:00:00.000000040,-0.4701586064843286,1.154789059684278,0.2206642309023738,1.0923549338633798
1970-01-01 00:00:00.000000040,-0.22500732637311158,1.1957646613122297,0.44171083073041945,1.0781462995867255
1970-01-01 00:00:00.000000040,-0.12925953320344638,0.9644757487623249,0.5391471518353087,1.0869894687034578
1970-01-01 00:00:00.000000040,0.09346671645705837,0.6787123452857543,0.6988940588381224,1.0899765061307432
1970-01-01 00:00:00.000000040,0.26289101860180947,0.3744535554610121,0.8446884183019193,1.0918475390434075
1970-01-01 00:00:00.000000040,0.33207722193534506,0.13918483290576622,1.0653444160579446,1.0833335894943585
1970-01-01 00:00:00.000000040,0.16237693302260375,0.05508638930421811,1.341160271572139,1.0654841943226843
1970-01-01 00:00:00.000000040,-0.29470757099691713,0.22763628024459942,1.5254715183262608,1.0500036198634422
1970-01-01 00:00:00.000000040,-0.8007073416832963,0.6089169417618453,1.6143944876988021,1.0382126671609837
1970-01-01 00:00:00.000000040,-1.141156732330741,1.022058698427687,1.6221172006438478,1.0264513052944626
1970-01-01 00:00:00.000000040,-1.3796103911862905,1.3500413009475531,1.5461433148469133,1.0251213216601895
1970-01-01 00:00:00.000000040,-1.3855612257621521,1.5603899178675387,1.5050857909341278,1.0189332309507944
1970-01-01 00:00:00.000000040,-1.3975839404525714,1.5786797158052346,1.3893662747037805,1.0200445090493955
1970-01-01 00:00:00.000000040,-1.4735528481177786,1.3307796357965116,1.5246208529906293,1.0248611010144453
1970-01-01 00:00:00.000000040,-1.5227147882119247,0.7368093963714113,2.1598357017140684,1.0214195247203541
1970-01-01 00:00:00.000000040,-1.6304002213926334,0.04323408282737842,3.021103109885085,1.0194014437398322
1970-01-01 00:00:00.000000040,-1.6116440315073284,-0.5507859244333673,3.9286515007820633,1.0068980525628402
1970-01-01 00:00:00.000000040,-1.6163479630421398,-1.0758359807902909,4.641105472968628,0.9912393979037746
1970-01-01 00:00:00.000000040,-1.8934560980767219,-1.4683605964278246,4.409621229847476,1.0207660120245587
1970-01-01 00:00:00.000000040,-1.9990967805394424,-1.295811479193347,2.9427563764808187,1.0793069310357721
1970-01-01 00:00:00.000000040,-1.8265249820828706,-0.9881885329931367,1.075161743934093,1.1366572954495817
1970-01-01 00:00:00.000000040,-1.6930216185390963,-1.0486509038866887,-0.20176128252565997,1.1828434145464566
1970-01-01 00:00:00.000000040,-1.6674425387408203,-1.1554262951556742,-0.6027567953351122,1.2058498348054183
1970-01-01 00:00:00.000000040,-1.5548010779581822,-1.2924099085690393,-0.7172230347748878,1.2163266426561798
1970-01-01 00:00:00.000000040,-1.4207633185419326,-1.3937865498288413,-0.6664104572073167,1.2165995639998517
1970-01-01 00:00:00.000000040,-1.3503034883635163,-1.481371994439233,-0.667404367452244,1.2260918884191123
1970-01-01 00:00:00.000000040,-1.1082801882400826,-1.4936075124939463,-0.7438576764667785,1.233306571561542
1970-01-01 00:00:00.000000040,-0.7714392376674317,-1.5375526422943004,-0.9832746965477575,1.242439105054397
1970-01-01 00:00:00.000000040,-0.48421293727967635,-1.5602941275828508,-1.3445394284533503,1.2583443274853805
1970-01-01 00:00:00.000000040,-0.15588469404738672,-1.5360873028924378,-1.7649883721424804,1.272934597309968
1970-01-01 00:00:00.000000040,0.16063477261227133,-1.4765948271643112,-2.122678396044957,1.284133383941278
1970-01-01 00:00:00.000000040,0.4744206159851501,-1.426954938660138,-2.3923102291875047,1.2894602216972568
1970-01-01 00:00:00.000000040,0.7028828947437767,-1.2752918035248109,-2.6938010788830655,1.2929646757281255
1970-01-01 00:00:00.000000040,0.8766981163382187,-1.0716311893276802,-2.906026333473161,1.2906539508530672
1970-01-01 00:00:00.000000040,0.9756723899004281,-0.9120992272274645,-3.022258843797234,1.2871184391085786
1970-01-01 00:00:00.000000040,1.0243399734814007,-0.7199480803055004,-3.1098625835437996,1.2824191312958095
1970-01-01 00:00:00.000000041,1.0485274521740242,-0.5690057042423781,-3.236537675106623,1.2814667033659015
1970-01-01 00:00:00.000000041,1.0769744118922895,-0.41712873497452907,-3.30057744507083,1.279034419556581
1970-01-01 00:00:00.000000041,1.132059982079484,-0.15984972456067764,-3.345432926296597,1.2718584008798806
1970-01-01 00:00:00.000000041,1.20842676954518,0.06562313285839907,-3.3116746039151206,1.2613547259312132
1970-01-01 00:00:00.000000041,1.2563064247911921,0.16905458339344237,-3.3324011077557367,1.2578748316276933
1970-01-01 00:00:00.000000041,1.3040387469831742,0.3141398191118864,-3.3478661051423977,1.2523302890727332
1970-01-01 00:00:00.000000041,1.3384951027326883,0.5131692126496717,-3.3595350510668034,1.2412670140671582
1970-01-01 00:00:00.000000041,1.2710588760722574,0.7665972797138711,-3.134411916376673,1.2228228087340198
1970-01-01 00:00:00.000000041,1.195022366733311,1.1227207764110743,-2.8318232543171575,1.1984876192464613
1970-01-01 00:00:00.000000041,1.1281407985805172,1.351451732529125,-2.520227901042583,1.1767063207732935
1970-01-01 00:00:00.000000041,1.0294070817333858,1.4643504898836766,-2.1164555858242027,1.1562328903497108
1970-01-01 00:00:00.000000041,0.9048204654036276,1.5494106975304427,-1.7606737130105947,1.140756282578062
1970-01-01 00:00:00.000000041,0.8168192076348272,1.6170239741053263,-1.4244490347948127,1.1272477306338768
1970-01-01 00:00:00.000000041,0.7779108441339236,1.6941925652630054,-1.1154942644996884,1.1146637671951325
1970-01-01 00:00:00.000000041,0.796130766867249,1.7719245896857971,-0.7981468050067614,1.1001986460335733
1970-01-01 00:00:00.000000041,0.831024289397744,1.9020514826511632,-0.43018934428525935,1.0807551628178378
1970-01-01 00:00:00.000000041,0.8486350133745767,2.0765089900646765,-0.0739219425261203,1.059009658926008
1970-01-01 00:00:00.000000041,0.8155188005664684,2.208734545596318,0.22934019258125632,1.0433242853945177
1970-01-01 00:00:00.000000041,0.8128369202686963,2.238229935511953,0.6950133366961243,1.0254276019109132
1970-01-01 00:00:00.000000041,0.8271333652504471,2.1060421040113253,1.1685882889991037,1.0115647176940223
1970-01-01 00:00:00.000000041,0.8145108860216048,1.85697908609562,1.5889426795815345,1.0046673498384286
1970-01-01 00:00:00.000000041,0.7964287321805874,1.68203717397384,1.882508013105893,0.9998730420559236
1970-01-01 00:00:00.000000041,0.7698006739183801,1.5784956374472399,2.0092447005267466,0.9981511726295809
1970-01-01 00:00:00.000000041,0.7270196155457789,1.4952109209473992,2.174964784962025,0.9938498634973967
1970-01-01 00:00:00.000000041,0.6541629560228045,1.4572545494259983,2.3798598147412577,0.9866258238023411
1970-01-01 00:00:00.000000041,0.5597419941306289,1.4450917069359208,2.675680006433364,0.9752525332561093
1970-01-01 00:00:00.000000041,0.4430664732223807,1.445835962737575,2.999114783853243,0.9665823597151599
1970-01-01 00:00:00.000000041,0.42881703864600224,1.4382541552798669,3.3961940259054866,0.9540214080634053
1970-01-01 00:00:00.000000041,0.46873962371279027,1.3007042529829898,3.8618019387591844,0.9414490418698558
1970-01-01 00:00:00.000000041,0.4971902538455321,0.9165565871963613,4.358254232527934,0.9366739950670663
1970-01-01 00:00:00.000000041,0.5182293466843844,0.2952812288599214,4.910019967036154,0.9334818131909386
1970-01-01 00:00:00.000000041,0.378307727085869,-0.5070100180968294,5.399238267329833,0.9400637116787688
1970-01-01 00:00:00.000000041,0.09957695815399517,-1.2109311470692443,5.6430338212743685,0.9576343332497365
1970-01-01 00:00:00.000000041,-0.16713978786165973,-1.610745072272275,5.540060787578679,0.9792245272735192
1970-01-01 00:00:00.000000041,-0.3744024531469602,-1.733315458943457,4.984477788688771,1.0130736091828272
1970-01-01 00:00:00.000000041,-0.36002586105206535,-1.7466618348480405,4.232949991371248,1.051648765724794
